,time,field.header.stamp,field.angular_velocity.x,field.angular_velocity.y,field.angular_velocity.z,field.linear_acceleration.x,field.linear_acceleration.y,field.linear_acceleration.z
3771,2021-07-29 16:53:51.687433472,1627577631687433481,-0.00349065847695,-0.0122173046693,0.0,0.0,0.0,0.0
3772,2021-07-29 16:53:51.692456448,1627577631692456484,-0.00174532923847,-0.0122173046693,-0.00523598771542,0.0,0.0,0.0
3773,2021-07-29 16:53:51.697381888,1627577631697381973,-0.00174532923847,-0.0157079622149,-0.00523598771542,0.0,0.0,0.0
3774,2021-07-29 16:53:51.702471936,1627577631702471972,-0.00349065847695,-0.00872664619237,0.0,0.0,0.0,0.0
0,2021-07-29 16:53:51.704375552,1627577631704375505,0.0,0.0,0.0,0.0294199492782,-9.7281961441,0.666852176189
3775,2021-07-29 16:53:51.707497472,1627577631707497358,-0.00523598771542,-0.0069813169539,-0.00349065847695,0.0,0.0,0.0
3776,2021-07-29 16:53:51.712385536,1627577631712385654,0.0,-0.00872664619237,-0.00349065847695,0.0,0.0,0.0
3777,2021-07-29 16:53:51.717598464,1627577631717598438,-0.00523598771542,-0.00872664619237,-0.00523598771542,0.0,0.0,0.0
1,2021-07-29 16:53:51.720181248,1627577631720181227,0.0,0.0,0.0,0.0294199492782,-9.68896961212,0.686465501785
3778,2021-07-29 16:53:51.722577664,1627577631722577572,0.0,-0.0174532923847,-0.00523598771542,0.0,0.0,0.0
3779,2021-07-29 16:53:51.727394560,1627577631727394581,-0.00523598771542,-0.0104719754308,-0.00174532923847,0.0,0.0,0.0
3780,2021-07-29 16:53:51.732384768,1627577631732384682,-0.00349065847695,-0.0139626339078,-0.00349065847695,0.0,0.0,0.0
2,2021-07-29 16:53:51.735986688,1627577631735986710,0.0,0.0,0.0,0.00980664975941,-9.7281961441,0.706078767776
3781,2021-07-29 16:53:51.737427968,1627577631737427950,-0.00174532923847,-0.00872664619237,-0.00872664619237,0.0,0.0,0.0
3782,2021-07-29 16:53:51.742433792,1627577631742433786,-0.00349065847695,-0.0139626339078,-0.0069813169539,0.0,0.0,0.0
3783,2021-07-29 16:53:51.747411712,1627577631747411728,0.0,-0.0157079622149,-0.00349065847695,0.0,0.0,0.0
3,2021-07-29 16:53:51.751793152,1627577631751793146,0.0,0.0,0.0,0.0490332469344,-9.70858287811,0.706078767776
3784,2021-07-29 16:53:51.752441600,1627577631752441645,-0.00349065847695,-0.0157079622149,-0.00349065847695,0.0,0.0,0.0
3785,2021-07-29 16:53:51.757439488,1627577631757439375,0.0,-0.0174532923847,0.0,0.0,0.0,0.0
3786,2021-07-29 16:53:51.762403840,1627577631762403965,-0.00174532923847,-0.00872664619237,-0.0069813169539,0.0,0.0,0.0
3787,2021-07-29 16:53:51.767538176,1627577631767538071,-0.00349065847695,-0.00523598771542,-0.00174532923847,0.0,0.0,0.0
4,2021-07-29 16:53:51.767598336,1627577631767598391,0.0,0.0,0.0,0.0490332469344,-9.70858287811,0.725692093372
3788,2021-07-29 16:53:51.772559616,1627577631772559643,-0.00174532923847,-0.0139626339078,-0.00349065847695,0.0,0.0,0.0
3789,2021-07-29 16:53:51.777408000,1627577631777407885,0.0,-0.00872664619237,-0.0122173046693,0.0,0.0,0.0
3790,2021-07-29 16:53:51.782352384,1627577631782352448,0.00349065847695,-0.00872664619237,-0.00523598771542,0.0,0.0,0.0
5,2021-07-29 16:53:51.783403520,1627577631783403635,0.0,0.0,0.0,0.0490332469344,-9.7478094101,0.764918684959
3791,2021-07-29 16:53:51.787439872,1627577631787439823,-0.00174532923847,-0.00523598771542,-0.0069813169539,0.0,0.0,0.0
3792,2021-07-29 16:53:51.792670720,1627577631792670727,-0.00349065847695,-0.00872664619237,-0.0069813169539,0.0,0.0,0.0
3793,2021-07-29 16:53:51.797640960,1627577631797641039,0.0,-0.0122173046693,-0.00349065847695,0.0,0.0,0.0
6,2021-07-29 16:53:51.799206400,1627577631799206495,0.0,0.0,0.0,0.0686465501785,-9.70858287811,0.725692093372
3794,2021-07-29 16:53:51.802645760,1627577631802645683,-0.00174532923847,-0.00872664619237,-0.0069813169539,0.0,0.0,0.0
3795,2021-07-29 16:53:51.807721984,1627577631807722092,0.0,-0.0104719754308,-0.00523598771542,0.0,0.0,0.0
3796,2021-07-29 16:53:51.812629248,1627577631812629223,-0.00349065847695,-0.00872664619237,-0.00523598771542,0.0,0.0,0.0
7,2021-07-29 16:53:51.815012352,1627577631815012455,0.0,0.0,0.0,0.0882598459721,-9.76742362976,0.745305359364
3797,2021-07-29 16:53:51.817781248,1627577631817781210,-0.00349065847695,-0.0104719754308,-0.00872664619237,0.0,0.0,0.0
3798,2021-07-29 16:53:51.822726144,1627577631822726250,-0.00174532923847,-0.0139626339078,-0.00523598771542,0.0,0.0,0.0
3799,2021-07-29 16:53:51.827645952,1627577631827646017,0.0,-0.00523598771542,-0.0104719754308,0.0,0.0,0.0
8,2021-07-29 16:53:51.830818304,1627577631830818176,0.0,0.0,0.0,0.107873149216,-9.68896961212,0.745305359364
3800,2021-07-29 16:53:51.832659968,1627577631832659960,-0.00174532923847,-0.00872664619237,-0.00349065847695,0.0,0.0,0.0
3801,2021-07-29 16:53:51.837688320,1627577631837688446,0.0,-0.0069813169539,-0.00872664619237,0.0,0.0,0.0
3802,2021-07-29 16:53:51.842618880,1627577631842618942,0.0,-0.0104719754308,-0.00523598771542,0.0,0.0,0.0
9,2021-07-29 16:53:51.846621440,1627577631846621513,0.0,0.0,0.0,0.0882598459721,-9.7281961441,0.745305359364
3803,2021-07-29 16:53:51.847646464,1627577631847646475,-0.00349065847695,-0.0139626339078,-0.0069813169539,0.0,0.0,0.0
3804,2021-07-29 16:53:51.852716800,1627577631852716684,0.0,-0.00872664619237,-0.00174532923847,0.0,0.0,0.0
3805,2021-07-29 16:53:51.857722880,1627577631857722759,-0.00174532923847,-0.00872664619237,-0.00523598771542,0.0,0.0,0.0
10,2021-07-29 16:53:51.862424064,1627577631862424135,0.0,0.0,0.0,0.107873149216,-9.68896961212,0.706078767776
3806,2021-07-29 16:53:51.862611968,1627577631862612009,-0.00174532923847,-0.0122173046693,0.0,0.0,0.0,0.0
3807,2021-07-29 16:53:51.867676416,1627577631867676497,0.0,-0.00872664619237,-0.00523598771542,0.0,0.0,0.0
3808,2021-07-29 16:53:51.872833024,1627577631872833014,-0.00174532923847,-0.0069813169539,-0.0069813169539,0.0,0.0,0.0
3809,2021-07-29 16:53:51.877636096,1627577631877636194,0.0,-0.0104719754308,-0.0104719754308,0.0,0.0,0.0
11,2021-07-29 16:53:51.878228224,1627577631878228188,0.0,0.0,0.0,0.107873149216,-9.7281961441,0.745305359364
3810,2021-07-29 16:53:51.882628608,1627577631882628679,-0.00174532923847,-0.0104719754308,-0.00523598771542,0.0,0.0,0.0
3811,2021-07-29 16:53:51.887697664,1627577631887697697,0.0,-0.0069813169539,-0.0069813169539,0.0,0.0,0.0
3812,2021-07-29 16:53:51.892699136,1627577631892699242,-0.00349065847695,-0.00872664619237,-0.00523598771542,0.0,0.0,0.0
12,2021-07-29 16:53:51.894032384,1627577631894032478,0.0,0.0,0.0,0.107873149216,-9.7281961441,0.706078767776
3813,2021-07-29 16:53:51.897662976,1627577631897662878,0.0,-0.0104719754308,-0.0104719754308,0.0,0.0,0.0
3814,2021-07-29 16:53:51.902745088,1627577631902745008,-0.00523598771542,-0.0122173046693,-0.00174532923847,0.0,0.0,0.0
3815,2021-07-29 16:53:51.907733504,1627577631907733440,0.0,-0.0122173046693,-0.0069813169539,0.0,0.0,0.0
13,2021-07-29 16:53:51.909834240,1627577631909834146,0.0,0.0,0.0,0.12748645246,-9.68896961212,0.764918684959
3816,2021-07-29 16:53:51.912748544,1627577631912748575,0.0,-0.0139626339078,0.0,0.0,0.0,0.0
3817,2021-07-29 16:53:51.917716992,1627577631917716980,-0.00174532923847,-0.0104719754308,-0.00523598771542,0.0,0.0,0.0
3818,2021-07-29 16:53:51.922660608,1627577631922660589,-0.00523598771542,-0.0122173046693,-0.00174532923847,0.0,0.0,0.0
14,2021-07-29 16:53:51.925637120,1627577631925637007,0.0,0.0,0.0,0.0882598459721,-9.78703689575,0.745305359364
3819,2021-07-29 16:53:51.927914752,1627577631927914858,-0.00174532923847,-0.0139626339078,-0.00523598771542,0.0,0.0,0.0
3820,2021-07-29 16:53:51.932882432,1627577631932882547,-0.00523598771542,-0.0104719754308,-0.0122173046693,0.0,0.0,0.0
3821,2021-07-29 16:53:51.937911296,1627577631937911272,-0.00174532923847,-0.00872664619237,-0.00523598771542,0.0,0.0,0.0
15,2021-07-29 16:53:51.941439744,1627577631941439629,0.0,0.0,0.0,0.0490332469344,-9.70858287811,0.706078767776
3822,2021-07-29 16:53:51.942891264,1627577631942891359,-0.00523598771542,-0.0157079622149,-0.00349065847695,0.0,0.0,0.0
3823,2021-07-29 16:53:51.947911680,1627577631947911739,-0.00174532923847,-0.0139626339078,-0.00174532923847,0.0,0.0,0.0
3824,2021-07-29 16:53:51.952959744,1627577631952959776,0.00349065847695,-0.00523598771542,-0.00349065847695,0.0,0.0,0.0
16,2021-07-29 16:53:51.957240320,1627577631957240343,0.0,0.0,0.0,0.0882598459721,-9.78703689575,0.804145276546
3825,2021-07-29 16:53:51.957950720,1627577631957950830,0.0,-0.00872664619237,-0.00174532923847,0.0,0.0,0.0
3826,2021-07-29 16:53:51.962894080,1627577631962893963,-0.00349065847695,-0.00872664619237,-0.0069813169539,0.0,0.0,0.0
3827,2021-07-29 16:53:51.968030976,1627577631968030930,-0.00523598771542,-0.0104719754308,-0.0122173046693,0.0,0.0,0.0
17,2021-07-29 16:53:51.973042432,1627577631973042488,0.0,0.0,0.0,0.0882598459721,-9.76742362976,0.784531950951
3828,2021-07-29 16:53:51.973649152,1627577631973649263,-0.0069813169539,-0.0069813169539,-0.00523598771542,0.0,0.0,0.0
3829,2021-07-29 16:53:51.977893376,1627577631977893353,0.0,-0.0139626339078,0.00174532923847,0.0,0.0,0.0
3830,2021-07-29 16:53:51.982895872,1627577631982895851,0.00523598771542,-0.0139626339078,0.0,0.0,0.0,0.0
3831,2021-07-29 16:53:51.987954176,1627577631987954140,0.00523598771542,-0.0122173046693,-0.00872664619237,0.0,0.0,0.0
18,2021-07-29 16:53:51.988844544,1627577631988844633,0.0,0.0,0.0,0.147099748254,-9.76742362976,0.725692093372
3832,2021-07-29 16:53:51.992931328,1627577631992931366,-0.00523598771542,-0.0069813169539,-0.00349065847695,0.0,0.0,0.0
3833,2021-07-29 16:53:51.997888000,1627577631997888088,-0.0174532923847,-0.0104719754308,-0.00349065847695,0.0,0.0,0.0
3834,2021-07-29 16:53:52.002921216,1627577632002921343,-0.0139626339078,-0.00872664619237,-0.00523598771542,0.0,0.0,0.0
19,2021-07-29 16:53:52.004645888,1627577632004645824,0.0,0.0,0.0,0.12748645246,-9.7281961441,0.813951909542
3835,2021-07-29 16:53:52.007905024,1627577632007905006,0.0,-0.0122173046693,-0.00349065847695,0.0,0.0,0.0
3836,2021-07-29 16:53:52.012897280,1627577632012897253,0.0139626339078,-0.0069813169539,-0.00174532923847,0.0,0.0,0.0
3837,2021-07-29 16:53:52.018006784,1627577632018006802,0.0104719754308,-0.00523598771542,-0.00349065847695,0.0,0.0,0.0
20,2021-07-29 16:53:52.020446464,1627577632020446539,0.0,0.0,0.0,0.0490332469344,-9.70858287811,0.568785667419
3838,2021-07-29 16:53:52.022890752,1627577632022890806,-0.00523598771542,-0.00523598771542,-0.00349065847695,0.0,0.0,0.0
3839,2021-07-29 16:53:52.027915264,1627577632027915239,-0.0139626339078,-0.0122173046693,0.0,0.0,0.0,0.0
3840,2021-07-29 16:53:52.032898560,1627577632032898664,-0.0122173046693,-0.00872664619237,-0.00174532923847,0.0,0.0,0.0
21,2021-07-29 16:53:52.036247296,1627577632036247253,0.0,0.0,0.0,0.0882598459721,-9.87529659271,0.931631743908
3841,2021-07-29 16:53:52.037933824,1627577632037933826,0.00174532923847,-0.00872664619237,-0.00523598771542,0.0,0.0,0.0
3842,2021-07-29 16:53:52.042928640,1627577632042928696,0.0104719754308,-0.0069813169539,-0.00523598771542,0.0,0.0,0.0
3843,2021-07-29 16:53:52.047890688,1627577632047890663,0.0,-0.0139626339078,0.0,0.0,0.0,0.0
22,2021-07-29 16:53:52.052057600,1627577632052057505,0.0,0.0,0.0,0.0490332469344,-9.61051654816,0.627625584602
3844,2021-07-29 16:53:52.052899328,1627577632052899361,-0.0122173046693,-0.0069813169539,-0.00523598771542,0.0,0.0,0.0
3845,2021-07-29 16:53:52.057912064,1627577632057912111,-0.0174532923847,-0.00872664619237,-0.00174532923847,0.0,0.0,0.0
3846,2021-07-29 16:53:52.063152384,1627577632063152313,-0.00174532923847,-0.0069813169539,-0.0069813169539,0.0,0.0,0.0
23,2021-07-29 16:53:52.067867136,1627577632067867041,0.0,0.0,0.0,0.0294199492782,-9.70858287811,0.647238910198
3847,2021-07-29 16:53:52.068147200,1627577632068147182,0.0104719754308,-0.0104719754308,0.0,0.0,0.0,0.0
3848,2021-07-29 16:53:52.073199872,1627577632073199987,0.0139626339078,-0.0122173046693,-0.00523598771542,0.0,0.0,0.0
3849,2021-07-29 16:53:52.078159360,1627577632078159332,-0.00174532923847,-0.0069813169539,-0.00349065847695,0.0,0.0,0.0
3850,2021-07-29 16:53:52.083214592,1627577632083214521,-0.0174532923847,-0.00872664619237,-0.00349065847695,0.0,0.0,0.0
24,2021-07-29 16:53:52.083675136,1627577632083675146,0.0,0.0,0.0,0.0882598459721,-9.93413639069,1.02969825268
3851,2021-07-29 16:53:52.088183296,1627577632088183403,-0.0139626339078,-0.0069813169539,-0.00523598771542,0.0,0.0,0.0
3852,2021-07-29 16:53:52.093174528,1627577632093174458,0.0,-0.00872664619237,-0.00523598771542,0.0,0.0,0.0
3853,2021-07-29 16:53:52.098123264,1627577632098123312,0.00872664619237,-0.00523598771542,-0.00174532923847,0.0,0.0,0.0
25,2021-07-29 16:53:52.099483136,1627577632099483013,0.0,0.0,0.0,0.0,-9.49283695221,0.28439283371
3854,2021-07-29 16:53:52.103170560,1627577632103170633,0.00872664619237,-0.0069813169539,-0.00523598771542,0.0,0.0,0.0
3855,2021-07-29 16:53:52.108129792,1627577632108129740,-0.00174532923847,-0.0104719754308,-0.00523598771542,0.0,0.0,0.0
3856,2021-07-29 16:53:52.113136384,1627577632113136292,-0.0139626339078,-0.00349065847695,-0.00523598771542,0.0,0.0,0.0
26,2021-07-29 16:53:52.115294976,1627577632115294933,0.0,0.0,0.0,0.00980664975941,-9.93413639069,1.08853816986
3857,2021-07-29 16:53:52.118340864,1627577632118340969,-0.0069813169539,-0.00349065847695,0.0,0.0,0.0,0.0
3858,2021-07-29 16:53:52.123202560,1627577632123202562,0.00349065847695,-0.00349065847695,-0.00523598771542,0.0,0.0,0.0
3859,2021-07-29 16:53:52.128125184,1627577632128125191,0.0122173046693,-0.0122173046693,-0.00349065847695,0.0,0.0,0.0
27,2021-07-29 16:53:52.131106304,1627577632131106377,0.0,0.0,0.0,0.12748645246,-9.57129001617,0.549172401428
3860,2021-07-29 16:53:52.133160448,1627577632133160353,0.00174532923847,-0.00523598771542,-0.00523598771542,0.0,0.0,0.0
3861,2021-07-29 16:53:52.138166784,1627577632138166666,-0.00872664619237,-0.00523598771542,0.0,0.0,0.0,0.0
3862,2021-07-29 16:53:52.143146496,1627577632143146515,-0.0174532923847,-0.0069813169539,-0.00349065847695,0.0,0.0,0.0
28,2021-07-29 16:53:52.146917120,1627577632146917105,0.0,0.0,0.0,0.0490332469344,-9.76742362976,0.892405152321
3863,2021-07-29 16:53:52.148145920,1627577632148145914,-0.00174532923847,-0.00349065847695,-0.00523598771542,0.0,0.0,0.0
3864,2021-07-29 16:53:52.153188096,1627577632153187990,0.00523598771542,-0.00872664619237,-0.00174532923847,0.0,0.0,0.0
3865,2021-07-29 16:53:52.158207744,1627577632158207655,0.0104719754308,-0.0104719754308,-0.00523598771542,0.0,0.0,0.0
29,2021-07-29 16:53:52.162726400,1627577632162726402,0.0,0.0,0.0,0.166713044047,-9.59090328217,0.608012259007
3866,2021-07-29 16:53:52.163151616,1627577632163151741,0.00174532923847,-0.00349065847695,-0.00523598771542,0.0,0.0,0.0
3867,2021-07-29 16:53:52.168235008,1627577632168235064,-0.0122173046693,-0.0069813169539,-0.0069813169539,0.0,0.0,0.0
3868,2021-07-29 16:53:52.173266176,1627577632173266172,-0.0104719754308,-0.0069813169539,-0.00349065847695,0.0,0.0,0.0
3869,2021-07-29 16:53:52.178128384,1627577632178128481,0.0,-0.0069813169539,-0.00872664619237,0.0,0.0,0.0
30,2021-07-29 16:53:52.178534400,1627577632178534508,0.0,0.0,0.0,0.0882598459721,-9.76742362976,0.833565235138
3870,2021-07-29 16:53:52.183195392,1627577632183195353,0.00523598771542,-0.00523598771542,-0.00523598771542,0.0,0.0,0.0
3871,2021-07-29 16:53:52.188185856,1627577632188185930,0.00174532923847,-0.0104719754308,-0.00174532923847,0.0,0.0,0.0
3872,2021-07-29 16:53:52.193133824,1627577632193133831,-0.00174532923847,-0.00872664619237,-0.00872664619237,0.0,0.0,0.0
31,2021-07-29 16:53:52.194344448,1627577632194344521,0.0,0.0,0.0,0.12748645246,-9.63012981415,0.706078767776
3873,2021-07-29 16:53:52.198379776,1627577632198379755,-0.0157079622149,-0.00523598771542,-0.0104719754308,0.0,0.0,0.0
3874,2021-07-29 16:53:52.203442688,1627577632203442574,-0.0122173046693,-0.0069813169539,-0.00523598771542,0.0,0.0,0.0
3875,2021-07-29 16:53:52.208396800,1627577632208396673,0.00523598771542,-0.00523598771542,-0.00523598771542,0.0,0.0,0.0
32,2021-07-29 16:53:52.210153472,1627577632210153580,0.0,0.0,0.0,0.107873149216,-9.70858287811,0.647238910198
3876,2021-07-29 16:53:52.213398016,1627577632213397980,0.0139626339078,-0.0122173046693,-0.00872664619237,0.0,0.0,0.0
3877,2021-07-29 16:53:52.218523648,1627577632218523741,0.00523598771542,-0.00523598771542,-0.00349065847695,0.0,0.0,0.0
3878,2021-07-29 16:53:52.223444224,1627577632223444223,-0.00349065847695,-0.0069813169539,-0.00523598771542,0.0,0.0,0.0
33,2021-07-29 16:53:52.225963008,1627577632225963116,0.0,0.0,0.0,0.107873149216,-9.85568332672,0.931631743908
3879,2021-07-29 16:53:52.228414720,1627577632228414774,-0.0139626339078,-0.00349065847695,-0.00872664619237,0.0,0.0,0.0
3880,2021-07-29 16:53:52.233561088,1627577632233561039,-0.00523598771542,-0.00872664619237,-0.00872664619237,0.0,0.0,0.0
3881,2021-07-29 16:53:52.238641408,1627577632238641500,0.00349065847695,-0.00523598771542,-0.00523598771542,0.0,0.0,0.0
34,2021-07-29 16:53:52.241773824,1627577632241773844,0.0,0.0,0.0,0.12748645246,-9.55167675018,0.529559075832
3882,2021-07-29 16:53:52.243396352,1627577632243396282,0.00872664619237,-0.00523598771542,-0.00349065847695,0.0,0.0,0.0
3883,2021-07-29 16:53:52.248384768,1627577632248384714,0.0,-0.0069813169539,-0.0069813169539,0.0,0.0,0.0
3884,2021-07-29 16:53:52.253431040,1627577632253431082,-0.00523598771542,-0.0104719754308,-0.00523598771542,0.0,0.0,0.0
35,2021-07-29 16:53:52.257582080,1627577632257582188,0.0,0.0,0.0,0.0490332469344,-9.93413639069,0.970858335495
3885,2021-07-29 16:53:52.258435584,1627577632258435488,-0.0157079622149,-0.0069813169539,-0.00349065847695,0.0,0.0,0.0
3886,2021-07-29 16:53:52.263386880,1627577632263386965,-0.00349065847695,-0.0104719754308,-0.00523598771542,0.0,0.0,0.0
3887,2021-07-29 16:53:52.268451328,1627577632268451214,0.00174532923847,-0.00349065847695,-0.0069813169539,0.0,0.0,0.0
36,2021-07-29 16:53:52.273390592,1627577632273390532,0.0,0.0,0.0,0.12748645246,-9.61051654816,0.470719188452
3888,2021-07-29 16:53:52.273479680,1627577632273479700,0.0069813169539,-0.00872664619237,-0.00349065847695,0.0,0.0,0.0
3889,2021-07-29 16:53:52.278358016,1627577632278357983,0.00349065847695,-0.00872664619237,-0.00523598771542,0.0,0.0,0.0
3890,2021-07-29 16:53:52.283400192,1627577632283400297,-0.0069813169539,-0.00523598771542,-0.00523598771542,0.0,0.0,0.0
3891,2021-07-29 16:53:52.288421120,1627577632288421154,-0.00872664619237,-0.0104719754308,-0.00523598771542,0.0,0.0,0.0
37,2021-07-29 16:53:52.289199616,1627577632289199591,0.0,0.0,0.0,0.0882598459721,-9.8949098587,0.970858335495
3892,2021-07-29 16:53:52.293375232,1627577632293375254,-0.00349065847695,-0.00523598771542,-0.00174532923847,0.0,0.0,0.0
3893,2021-07-29 16:53:52.298645504,1627577632298645496,0.00523598771542,-0.00349065847695,-0.00523598771542,0.0,0.0,0.0
3894,2021-07-29 16:53:52.303425792,1627577632303425789,0.0069813169539,-0.00523598771542,-0.00349065847695,0.0,0.0,0.0
38,2021-07-29 16:53:52.305008896,1627577632305008888,0.0,0.0,0.0,0.0686465501785,-9.63012981415,0.451105892658
3895,2021-07-29 16:53:52.308423168,1627577632308423281,0.0,-0.0139626339078,-0.00349065847695,0.0,0.0,0.0
3896,2021-07-29 16:53:52.313389312,1627577632313389301,-0.0069813169539,-0.00523598771542,-0.0069813169539,0.0,0.0,0.0
3897,2021-07-29 16:53:52.318423808,1627577632318423748,-0.00523598771542,-0.0069813169539,0.0,0.0,0.0,0.0
39,2021-07-29 16:53:52.320817664,1627577632320817709,0.0,0.0,0.0,0.0294199492782,-9.87529659271,0.872791826725
3898,2021-07-29 16:53:52.323464192,1627577632323464155,-0.00349065847695,-0.0104719754308,-0.0069813169539,0.0,0.0,0.0
3899,2021-07-29 16:53:52.328432640,1627577632328432560,0.00872664619237,-0.0122173046693,-0.00523598771542,0.0,0.0,0.0
3900,2021-07-29 16:53:52.333656320,1627577632333656311,0.00174532923847,-0.00872664619237,-0.00523598771542,0.0,0.0,0.0
40,2021-07-29 16:53:52.336625408,1627577632336625338,0.0,0.0,0.0,0.0686465501785,-9.64974308014,0.568785667419
3901,2021-07-29 16:53:52.338657280,1627577632338657379,-0.00523598771542,-0.0104719754308,0.0,0.0,0.0,0.0
3902,2021-07-29 16:53:52.343670784,1627577632343670845,-0.0104719754308,-0.00872664619237,-0.00349065847695,0.0,0.0,0.0
3903,2021-07-29 16:53:52.348657920,1627577632348657846,-0.00872664619237,-0.0122173046693,-0.00523598771542,0.0,0.0,0.0
41,2021-07-29 16:53:52.352432896,1627577632352432966,0.0,0.0,0.0,0.0294199492782,-9.78703689575,0.745305359364
3904,2021-07-29 16:53:52.353654784,1627577632353654861,0.0,-0.00872664619237,-0.00174532923847,0.0,0.0,0.0
3905,2021-07-29 16:53:52.358651392,1627577632358651400,0.00349065847695,-0.0069813169539,0.0,0.0,0.0,0.0
3906,2021-07-29 16:53:52.363666176,1627577632363666058,0.00349065847695,-0.0104719754308,0.0,0.0,0.0,0.0
42,2021-07-29 16:53:52.368240128,1627577632368240118,0.0,0.0,0.0,0.0490332469344,-9.70858287811,0.686465501785
3907,2021-07-29 16:53:52.368693504,1627577632368693590,-0.00523598771542,-0.0122173046693,-0.00174532923847,0.0,0.0,0.0
3908,2021-07-29 16:53:52.373718016,1627577632373718023,-0.0104719754308,-0.0122173046693,-0.00523598771542,0.0,0.0,0.0
3909,2021-07-29 16:53:52.378644736,1627577632378644705,-0.0069813169539,-0.0122173046693,-0.00174532923847,0.0,0.0,0.0
3910,2021-07-29 16:53:52.383799808,1627577632383799791,0.0,-0.0104719754308,0.0,0.0,0.0,0.0
43,2021-07-29 16:53:52.384047360,1627577632384047270,0.0,0.0,0.0,0.0490332469344,-9.66935634613,0.706078767776
3911,2021-07-29 16:53:52.388684288,1627577632388684273,0.00174532923847,-0.00872664619237,-0.00174532923847,0.0,0.0,0.0
3912,2021-07-29 16:53:52.393684736,1627577632393684626,0.0,-0.0104719754308,-0.00174532923847,0.0,0.0,0.0
3913,2021-07-29 16:53:52.398656512,1627577632398656607,-0.0069813169539,-0.0069813169539,-0.00523598771542,0.0,0.0,0.0
44,2021-07-29 16:53:52.399855360,1627577632399855375,0.0,0.0,0.0,0.0686465501785,-9.76742362976,0.853178501129
3914,2021-07-29 16:53:52.403698944,1627577632403698921,-0.0069813169539,-0.00523598771542,-0.00174532923847,0.0,0.0,0.0
3915,2021-07-29 16:53:52.408661760,1627577632408661842,-0.00872664619237,-0.00872664619237,-0.00349065847695,0.0,0.0,0.0
3916,2021-07-29 16:53:52.413600768,1627577632413600683,-0.00174532923847,-0.0122173046693,0.0,0.0,0.0,0.0
45,2021-07-29 16:53:52.415664384,1627577632415664434,0.0,0.0,0.0,0.0882598459721,-9.66935634613,0.706078767776
3917,2021-07-29 16:53:52.418730496,1627577632418730497,0.00174532923847,-0.0104719754308,-0.00174532923847,0.0,0.0,0.0
3918,2021-07-29 16:53:52.423735296,1627577632423735380,-0.00174532923847,-0.0122173046693,-0.00174532923847,0.0,0.0,0.0
3919,2021-07-29 16:53:52.428605952,1627577632428606033,-0.0104719754308,-0.00872664619237,-0.00349065847695,0.0,0.0,0.0
46,2021-07-29 16:53:52.431471104,1627577632431471109,0.0,0.0,0.0,0.0294199492782,-9.78703689575,0.892405152321
3920,2021-07-29 16:53:52.433662208,1627577632433662176,-0.00872664619237,-0.00523598771542,-0.00174532923847,0.0,0.0,0.0
3921,2021-07-29 16:53:52.438699776,1627577632438699722,0.0,-0.00349065847695,-0.0104719754308,0.0,0.0,0.0
3922,2021-07-29 16:53:52.443658752,1627577632443658829,0.0,-0.00523598771542,-0.00349065847695,0.0,0.0,0.0
47,2021-07-29 16:53:52.447277824,1627577632447277784,0.0,0.0,0.0,0.0882598459721,-9.64974308014,0.706078767776
3923,2021-07-29 16:53:52.448669440,1627577632448669434,0.00523598771542,-0.00523598771542,-0.00872664619237,0.0,0.0,0.0
3924,2021-07-29 16:53:52.453692672,1627577632453692675,-0.00174532923847,-0.00349065847695,-0.0069813169539,0.0,0.0,0.0
3925,2021-07-29 16:53:52.458807296,1627577632458807230,-0.00523598771542,-0.00349065847695,-0.00872664619237,0.0,0.0,0.0
48,2021-07-29 16:53:52.463084544,1627577632463084459,0.0,0.0,0.0,0.0686465501785,-9.81645679474,0.931631743908
3926,2021-07-29 16:53:52.463624448,1627577632463624477,-0.00523598771542,-0.00349065847695,-0.0104719754308,0.0,0.0,0.0
3927,2021-07-29 16:53:52.468970240,1627577632468970299,-0.00174532923847,0.0,-0.0069813169539,0.0,0.0,0.0
3928,2021-07-29 16:53:52.474100992,1627577632474101067,0.00523598771542,-0.00349065847695,-0.00523598771542,0.0,0.0,0.0
3929,2021-07-29 16:53:52.478880768,1627577632478880644,0.00523598771542,-0.0104719754308,-0.00523598771542,0.0,0.0,0.0
49,2021-07-29 16:53:52.478891008,1627577632478890896,0.0,0.0,0.0,0.0686465501785,-9.66935634613,0.588398993015
3930,2021-07-29 16:53:52.483940352,1627577632483940363,0.0,-0.00872664619237,-0.0104719754308,0.0,0.0,0.0
3931,2021-07-29 16:53:52.488960512,1627577632488960505,-0.00523598771542,-0.0069813169539,-0.00349065847695,0.0,0.0,0.0
3932,2021-07-29 16:53:52.493912576,1627577632493912697,-0.00523598771542,-0.00174532923847,-0.00349065847695,0.0,0.0,0.0
50,2021-07-29 16:53:52.494699008,1627577632494699001,0.0,0.0,0.0,0.0490332469344,-9.80665016174,0.813951909542
3933,2021-07-29 16:53:52.498901504,1627577632498901606,0.0,-0.00174532923847,-0.00872664619237,0.0,0.0,0.0
3934,2021-07-29 16:53:52.503921920,1627577632503921986,0.00523598771542,-0.00872664619237,-0.00872664619237,0.0,0.0,0.0
3935,2021-07-29 16:53:52.508874496,1627577632508874416,0.0,-0.00872664619237,-0.00174532923847,0.0,0.0,0.0
51,2021-07-29 16:53:52.510503936,1627577632510504007,0.0,0.0,0.0,0.0686465501785,-9.70858287811,0.608012259007
3936,2021-07-29 16:53:52.513895680,1627577632513895750,-0.00349065847695,-0.00349065847695,-0.00523598771542,0.0,0.0,0.0
3937,2021-07-29 16:53:52.518984448,1627577632518984556,-0.00872664619237,-0.00174532923847,-0.00872664619237,0.0,0.0,0.0
3938,2021-07-29 16:53:52.523913472,1627577632523913383,-0.00349065847695,-0.0069813169539,-0.00523598771542,0.0,0.0,0.0
52,2021-07-29 16:53:52.526309632,1627577632526309729,0.0,0.0,0.0,0.0686465501785,-9.7478094101,0.706078767776
3939,2021-07-29 16:53:52.528936704,1627577632528936625,0.00523598771542,-0.00349065847695,-0.00523598771542,0.0,0.0,0.0
3940,2021-07-29 16:53:52.533985024,1627577632533984900,0.00349065847695,-0.0069813169539,-0.00523598771542,0.0,0.0,0.0
3941,2021-07-29 16:53:52.539065088,1627577632539065123,0.0,-0.0069813169539,-0.00523598771542,0.0,0.0,0.0
53,2021-07-29 16:53:52.542115584,1627577632542115688,0.0,0.0,0.0,0.0686465501785,-9.7478094101,0.647238910198
3942,2021-07-29 16:53:52.543917056,1627577632543917179,-0.00174532923847,-0.00523598771542,-0.00523598771542,0.0,0.0,0.0
3943,2021-07-29 16:53:52.548871936,1627577632548871994,-0.00523598771542,-0.00349065847695,-0.00349065847695,0.0,0.0,0.0
3944,2021-07-29 16:53:52.553933568,1627577632553933620,-0.00523598771542,0.0,-0.0122173046693,0.0,0.0,0.0
54,2021-07-29 16:53:52.557921280,1627577632557921171,0.0,0.0,0.0,0.0490332469344,-9.70858287811,0.647238910198
3945,2021-07-29 16:53:52.558950400,1627577632558950424,0.00349065847695,-0.0069813169539,-0.00523598771542,0.0,0.0,0.0
3946,2021-07-29 16:53:52.563887616,1627577632563887596,0.00174532923847,-0.0104719754308,-0.00174532923847,0.0,0.0,0.0
3947,2021-07-29 16:53:52.568943104,1627577632568943024,0.0,-0.0122173046693,-0.00174532923847,0.0,0.0,0.0
55,2021-07-29 16:53:52.573726720,1627577632573726654,0.0,0.0,0.0,0.0294199492782,-9.7478094101,0.647238910198
3948,2021-07-29 16:53:52.573933312,1627577632573933363,-0.00174532923847,-0.00872664619237,0.0,0.0,0.0,0.0
3949,2021-07-29 16:53:52.578878720,1627577632578878641,-0.00349065847695,-0.0069813169539,-0.00872664619237,0.0,0.0,0.0
3950,2021-07-29 16:53:52.584003328,1627577632584003210,-0.00523598771542,-0.00872664619237,0.0,0.0,0.0,0.0
3951,2021-07-29 16:53:52.588953856,1627577632588953972,-0.00174532923847,-0.0069813169539,0.0,0.0,0.0,0.0
56,2021-07-29 16:53:52.589530880,1627577632589530945,0.0,0.0,0.0,0.00980664975941,-9.7281961441,0.549172401428
3952,2021-07-29 16:53:52.593926656,1627577632593926668,0.0,-0.0104719754308,-0.0069813169539,0.0,0.0,0.0
3953,2021-07-29 16:53:52.598881792,1627577632598881721,0.0,-0.00872664619237,-0.00174532923847,0.0,0.0,0.0
3954,2021-07-29 16:53:52.604173824,1627577632604173899,-0.00523598771542,-0.0104719754308,0.0,0.0,0.0,0.0
57,2021-07-29 16:53:52.605338112,1627577632605338097,0.0,0.0,0.0,0.0294199492782,-9.78703689575,0.647238910198
3955,2021-07-29 16:53:52.609187840,1627577632609187841,-0.0069813169539,-0.0122173046693,0.0,0.0,0.0,0.0
3956,2021-07-29 16:53:52.614151680,1627577632614151716,-0.00174532923847,-0.00349065847695,-0.00523598771542,0.0,0.0,0.0
3957,2021-07-29 16:53:52.619134720,1627577632619134665,-0.00174532923847,-0.0122173046693,-0.00523598771542,0.0,0.0,0.0
58,2021-07-29 16:53:52.621144064,1627577632621144056,0.0,0.0,0.0,0.0490332469344,-9.61051654816,0.549172401428
3958,2021-07-29 16:53:52.624239360,1627577632624239445,0.0,-0.0069813169539,-0.0069813169539,0.0,0.0,0.0
3959,2021-07-29 16:53:52.629181184,1627577632629181147,0.0,-0.0104719754308,0.0,0.0,0.0,0.0
3960,2021-07-29 16:53:52.634253824,1627577632634253740,-0.00174532923847,-0.00872664619237,-0.0104719754308,0.0,0.0,0.0
59,2021-07-29 16:53:52.636950016,1627577632636950016,0.0,0.0,0.0,0.0686465501785,-9.68896961212,0.745305359364
3961,2021-07-29 16:53:52.639217152,1627577632639217138,-0.00174532923847,-0.0122173046693,-0.00174532923847,0.0,0.0,0.0
3962,2021-07-29 16:53:52.644209664,1627577632644209623,0.0,-0.0139626339078,-0.0104719754308,0.0,0.0,0.0
3963,2021-07-29 16:53:52.649143808,1627577632649143696,0.00174532923847,-0.0122173046693,-0.00523598771542,0.0,0.0,0.0
60,2021-07-29 16:53:52.652754432,1627577632652754545,0.0,0.0,0.0,0.107873149216,-9.70858287811,0.725692093372
3964,2021-07-29 16:53:52.654204672,1627577632654204607,0.00174532923847,-0.00872664619237,-0.0069813169539,0.0,0.0,0.0
3965,2021-07-29 16:53:52.659141632,1627577632659141541,0.0,-0.0139626339078,-0.00523598771542,0.0,0.0,0.0
3966,2021-07-29 16:53:52.664123648,1627577632664123535,-0.00174532923847,-0.00523598771542,-0.00523598771542,0.0,0.0,0.0
61,2021-07-29 16:53:52.668559104,1627577632668559074,0.0,0.0,0.0,0.107873149216,-9.80665016174,0.813951909542
3967,2021-07-29 16:53:52.669197824,1627577632669197798,0.0,-0.00523598771542,-0.00872664619237,0.0,0.0,0.0
3968,2021-07-29 16:53:52.674182656,1627577632674182653,0.00349065847695,-0.0069813169539,-0.00523598771542,0.0,0.0,0.0
3969,2021-07-29 16:53:52.679150336,1627577632679150343,0.00174532923847,-0.00523598771542,-0.00523598771542,0.0,0.0,0.0
3970,2021-07-29 16:53:52.684167424,1627577632684167385,0.00349065847695,-0.00174532923847,-0.00349065847695,0.0,0.0,0.0
62,2021-07-29 16:53:52.684364544,1627577632684364557,0.0,0.0,0.0,0.205939650536,-9.7281961441,0.804145276546
3971,2021-07-29 16:53:52.689198848,1627577632689198732,0.0,0.00174532923847,-0.0104719754308,0.0,0.0,0.0
3972,2021-07-29 16:53:52.694166528,1627577632694166422,-0.00349065847695,-0.0069813169539,-0.00174532923847,0.0,0.0,0.0
3973,2021-07-29 16:53:52.699128576,1627577632699128628,0.0,-0.00349065847695,-0.00174532923847,0.0,0.0,0.0
63,2021-07-29 16:53:52.700169472,1627577632700169563,0.0,0.0,0.0,0.245166242123,-9.85568332672,0.872791826725
3974,2021-07-29 16:53:52.704384768,1627577632704384804,0.00349065847695,-0.00523598771542,-0.00872664619237,0.0,0.0,0.0
3975,2021-07-29 16:53:52.709201408,1627577632709201336,-0.00174532923847,-0.0069813169539,0.0,0.0,0.0,0.0
3976,2021-07-29 16:53:52.714123520,1627577632714123487,-0.00174532923847,-0.00523598771542,0.0,0.0,0.0,0.0
64,2021-07-29 16:53:52.715974912,1627577632715974808,0.0,0.0,0.0,0.147099748254,-9.87529659271,0.784531950951
3977,2021-07-29 16:53:52.719280128,1627577632719280005,-0.00174532923847,-0.00872664619237,0.0,0.0,0.0,0.0
3978,2021-07-29 16:53:52.724157952,1627577632724158049,-0.00349065847695,-0.00174532923847,-0.00174532923847,0.0,0.0,0.0
3979,2021-07-29 16:53:52.729173504,1627577632729173422,-0.00349065847695,-0.00523598771542,-0.00349065847695,0.0,0.0,0.0
65,2021-07-29 16:53:52.731776768,1627577632731776714,0.0,0.0,0.0,0.0490332469344,-9.80665016174,0.725692093372
3980,2021-07-29 16:53:52.734240768,1627577632734240770,-0.00349065847695,-0.0069813169539,0.00349065847695,0.0,0.0,0.0
3981,2021-07-29 16:53:52.739390976,1627577632739391088,0.0,-0.00174532923847,-0.00174532923847,0.0,0.0,0.0
3982,2021-07-29 16:53:52.744400384,1627577632744400501,-0.00174532923847,-0.0069813169539,0.00174532923847,0.0,0.0,0.0
66,2021-07-29 16:53:52.747579392,1627577632747579336,0.0,0.0,0.0,0.00980664975941,-9.80665016174,0.725692093372
3983,2021-07-29 16:53:52.749369088,1627577632749369144,0.0,-0.00872664619237,0.00174532923847,0.0,0.0,0.0
3984,2021-07-29 16:53:52.754577920,1627577632754577875,-0.00523598771542,-0.00174532923847,0.00174532923847,0.0,0.0,0.0
3985,2021-07-29 16:53:52.759391488,1627577632759391546,-0.00523598771542,-0.0069813169539,0.0,0.0,0.0,0.0
67,2021-07-29 16:53:52.763383040,1627577632763383150,0.0,0.0,0.0,0.00980664975941,-9.68896961212,0.686465501785
3986,2021-07-29 16:53:52.764396544,1627577632764396667,-0.00523598771542,-0.00872664619237,0.0,0.0,0.0,0.0
3987,2021-07-29 16:53:52.769606912,1627577632769606829,0.0,-0.00872664619237,0.0,0.0,0.0,0.0
3988,2021-07-29 16:53:52.774450176,1627577632774450064,0.0,-0.00349065847695,0.00174532923847,0.0,0.0,0.0
68,2021-07-29 16:53:52.779186432,1627577632779186487,0.0,0.0,0.0,0.0,-9.64974308014,0.745305359364
3989,2021-07-29 16:53:52.779395584,1627577632779395580,0.0,0.0,-0.00174532923847,0.0,0.0,0.0
3990,2021-07-29 16:53:52.784480000,1627577632784480095,0.0,-0.0069813169539,-0.00174532923847,0.0,0.0,0.0
3991,2021-07-29 16:53:52.789431808,1627577632789431810,-0.00349065847695,-0.0069813169539,-0.00349065847695,0.0,0.0,0.0
3992,2021-07-29 16:53:52.794390272,1627577632794390202,-0.00349065847695,-0.00523598771542,-0.00523598771542,0.0,0.0,0.0
69,2021-07-29 16:53:52.794990080,1627577632794990063,0.0,0.0,0.0,-0.00980664975941,-9.61051654816,0.725692093372
3993,2021-07-29 16:53:52.799391488,1627577632799391508,0.00174532923847,-0.00174532923847,-0.00349065847695,0.0,0.0,0.0
3994,2021-07-29 16:53:52.804469504,1627577632804469585,0.0,-0.00872664619237,-0.00349065847695,0.0,0.0,0.0
3995,2021-07-29 16:53:52.809384960,1627577632809385061,0.0,-0.0069813169539,-0.00872664619237,0.0,0.0,0.0
70,2021-07-29 16:53:52.810795008,1627577632810795069,0.0,0.0,0.0,0.00980664975941,-9.59090328217,0.764918684959
3996,2021-07-29 16:53:52.814390272,1627577632814390182,0.0,-0.0069813169539,-0.00523598771542,0.0,0.0,0.0
3997,2021-07-29 16:53:52.819642624,1627577632819642544,0.0,-0.00349065847695,-0.00523598771542,0.0,0.0,0.0
3998,2021-07-29 16:53:52.824432640,1627577632824432611,0.0,0.0,-0.00872664619237,0.0,0.0,0.0
71,2021-07-29 16:53:52.826600192,1627577632826600075,0.0,0.0,0.0,0.00980664975941,-9.7281961441,0.666852176189
3999,2021-07-29 16:53:52.829636096,1627577632829636097,0.00349065847695,-0.00349065847695,-0.0069813169539,0.0,0.0,0.0
4000,2021-07-29 16:53:52.834459392,1627577632834459305,0.00174532923847,-0.00349065847695,-0.00349065847695,0.0,0.0,0.0
4001,2021-07-29 16:53:52.839503616,1627577632839503527,0.00349065847695,-0.00523598771542,-0.00523598771542,0.0,0.0,0.0
72,2021-07-29 16:53:52.842402816,1627577632842402935,0.0,0.0,0.0,0.00980664975941,-9.7478094101,0.745305359364
4002,2021-07-29 16:53:52.844389632,1627577632844389677,-0.00174532923847,-0.00523598771542,-0.00872664619237,0.0,0.0,0.0
4003,2021-07-29 16:53:52.849362944,1627577632849362850,0.0,-0.00523598771542,-0.00174532923847,0.0,0.0,0.0
4004,2021-07-29 16:53:52.854468864,1627577632854468822,0.0,-0.00523598771542,-0.00523598771542,0.0,0.0,0.0
73,2021-07-29 16:53:52.858206464,1627577632858206511,0.0,0.0,0.0,0.0490332469344,-9.7281961441,0.706078767776
4005,2021-07-29 16:53:52.859437824,1627577632859437943,-0.00349065847695,-0.00523598771542,-0.00872664619237,0.0,0.0,0.0
4006,2021-07-29 16:53:52.864416000,1627577632864415884,0.0,-0.0104719754308,0.0,0.0,0.0,0.0
4007,2021-07-29 16:53:52.869435904,1627577632869435787,0.00523598771542,-0.00523598771542,-0.0069813169539,0.0,0.0,0.0
74,2021-07-29 16:53:52.874008320,1627577632874008417,0.0,0.0,0.0,0.00980664975941,-9.80665016174,0.647238910198
4008,2021-07-29 16:53:52.874688512,1627577632874688625,0.0,-0.0104719754308,-0.00523598771542,0.0,0.0,0.0
4009,2021-07-29 16:53:52.879652352,1627577632879652262,-0.00523598771542,-0.00349065847695,-0.0069813169539,0.0,0.0,0.0
4010,2021-07-29 16:53:52.884711168,1627577632884711266,-0.00174532923847,-0.00523598771542,-0.00349065847695,0.0,0.0,0.0
4011,2021-07-29 16:53:52.889675520,1627577632889675617,-0.00174532923847,-0.00349065847695,-0.00349065847695,0.0,0.0,0.0
75,2021-07-29 16:53:52.889808640,1627577632889808655,0.0,0.0,0.0,0.0294199492782,-9.66935634613,0.627625584602
4012,2021-07-29 16:53:52.894664704,1627577632894664764,0.0,-0.0069813169539,-0.00523598771542,0.0,0.0,0.0
4013,2021-07-29 16:53:52.899626496,1627577632899626493,0.0,-0.00523598771542,-0.0069813169539,0.0,0.0,0.0
4014,2021-07-29 16:53:52.904783360,1627577632904783487,-0.00523598771542,-0.00523598771542,-0.0069813169539,0.0,0.0,0.0
76,2021-07-29 16:53:52.905611776,1627577632905611753,0.0,0.0,0.0,0.0490332469344,-9.68896961212,0.725692093372
4015,2021-07-29 16:53:52.909637376,1627577632909637451,-0.0104719754308,-0.0104719754308,-0.00349065847695,0.0,0.0,0.0
4016,2021-07-29 16:53:52.914655744,1627577632914655685,-0.00174532923847,-0.0069813169539,-0.00523598771542,0.0,0.0,0.0
4017,2021-07-29 16:53:52.919709440,1627577632919709444,-0.00523598771542,-0.0104719754308,0.0,0.0,0.0,0.0
77,2021-07-29 16:53:52.921414144,1627577632921414137,0.0,0.0,0.0,0.0882598459721,-9.64974308014,0.666852176189
4018,2021-07-29 16:53:52.924946432,1627577632924946547,-0.00174532923847,-0.00523598771542,-0.00523598771542,0.0,0.0,0.0
4019,2021-07-29 16:53:52.929671168,1627577632929671049,0.00174532923847,-0.00349065847695,-0.00523598771542,0.0,0.0,0.0
4020,2021-07-29 16:53:52.934795520,1627577632934795618,-0.00523598771542,-0.0069813169539,-0.00523598771542,0.0,0.0,0.0
78,2021-07-29 16:53:52.937217024,1627577632937216997,0.0,0.0,0.0,0.0882598459721,-9.80665016174,0.764918684959
4021,2021-07-29 16:53:52.939688704,1627577632939688683,-0.00349065847695,-0.00523598771542,-0.00523598771542,0.0,0.0,0.0
4022,2021-07-29 16:53:52.944614656,1627577632944614649,0.0,-0.0069813169539,-0.00523598771542,0.0,0.0,0.0
4023,2021-07-29 16:53:52.949652480,1627577632949652433,0.0,-0.00523598771542,-0.00523598771542,0.0,0.0,0.0
79,2021-07-29 16:53:52.953019904,1627577632953019857,0.0,0.0,0.0,0.0882598459721,-9.76742362976,0.725692093372
4024,2021-07-29 16:53:52.954746368,1627577632954746246,0.0,-0.00523598771542,-0.0069813169539,0.0,0.0,0.0
4025,2021-07-29 16:53:52.959713280,1627577632959713221,-0.00349065847695,-0.0069813169539,-0.00349065847695,0.0,0.0,0.0
4026,2021-07-29 16:53:52.964647424,1627577632964647532,-0.00349065847695,-0.0069813169539,-0.00174532923847,0.0,0.0,0.0
80,2021-07-29 16:53:52.968824320,1627577632968824387,0.0,0.0,0.0,0.107873149216,-9.7478094101,0.745305359364
4027,2021-07-29 16:53:52.969765632,1627577632969765663,0.0,-0.00872664619237,0.0,0.0,0.0,0.0
4028,2021-07-29 16:53:52.974742272,1627577632974742174,0.0,-0.00523598771542,0.0,0.0,0.0,0.0
4029,2021-07-29 16:53:52.979641344,1627577632979641438,0.00174532923847,-0.00174532923847,-0.00523598771542,0.0,0.0,0.0
81,2021-07-29 16:53:52.984626944,1627577632984627008,0.0,0.0,0.0,0.0882598459721,-9.83607006073,0.745305359364
4030,2021-07-29 16:53:52.984710400,1627577632984710455,0.0,0.0,-0.00523598771542,0.0,0.0,0.0
4031,2021-07-29 16:53:52.989736960,1627577632989737034,0.00174532923847,-0.00349065847695,-0.00523598771542,0.0,0.0,0.0
4032,2021-07-29 16:53:52.994688768,1627577632994688749,0.0,0.00174532923847,-0.00523598771542,0.0,0.0,0.0
4033,2021-07-29 16:53:52.999621120,1627577632999621153,0.00174532923847,-0.00523598771542,-0.00174532923847,0.0,0.0,0.0
82,2021-07-29 16:53:53.000429056,1627577633000429153,0.0,0.0,0.0,0.0686465501785,-9.7281961441,0.706078767776
4034,2021-07-29 16:53:53.004725760,1627577633004725695,0.0,-0.00349065847695,-0.00174532923847,0.0,0.0,0.0
4035,2021-07-29 16:53:53.009932800,1627577633009932756,0.00174532923847,0.0,-0.00872664619237,0.0,0.0,0.0
4036,2021-07-29 16:53:53.014910464,1627577633014910460,-0.00174532923847,0.0,-0.00872664619237,0.0,0.0,0.0
83,2021-07-29 16:53:53.016232448,1627577633016232491,0.0,0.0,0.0,0.0490332469344,-9.64974308014,0.745305359364
4037,2021-07-29 16:53:53.019951872,1627577633019951820,0.0,-0.00523598771542,-0.00523598771542,0.0,0.0,0.0
4038,2021-07-29 16:53:53.024940032,1627577633024940014,0.0,-0.00523598771542,-0.00523598771542,0.0,0.0,0.0
4039,2021-07-29 16:53:53.029897472,1627577633029897451,0.0,-0.0069813169539,-0.00349065847695,0.0,0.0,0.0
84,2021-07-29 16:53:53.032038656,1627577633032038689,0.0,0.0,0.0,0.0490332469344,-9.66935634613,0.706078767776
4040,2021-07-29 16:53:53.034904832,1627577633034904718,0.0,-0.00349065847695,-0.00523598771542,0.0,0.0,0.0
4041,2021-07-29 16:53:53.039951104,1627577633039951086,0.0,-0.00872664619237,-0.00349065847695,0.0,0.0,0.0
4042,2021-07-29 16:53:53.044898816,1627577633044898748,-0.00349065847695,-0.00523598771542,-0.00349065847695,0.0,0.0,0.0
85,2021-07-29 16:53:53.047851264,1627577633047851324,0.0,0.0,0.0,0.0882598459721,-9.7478094101,0.764918684959
4043,2021-07-29 16:53:53.049940224,1627577633049940109,0.0,-0.00174532923847,-0.0069813169539,0.0,0.0,0.0
4044,2021-07-29 16:53:53.055001856,1627577633055001736,-0.00349065847695,-0.0069813169539,-0.00349065847695,0.0,0.0,0.0
4045,2021-07-29 16:53:53.059924224,1627577633059924126,0.0,0.0,-0.00523598771542,0.0,0.0,0.0
86,2021-07-29 16:53:53.063665152,1627577633063665152,0.0,0.0,0.0,0.0686465501785,-9.7281961441,0.804145276546
4046,2021-07-29 16:53:53.064913920,1627577633064913988,-0.00523598771542,-0.00523598771542,-0.00174532923847,0.0,0.0,0.0
4047,2021-07-29 16:53:53.069939200,1627577633069939137,-0.00174532923847,0.0,-0.0069813169539,0.0,0.0,0.0
4048,2021-07-29 16:53:53.074938368,1627577633074938297,-0.00523598771542,-0.00523598771542,0.0,0.0,0.0,0.0
87,2021-07-29 16:53:53.079476480,1627577633079476357,0.0,0.0,0.0,0.0686465501785,-9.76742362976,0.784531950951
4049,2021-07-29 16:53:53.079888128,1627577633079888105,-0.00523598771542,-0.00174532923847,0.0,0.0,0.0,0.0
4050,2021-07-29 16:53:53.084942592,1627577633084942579,0.0,-0.0069813169539,-0.00349065847695,0.0,0.0,0.0
4051,2021-07-29 16:53:53.089958912,1627577633089958906,0.00174532923847,-0.00523598771542,0.0,0.0,0.0,0.0
4052,2021-07-29 16:53:53.094907136,1627577633094907045,0.0,-0.00174532923847,0.0,0.0,0.0,0.0
88,2021-07-29 16:53:53.095287808,1627577633095287800,0.0,0.0,0.0,0.0490332469344,-9.8949098587,0.725692093372
4053,2021-07-29 16:53:53.099890688,1627577633099890709,-0.00349065847695,-0.00174532923847,-0.00349065847695,0.0,0.0,0.0
4054,2021-07-29 16:53:53.104923392,1627577633104923487,-0.00523598771542,0.0,-0.00523598771542,0.0,0.0,0.0
4055,2021-07-29 16:53:53.110140416,1627577633110140324,0.0,0.0,-0.00349065847695,0.0,0.0,0.0
89,2021-07-29 16:53:53.111095808,1627577633111095905,0.0,0.0,0.0,0.0686465501785,-9.7281961441,0.725692093372
4056,2021-07-29 16:53:53.114895872,1627577633114895821,0.0,0.0,-0.00349065847695,0.0,0.0,0.0
4057,2021-07-29 16:53:53.119961600,1627577633119961500,0.00174532923847,-0.00174532923847,-0.00523598771542,0.0,0.0,0.0
4058,2021-07-29 16:53:53.124949760,1627577633124949694,0.0,-0.00523598771542,0.0,0.0,0.0,0.0
90,2021-07-29 16:53:53.126905088,1627577633126904964,0.0,0.0,0.0,0.0294199492782,-9.7281961441,0.706078767776
4059,2021-07-29 16:53:53.129896960,1627577633129896879,0.0,-0.00174532923847,-0.00523598771542,0.0,0.0,0.0
4060,2021-07-29 16:53:53.134909440,1627577633134909391,0.0,0.0,-0.00523598771542,0.0,0.0,0.0
4061,2021-07-29 16:53:53.139952384,1627577633139952421,-0.00349065847695,-0.00174532923847,0.0,0.0,0.0,0.0
91,2021-07-29 16:53:53.142714624,1627577633142714739,0.0,0.0,0.0,0.0490332469344,-9.76742362976,0.686465501785
4062,2021-07-29 16:53:53.145127424,1627577633145127296,0.0,-0.00523598771542,0.0,0.0,0.0,0.0
4063,2021-07-29 16:53:53.150144512,1627577633150144577,0.00174532923847,-0.00174532923847,0.0,0.0,0.0,0.0
4064,2021-07-29 16:53:53.155236352,1627577633155236244,0.0,0.0,0.00523598771542,0.0,0.0,0.0
92,2021-07-29 16:53:53.158526720,1627577633158526659,0.0,0.0,0.0,0.0686465501785,-9.91452312469,0.666852176189
4065,2021-07-29 16:53:53.160103168,1627577633160103083,0.00174532923847,0.00349065847695,0.00349065847695,0.0,0.0,0.0
4066,2021-07-29 16:53:53.165164544,1627577633165164471,0.0,0.0,0.00174532923847,0.0,0.0,0.0
4067,2021-07-29 16:53:53.170214144,1627577633170214176,0.0,-0.00174532923847,0.0,0.0,0.0,0.0
93,2021-07-29 16:53:53.174338048,1627577633174338102,0.0,0.0,0.0,0.0686465501785,-9.81645679474,0.686465501785
4068,2021-07-29 16:53:53.175177472,1627577633175177574,-0.00349065847695,-0.00174532923847,0.00174532923847,0.0,0.0,0.0
4069,2021-07-29 16:53:53.180154624,1627577633180154562,-0.00174532923847,-0.00174532923847,0.0,0.0,0.0,0.0
4070,2021-07-29 16:53:53.185254400,1627577633185254335,0.0,0.0,0.0,0.0,0.0,0.0
94,2021-07-29 16:53:53.190149632,1627577633190149546,0.0,0.0,0.0,0.12748645246,-9.55167675018,0.666852176189
4071,2021-07-29 16:53:53.190163968,1627577633190163851,0.0,-0.0069813169539,0.0,0.0,0.0,0.0
4072,2021-07-29 16:53:53.195180800,1627577633195180893,0.0,0.0,-0.00174532923847,0.0,0.0,0.0
4073,2021-07-29 16:53:53.200215552,1627577633200215578,0.0,-0.00174532923847,-0.00523598771542,0.0,0.0,0.0
4074,2021-07-29 16:53:53.205392640,1627577633205392599,0.0,-0.00349065847695,-0.00523598771542,0.0,0.0,0.0
95,2021-07-29 16:53:53.205960960,1627577633205960989,0.0,0.0,0.0,0.0490332469344,-9.5124502182,0.627625584602
4075,2021-07-29 16:53:53.210201856,1627577633210201979,-0.00174532923847,-0.00349065847695,-0.0069813169539,0.0,0.0,0.0
4076,2021-07-29 16:53:53.215153408,1627577633215153456,-0.00174532923847,-0.00174532923847,-0.0069813169539,0.0,0.0,0.0
4077,2021-07-29 16:53:53.220183040,1627577633220183134,0.00349065847695,0.0,-0.0069813169539,0.0,0.0,0.0
96,2021-07-29 16:53:53.221772032,1627577633221771955,0.0,0.0,0.0,0.0686465501785,-9.49283695221,0.568785667419
4078,2021-07-29 16:53:53.225149952,1627577633225149870,0.0,-0.00872664619237,-0.00523598771542,0.0,0.0,0.0
4079,2021-07-29 16:53:53.230190848,1627577633230190754,-0.00174532923847,-0.00523598771542,-0.0069813169539,0.0,0.0,0.0
4080,2021-07-29 16:53:53.235180032,1627577633235180140,0.00174532923847,-0.0069813169539,-0.00523598771542,0.0,0.0,0.0
97,2021-07-29 16:53:53.237582080,1627577633237581968,0.0,0.0,0.0,0.0882598459721,-9.76742362976,0.627625584602
4081,2021-07-29 16:53:53.240174080,1627577633240174055,0.00174532923847,-0.00523598771542,-0.00349065847695,0.0,0.0,0.0
4082,2021-07-29 16:53:53.245179136,1627577633245179176,0.00174532923847,-0.00349065847695,-0.00872664619237,0.0,0.0,0.0
4083,2021-07-29 16:53:53.250234112,1627577633250234127,0.00174532923847,-0.00174532923847,-0.0104719754308,0.0,0.0,0.0
98,2021-07-29 16:53:53.253390848,1627577633253390789,0.0,0.0,0.0,0.0882598459721,-9.85568332672,0.686465501785
4084,2021-07-29 16:53:53.255208960,1627577633255208969,0.0,-0.00523598771542,-0.0069813169539,0.0,0.0,0.0
4085,2021-07-29 16:53:53.260203520,1627577633260203600,0.0,-0.00349065847695,-0.00523598771542,0.0,0.0,0.0
4086,2021-07-29 16:53:53.265156352,1627577633265156269,0.0,-0.0069813169539,-0.00523598771542,0.0,0.0,0.0
99,2021-07-29 16:53:53.269200384,1627577633269200325,0.0,0.0,0.0,0.147099748254,-9.7281961441,0.647238910198
4087,2021-07-29 16:53:53.270170624,1627577633270170689,0.0,-0.0069813169539,-0.00174532923847,0.0,0.0,0.0
4088,2021-07-29 16:53:53.275227392,1627577633275227308,0.00349065847695,-0.0069813169539,-0.00523598771542,0.0,0.0,0.0
4089,2021-07-29 16:53:53.280154112,1627577633280154228,0.0,-0.00872664619237,-0.00174532923847,0.0,0.0,0.0
100,2021-07-29 16:53:53.285007872,1627577633285007954,0.0,0.0,0.0,0.12748645246,-9.85568332672,0.745305359364
4090,2021-07-29 16:53:53.285432064,1627577633285432100,-0.00174532923847,-0.0069813169539,-0.00523598771542,0.0,0.0,0.0
4091,2021-07-29 16:53:53.290444032,1627577633290444136,-0.00174532923847,-0.0139626339078,-0.00523598771542,0.0,0.0,0.0
4092,2021-07-29 16:53:53.295433728,1627577633295433760,-0.00349065847695,-0.0104719754308,-0.00349065847695,0.0,0.0,0.0
4093,2021-07-29 16:53:53.300354048,1627577633300354004,0.0,-0.0157079622149,-0.00174532923847,0.0,0.0,0.0
101,2021-07-29 16:53:53.300814336,1627577633300814390,0.0,0.0,0.0,0.0882598459721,-9.63012981415,0.568785667419
4094,2021-07-29 16:53:53.305409280,1627577633305409193,0.00349065847695,-0.00523598771542,-0.00349065847695,0.0,0.0,0.0
4095,2021-07-29 16:53:53.310451968,1627577633310451984,0.0,-0.0122173046693,-0.00523598771542,0.0,0.0,0.0
4096,2021-07-29 16:53:53.315382272,1627577633315382242,-0.00174532923847,-0.0104719754308,0.0,0.0,0.0,0.0
102,2021-07-29 16:53:53.316622592,1627577633316622496,0.0,0.0,0.0,0.0882598459721,-9.70858287811,0.804145276546
4097,2021-07-29 16:53:53.320535296,1627577633320535183,0.0,-0.00523598771542,-0.00872664619237,0.0,0.0,0.0
4098,2021-07-29 16:53:53.325430272,1627577633325430155,-0.0069813169539,-0.00523598771542,-0.0069813169539,0.0,0.0,0.0
4099,2021-07-29 16:53:53.330392576,1627577633330392599,-0.00349065847695,-0.00523598771542,-0.00523598771542,0.0,0.0,0.0
103,2021-07-29 16:53:53.332429568,1627577633332429647,0.0,0.0,0.0,0.12748645246,-9.57129001617,0.608012259007
4100,2021-07-29 16:53:53.335463424,1627577633335463524,0.0,-0.00523598771542,-0.00523598771542,0.0,0.0,0.0
4101,2021-07-29 16:53:53.340451840,1627577633340451717,0.00174532923847,-0.00349065847695,-0.00523598771542,0.0,0.0,0.0
4102,2021-07-29 16:53:53.345396992,1627577633345396996,-0.00174532923847,-0.0104719754308,-0.00174532923847,0.0,0.0,0.0
104,2021-07-29 16:53:53.348238592,1627577633348238468,0.0,0.0,0.0,0.0882598459721,-9.76742362976,0.804145276546
4103,2021-07-29 16:53:53.350392064,1627577633350392103,-0.00523598771542,-0.00523598771542,-0.00523598771542,0.0,0.0,0.0
4104,2021-07-29 16:53:53.355578624,1627577633355578661,-0.00523598771542,-0.0104719754308,-0.00523598771542,0.0,0.0,0.0
4105,2021-07-29 16:53:53.360451328,1627577633360451221,-0.00349065847695,-0.00349065847695,-0.00349065847695,0.0,0.0,0.0
105,2021-07-29 16:53:53.364046336,1627577633364046335,0.0,0.0,0.0,0.12748645246,-9.66935634613,0.764918684959
4106,2021-07-29 16:53:53.365403136,1627577633365403175,-0.00174532923847,-0.00523598771542,-0.00349065847695,0.0,0.0,0.0
4107,2021-07-29 16:53:53.370473216,1627577633370473146,-0.00523598771542,-0.00872664619237,-0.00174532923847,0.0,0.0,0.0
4108,2021-07-29 16:53:53.375488256,1627577633375488281,-0.00174532923847,-0.0069813169539,-0.00523598771542,0.0,0.0,0.0
106,2021-07-29 16:53:53.379854080,1627577633379853964,0.0,0.0,0.0,0.107873149216,-9.81645679474,0.853178501129
4109,2021-07-29 16:53:53.380341504,1627577633380341530,0.0,-0.00174532923847,-0.00174532923847,0.0,0.0,0.0
4110,2021-07-29 16:53:53.385482496,1627577633385482550,0.0,0.0,-0.00523598771542,0.0,0.0,0.0
4111,2021-07-29 16:53:53.390433536,1627577633390433550,0.0,-0.00349065847695,-0.00174532923847,0.0,0.0,0.0
4112,2021-07-29 16:53:53.395399424,1627577633395399332,0.0,0.0,-0.0069813169539,0.0,0.0,0.0
107,2021-07-29 16:53:53.395662336,1627577633395662308,0.0,0.0,0.0,0.12748645246,-9.80665016174,0.784531950951
4113,2021-07-29 16:53:53.400497920,1627577633400497913,-0.00174532923847,-0.0069813169539,0.0,0.0,0.0,0.0
4114,2021-07-29 16:53:53.405435904,1627577633405435801,0.00349065847695,-0.00523598771542,-0.00174532923847,0.0,0.0,0.0
4115,2021-07-29 16:53:53.410425088,1627577633410425186,0.0,-0.00523598771542,-0.00174532923847,0.0,0.0,0.0
108,2021-07-29 16:53:53.411468800,1627577633411468744,0.0,0.0,0.0,0.0882598459721,-9.83607006073,0.784531950951
4116,2021-07-29 16:53:53.415423488,1627577633415423393,0.0,-0.00349065847695,-0.00523598771542,0.0,0.0,0.0
4117,2021-07-29 16:53:53.420699392,1627577633420699358,0.0,0.0,-0.00523598771542,0.0,0.0,0.0
4118,2021-07-29 16:53:53.425708032,1627577633425708055,0.0,-0.00523598771542,-0.00174532923847,0.0,0.0,0.0
109,2021-07-29 16:53:53.427275776,1627577633427275896,0.0,0.0,0.0,0.107873149216,-9.66935634613,0.745305359364
4119,2021-07-29 16:53:53.430647040,1627577633430647135,0.00349065847695,0.0,-0.00174532923847,0.0,0.0,0.0
4120,2021-07-29 16:53:53.435687936,1627577633435688019,0.00349065847695,-0.00174532923847,-0.00523598771542,0.0,0.0,0.0
4121,2021-07-29 16:53:53.440657664,1627577633440657616,0.00349065847695,-0.00349065847695,-0.00349065847695,0.0,0.0,0.0
110,2021-07-29 16:53:53.443083008,1627577633443083048,0.0,0.0,0.0,0.0882598459721,-9.78703689575,0.813951909542
4122,2021-07-29 16:53:53.445642752,1627577633445642710,0.0,-0.00349065847695,-0.00523598771542,0.0,0.0,0.0
4123,2021-07-29 16:53:53.450734080,1627577633450734138,-0.00174532923847,-0.00523598771542,-0.00523598771542,0.0,0.0,0.0
4124,2021-07-29 16:53:53.455750144,1627577633455750227,0.0,-0.00174532923847,-0.00349065847695,0.0,0.0,0.0
111,2021-07-29 16:53:53.458889984,1627577633458889961,0.0,0.0,0.0,0.0882598459721,-9.63012981415,0.706078767776
4125,2021-07-29 16:53:53.460648448,1627577633460648537,0.0,-0.00349065847695,-0.00349065847695,0.0,0.0,0.0
4126,2021-07-29 16:53:53.465637888,1627577633465637922,0.00349065847695,-0.00349065847695,-0.00174532923847,0.0,0.0,0.0
4127,2021-07-29 16:53:53.470741504,1627577633470741510,0.0,-0.00872664619237,-0.00349065847695,0.0,0.0,0.0
112,2021-07-29 16:53:53.474697728,1627577633474697828,0.0,0.0,0.0,0.0490332469344,-9.70858287811,0.784531950951
4128,2021-07-29 16:53:53.475633152,1627577633475633144,-0.0069813169539,0.0,-0.00523598771542,0.0,0.0,0.0
4129,2021-07-29 16:53:53.480647168,1627577633480647087,-0.00523598771542,0.0,-0.00349065847695,0.0,0.0,0.0
4130,2021-07-29 16:53:53.485656064,1627577633485656023,-0.00349065847695,0.0,-0.00349065847695,0.0,0.0,0.0
113,2021-07-29 16:53:53.490504192,1627577633490504265,0.0,0.0,0.0,0.0686465501785,-9.64974308014,0.666852176189
4131,2021-07-29 16:53:53.490694656,1627577633490694761,0.0,0.0,-0.00523598771542,0.0,0.0,0.0
4132,2021-07-29 16:53:53.495662848,1627577633495662928,0.0,-0.00523598771542,0.0,0.0,0.0,0.0
4133,2021-07-29 16:53:53.500727296,1627577633500727177,-0.00349065847695,-0.00523598771542,-0.00174532923847,0.0,0.0,0.0
4134,2021-07-29 16:53:53.505687552,1627577633505687475,-0.0069813169539,-0.00523598771542,-0.00174532923847,0.0,0.0,0.0
114,2021-07-29 16:53:53.506312960,1627577633506312847,0.0,0.0,0.0,0.0490332469344,-9.80665016174,0.813951909542
4135,2021-07-29 16:53:53.510642432,1627577633510642529,-0.0104719754308,0.0,-0.00174532923847,0.0,0.0,0.0
4136,2021-07-29 16:53:53.515643904,1627577633515643835,-0.00174532923847,-0.00349065847695,-0.00523598771542,0.0,0.0,0.0
4137,2021-07-29 16:53:53.520680960,1627577633520680904,-0.00349065847695,-0.00174532923847,0.0,0.0,0.0,0.0
115,2021-07-29 16:53:53.522120960,1627577633522120953,0.0,0.0,0.0,0.0882598459721,-9.68896961212,0.627625584602
4138,2021-07-29 16:53:53.525679616,1627577633525679588,0.00174532923847,-0.00174532923847,0.00174532923847,0.0,0.0,0.0
4139,2021-07-29 16:53:53.530639360,1627577633530639410,0.0,-0.00349065847695,0.00174532923847,0.0,0.0,0.0
4140,2021-07-29 16:53:53.535776768,1627577633535776854,-0.00174532923847,-0.00523598771542,-0.00872664619237,0.0,0.0,0.0
116,2021-07-29 16:53:53.537929984,1627577633537930012,0.0,0.0,0.0,0.0490332469344,-9.99297618866,0.853178501129
4141,2021-07-29 16:53:53.540690432,1627577633540690422,-0.00349065847695,0.00349065847695,-0.0122173046693,0.0,0.0,0.0
4142,2021-07-29 16:53:53.545661184,1627577633545661211,-0.00872664619237,0.00174532923847,-0.00174532923847,0.0,0.0,0.0
4143,2021-07-29 16:53:53.550688512,1627577633550688505,-0.00349065847695,0.00174532923847,0.00174532923847,0.0,0.0,0.0
117,2021-07-29 16:53:53.553737216,1627577633553737164,0.0,0.0,0.0,0.225552946329,-9.49283695221,0.529559075832
4144,2021-07-29 16:53:53.555995648,1627577633555995703,0.0139626339078,-0.00174532923847,0.0,0.0,0.0,0.0
4145,2021-07-29 16:53:53.560926464,1627577633560926437,0.0157079622149,-0.00349065847695,-0.00872664619237,0.0,0.0,0.0
4146,2021-07-29 16:53:53.565889536,1627577633565889597,0.00523598771542,-0.00174532923847,-0.00523598771542,0.0,0.0,0.0
118,2021-07-29 16:53:53.569543936,1627577633569543839,0.0,0.0,0.0,-0.0294199492782,-9.95374965668,0.951245009899
4147,2021-07-29 16:53:53.570962176,1627577633570962191,-0.00523598771542,0.0,-0.00872664619237,0.0,0.0,0.0
4148,2021-07-29 16:53:53.575936512,1627577633575936556,-0.0157079622149,-0.00174532923847,-0.00872664619237,0.0,0.0,0.0
4149,2021-07-29 16:53:53.580887040,1627577633580887079,-0.0069813169539,-0.00523598771542,-0.0069813169539,0.0,0.0,0.0
119,2021-07-29 16:53:53.585352448,1627577633585352421,0.0,0.0,0.0,0.107873149216,-9.16921710968,0.362846046686
4150,2021-07-29 16:53:53.585924608,1627577633585924625,0.0122173046693,0.0,-0.00174532923847,0.0,0.0,0.0
4151,2021-07-29 16:53:53.590946304,1627577633590946198,0.0191986225545,-0.00174532923847,-0.00174532923847,0.0,0.0,0.0
4152,2021-07-29 16:53:53.595889920,1627577633595890045,0.00523598771542,-0.00349065847695,-0.00174532923847,0.0,0.0,0.0
4153,2021-07-29 16:53:53.600974336,1627577633600974321,-0.0157079622149,-0.00349065847695,-0.00523598771542,0.0,0.0,0.0
120,2021-07-29 16:53:53.601157888,1627577633601157904,0.0,0.0,0.0,-0.00980664975941,-10.2087221146,1.08853816986
4154,2021-07-29 16:53:53.605960704,1627577633605960608,-0.0226892791688,-0.00174532923847,-0.0104719754308,0.0,0.0,0.0
4155,2021-07-29 16:53:53.610947584,1627577633610947609,-0.00523598771542,0.00174532923847,-0.0069813169539,0.0,0.0,0.0
4156,2021-07-29 16:53:53.615914240,1627577633615914345,0.0069813169539,-0.00174532923847,-0.00872664619237,0.0,0.0,0.0
121,2021-07-29 16:53:53.616966400,1627577633616966486,0.0,0.0,0.0,0.0294199492782,-9.20844459534,0.0490332469344
4157,2021-07-29 16:53:53.620932608,1627577633620932579,0.0122173046693,-0.00872664619237,-0.00523598771542,0.0,0.0,0.0
4158,2021-07-29 16:53:53.625922816,1627577633625922918,0.00349065847695,-0.00349065847695,0.0,0.0,0.0,0.0
4159,2021-07-29 16:53:53.630893568,1627577633630893469,-0.00872664619237,0.0,-0.00349065847695,0.0,0.0,0.0
122,2021-07-29 16:53:53.632774656,1627577633632774591,0.0,0.0,0.0,0.107873149216,-10.0125894547,1.2552511692
4160,2021-07-29 16:53:53.635938048,1627577633635938168,-0.0139626339078,0.00174532923847,-0.00872664619237,0.0,0.0,0.0
4161,2021-07-29 16:53:53.641027840,1627577633641027927,-0.00349065847695,0.0,-0.00523598771542,0.0,0.0,0.0
4162,2021-07-29 16:53:53.645887232,1627577633645887136,0.00523598771542,0.00174532923847,-0.00523598771542,0.0,0.0,0.0
123,2021-07-29 16:53:53.648582656,1627577633648582697,0.0,0.0,0.0,0.12748645246,-9.64974308014,0.323619455099
4163,2021-07-29 16:53:53.650953472,1627577633650953531,0.00872664619237,-0.00174532923847,-0.00349065847695,0.0,0.0,0.0
4164,2021-07-29 16:53:53.655944960,1627577633655945063,0.0,0.0,-0.0069813169539,0.0,0.0,0.0
4165,2021-07-29 16:53:53.660898560,1627577633660898685,-0.0122173046693,0.0,-0.00523598771542,0.0,0.0,0.0
124,2021-07-29 16:53:53.664388608,1627577633664388657,0.0,0.0,0.0,0.107873149216,-9.80665016174,0.804145276546
4166,2021-07-29 16:53:53.665890560,1627577633665890455,-0.0122173046693,0.0,-0.0104719754308,0.0,0.0,0.0
4167,2021-07-29 16:53:53.670923008,1627577633670922995,-0.00174532923847,0.0,-0.00349065847695,0.0,0.0,0.0
4168,2021-07-29 16:53:53.675955456,1627577633675955534,0.0069813169539,-0.00349065847695,0.0,0.0,0.0,0.0
125,2021-07-29 16:53:53.680197376,1627577633680197477,0.0,0.0,0.0,0.0686465501785,-9.66935634613,0.451105892658
4169,2021-07-29 16:53:53.680890368,1627577633680890322,0.0104719754308,-0.00174532923847,-0.00349065847695,0.0,0.0,0.0
4170,2021-07-29 16:53:53.685961984,1627577633685961962,0.0,-0.0069813169539,-0.00523598771542,0.0,0.0,0.0
4171,2021-07-29 16:53:53.691239936,1627577633691239834,-0.0069813169539,-0.00349065847695,-0.00872664619237,0.0,0.0,0.0
126,2021-07-29 16:53:53.696005120,1627577633696005106,0.0,0.0,0.0,0.166713044047,-9.83607006073,0.853178501129
4172,2021-07-29 16:53:53.696145408,1627577633696145535,-0.00872664619237,-0.00174532923847,-0.0122173046693,0.0,0.0,0.0
4173,2021-07-29 16:53:53.701247232,1627577633701247215,0.0,-0.00523598771542,-0.00872664619237,0.0,0.0,0.0
4174,2021-07-29 16:53:53.706251264,1627577633706251144,0.0069813169539,-0.0069813169539,-0.0139626339078,0.0,0.0,0.0
4175,2021-07-29 16:53:53.711128576,1627577633711128473,0.0069813169539,-0.00174532923847,-0.0104719754308,0.0,0.0,0.0
127,2021-07-29 16:53:53.711812608,1627577633711812496,0.0,0.0,0.0,0.470719188452,-9.16921710968,0.490332484245
4176,2021-07-29 16:53:53.716127488,1627577633716127396,0.0,-0.00872664619237,-0.0122173046693,0.0,0.0,0.0
4177,2021-07-29 16:53:53.721255168,1627577633721255064,-0.00523598771542,-0.00523598771542,-0.0122173046693,0.0,0.0,0.0
4178,2021-07-29 16:53:53.726206976,1627577633726207018,-0.00523598771542,-0.0069813169539,-0.0104719754308,0.0,0.0,0.0
128,2021-07-29 16:53:53.727618048,1627577633727617979,0.0,0.0,0.0,0.490332484245,-9.7478094101,0.804145276546
4179,2021-07-29 16:53:53.731152640,1627577633731152534,0.0,-0.00523598771542,-0.0174532923847,0.0,0.0,0.0
4180,2021-07-29 16:53:53.736186624,1627577633736186504,0.00349065847695,0.0,-0.0104719754308,0.0,0.0,0.0
4181,2021-07-29 16:53:53.741769728,1627577633741769791,0.00349065847695,-0.0104719754308,-0.00349065847695,0.0,0.0,0.0
129,2021-07-29 16:53:53.743424256,1627577633743424177,0.0,0.0,0.0,0.38245934248,-9.78703689575,0.666852176189
4182,2021-07-29 16:53:53.746151680,1627577633746151686,0.0069813169539,-0.0069813169539,-0.00174532923847,0.0,0.0,0.0
4183,2021-07-29 16:53:53.751337984,1627577633751338005,0.00349065847695,-0.00174532923847,-0.0069813169539,0.0,0.0,0.0
4184,2021-07-29 16:53:53.756183552,1627577633756183624,0.0,0.00349065847695,-0.00174532923847,0.0,0.0,0.0
130,2021-07-29 16:53:53.759230208,1627577633759230137,0.0,0.0,0.0,0.0490332469344,-10.2577552795,0.853178501129
4185,2021-07-29 16:53:53.761111808,1627577633761111736,0.0,-0.00523598771542,-0.00174532923847,0.0,0.0,0.0
4186,2021-07-29 16:53:53.766138112,1627577633766138077,0.00174532923847,-0.00523598771542,-0.0069813169539,0.0,0.0,0.0
4187,2021-07-29 16:53:53.771215872,1627577633771215916,0.00523598771542,0.0,0.0,0.0,0.0,0.0
131,2021-07-29 16:53:53.775035904,1627577633775035858,0.0,0.0,0.0,0.0,-9.85568332672,0.627625584602
4188,2021-07-29 16:53:53.776110848,1627577633776110888,0.00174532923847,-0.00174532923847,0.00523598771542,0.0,0.0,0.0
4189,2021-07-29 16:53:53.781155328,1627577633781155348,0.0,-0.00523598771542,0.00174532923847,0.0,0.0,0.0
4190,2021-07-29 16:53:53.786170112,1627577633786170006,-0.00349065847695,-0.00872664619237,0.00174532923847,0.0,0.0,0.0
132,2021-07-29 16:53:53.790843648,1627577633790843725,0.0,0.0,0.0,-0.0882598459721,-10.1891088486,0.745305359364
4191,2021-07-29 16:53:53.791224064,1627577633791224003,-0.00523598771542,-0.00349065847695,0.00349065847695,0.0,0.0,0.0
4192,2021-07-29 16:53:53.796161280,1627577633796161175,-0.0069813169539,-0.00174532923847,0.00174532923847,0.0,0.0,0.0
4193,2021-07-29 16:53:53.801145344,1627577633801145315,-0.00349065847695,0.0,0.0,0.0,0.0,0.0
4194,2021-07-29 16:53:53.806211328,1627577633806211233,-0.0069813169539,-0.00523598771542,0.0,0.0,0.0,0.0
133,2021-07-29 16:53:53.806647296,1627577633806647301,0.0,0.0,0.0,0.0294199492782,-9.7281961441,0.666852176189
4195,2021-07-29 16:53:53.811123200,1627577633811123133,-0.00349065847695,-0.00872664619237,0.0,0.0,0.0,0.0
4196,2021-07-29 16:53:53.816147968,1627577633816148043,-0.0104719754308,0.0,-0.00174532923847,0.0,0.0,0.0
4197,2021-07-29 16:53:53.821227264,1627577633821227312,-0.0104719754308,-0.00349065847695,0.0,0.0,0.0,0.0
134,2021-07-29 16:53:53.822450688,1627577633822450638,0.0,0.0,0.0,0.0490332469344,-9.5124502182,0.745305359364
4198,2021-07-29 16:53:53.826449152,1627577633826449156,-0.00523598771542,0.0,0.0,0.0,0.0,0.0
4199,2021-07-29 16:53:53.831431424,1627577633831431389,0.00523598771542,0.0,0.00349065847695,0.0,0.0,0.0
4200,2021-07-29 16:53:53.836418560,1627577633836418629,0.00523598771542,0.0,-0.00349065847695,0.0,0.0,0.0
135,2021-07-29 16:53:53.838253056,1627577633838253021,0.0,0.0,0.0,0.0,-9.85568332672,0.833565235138
4201,2021-07-29 16:53:53.841438976,1627577633841439009,0.0,-0.00523598771542,0.0,0.0,0.0,0.0
4202,2021-07-29 16:53:53.846404864,1627577633846404791,-0.0122173046693,-0.00872664619237,-0.00174532923847,0.0,0.0,0.0
4203,2021-07-29 16:53:53.851476480,1627577633851476431,-0.0104719754308,-0.00872664619237,-0.00174532923847,0.0,0.0,0.0
136,2021-07-29 16:53:53.854059008,1627577633854058981,0.0,0.0,0.0,0.0882598459721,-9.59090328217,0.706078767776
4204,2021-07-29 16:53:53.856445184,1627577633856445074,-0.00523598771542,0.0,-0.00174532923847,0.0,0.0,0.0
4205,2021-07-29 16:53:53.861430528,1627577633861430645,0.00523598771542,-0.00523598771542,0.0,0.0,0.0,0.0
4206,2021-07-29 16:53:53.866350080,1627577633866350174,0.0069813169539,-0.00523598771542,0.0,0.0,0.0,0.0
137,2021-07-29 16:53:53.869864192,1627577633869864225,0.0,0.0,0.0,0.00980664975941,-9.5124502182,0.784531950951
4207,2021-07-29 16:53:53.871429632,1627577633871429682,0.0,-0.00349065847695,-0.00523598771542,0.0,0.0,0.0
4208,2021-07-29 16:53:53.876429824,1627577633876429796,-0.00872664619237,-0.00349065847695,-0.00523598771542,0.0,0.0,0.0
4209,2021-07-29 16:53:53.881385728,1627577633881385803,-0.00872664619237,-0.00349065847695,-0.0069813169539,0.0,0.0,0.0
138,2021-07-29 16:53:53.885670912,1627577633885670900,0.0,0.0,0.0,0.0686465501785,-9.49283695221,0.813951909542
4210,2021-07-29 16:53:53.886555392,1627577633886555433,-0.0069813169539,-0.00523598771542,-0.00349065847695,0.0,0.0,0.0
4211,2021-07-29 16:53:53.891451648,1627577633891451597,0.00349065847695,-0.00174532923847,-0.0069813169539,0.0,0.0,0.0
4212,2021-07-29 16:53:53.896359168,1627577633896359205,0.00174532923847,-0.00349065847695,-0.00523598771542,0.0,0.0,0.0
4213,2021-07-29 16:53:53.901468160,1627577633901468039,0.0,0.0,-0.0104719754308,0.0,0.0,0.0
139,2021-07-29 16:53:53.901470720,1627577633901470661,0.0,0.0,0.0,0.00980664975941,-9.57129001617,0.784531950951
4214,2021-07-29 16:53:53.906473728,1627577633906473637,-0.0069813169539,0.0,-0.0069813169539,0.0,0.0,0.0
4215,2021-07-29 16:53:53.911393280,1627577633911393404,-0.00872664619237,0.0,-0.0122173046693,0.0,0.0,0.0
4216,2021-07-29 16:53:53.916420608,1627577633916420698,-0.00523598771542,-0.00523598771542,-0.00349065847695,0.0,0.0,0.0
140,2021-07-29 16:53:53.917273344,1627577633917273283,0.0,0.0,0.0,0.0686465501785,-9.47322368622,0.666852176189
4217,2021-07-29 16:53:53.921425152,1627577633921425104,0.0,-0.00174532923847,-0.0122173046693,0.0,0.0,0.0
4218,2021-07-29 16:53:53.926420480,1627577633926420450,0.00174532923847,-0.00349065847695,-0.00523598771542,0.0,0.0,0.0
4219,2021-07-29 16:53:53.931395328,1627577633931395292,-0.00523598771542,-0.00349065847695,-0.00523598771542,0.0,0.0,0.0
141,2021-07-29 16:53:53.933075712,1627577633933075666,0.0,0.0,0.0,0.0490332469344,-9.78703689575,0.931631743908
4220,2021-07-29 16:53:53.936452352,1627577633936452389,-0.0069813169539,-0.00174532923847,-0.00523598771542,0.0,0.0,0.0
4221,2021-07-29 16:53:53.941393408,1627577633941393375,-0.00523598771542,0.0,-0.00523598771542,0.0,0.0,0.0
4222,2021-07-29 16:53:53.946381824,1627577633946381807,-0.00174532923847,0.0,-0.0069813169539,0.0,0.0,0.0
142,2021-07-29 16:53:53.948879104,1627577633948879004,0.0,0.0,0.0,0.0490332469344,-9.80665016174,0.627625584602
4223,2021-07-29 16:53:53.951526400,1627577633951526403,0.00174532923847,0.0,-0.0069813169539,0.0,0.0,0.0
4224,2021-07-29 16:53:53.956438784,1627577633956438780,0.0,-0.00349065847695,-0.00523598771542,0.0,0.0,0.0
4225,2021-07-29 16:53:53.961686016,1627577633961685896,0.0,0.00174532923847,-0.00349065847695,0.0,0.0,0.0
143,2021-07-29 16:53:53.964682752,1627577633964682817,0.0,0.0,0.0,0.0294199492782,-9.93413639069,0.833565235138
4226,2021-07-29 16:53:53.966650112,1627577633966650009,-0.0069813169539,0.00174532923847,-0.0069813169539,0.0,0.0,0.0
4227,2021-07-29 16:53:53.971942144,1627577633971942186,-0.00523598771542,-0.00174532923847,-0.00349065847695,0.0,0.0,0.0
4228,2021-07-29 16:53:53.976731904,1627577633976731777,-0.00349065847695,0.0,0.0,0.0,0.0,0.0
144,2021-07-29 16:53:53.980486912,1627577633980486870,0.0,0.0,0.0,0.0882598459721,-9.78703689575,0.666852176189
4229,2021-07-29 16:53:53.981884416,1627577633981884480,0.00523598771542,0.00174532923847,-0.0069813169539,0.0,0.0,0.0
4230,2021-07-29 16:53:53.986704384,1627577633986704350,0.00174532923847,0.00174532923847,-0.00174532923847,0.0,0.0,0.0
4231,2021-07-29 16:53:53.991779840,1627577633991779804,-0.00349065847695,0.0,0.0,0.0,0.0,0.0
145,2021-07-29 16:53:53.996290560,1627577633996290684,0.0,0.0,0.0,0.0490332469344,-9.8949098587,0.784531950951
4232,2021-07-29 16:53:53.996638976,1627577633996639013,-0.0069813169539,0.0,-0.00174532923847,0.0,0.0,0.0
4233,2021-07-29 16:53:54.001682944,1627577634001682997,-0.0069813169539,0.0,-0.00349065847695,0.0,0.0,0.0
4234,2021-07-29 16:53:54.006689792,1627577634006689787,-0.00523598771542,0.0,-0.00523598771542,0.0,0.0,0.0
4235,2021-07-29 16:53:54.011649792,1627577634011649847,0.0,0.0,-0.00174532923847,0.0,0.0,0.0
146,2021-07-29 16:53:54.012095232,1627577634012095213,0.0,0.0,0.0,0.0882598459721,-9.59090328217,0.568785667419
4236,2021-07-29 16:53:54.016675584,1627577634016675711,0.0,-0.00349065847695,-0.00174532923847,0.0,0.0,0.0
4237,2021-07-29 16:53:54.021803008,1627577634021802902,-0.00523598771542,0.0,-0.00872664619237,0.0,0.0,0.0
4238,2021-07-29 16:53:54.026677504,1627577634026677608,-0.00872664619237,-0.00174532923847,-0.00349065847695,0.0,0.0,0.0
147,2021-07-29 16:53:54.027898880,1627577634027898788,0.0,0.0,0.0,0.0294199492782,-9.7281961441,0.666852176189
4239,2021-07-29 16:53:54.031633408,1627577634031633377,-0.00523598771542,-0.00174532923847,-0.00349065847695,0.0,0.0,0.0
4240,2021-07-29 16:53:54.036698880,1627577634036698818,-0.00349065847695,-0.00174532923847,-0.00523598771542,0.0,0.0,0.0
4241,2021-07-29 16:53:54.041718784,1627577634041718721,0.00174532923847,-0.00174532923847,-0.00174532923847,0.0,0.0,0.0
148,2021-07-29 16:53:54.043710208,1627577634043710232,0.0,0.0,0.0,0.0686465501785,-9.61051654816,0.588398993015
4242,2021-07-29 16:53:54.046690304,1627577634046690226,0.0,0.0,-0.00523598771542,0.0,0.0,0.0
4243,2021-07-29 16:53:54.051686912,1627577634051687002,-0.00349065847695,0.0,-0.00523598771542,0.0,0.0,0.0
4244,2021-07-29 16:53:54.056691712,1627577634056691647,-0.0069813169539,0.0,-0.00523598771542,0.0,0.0,0.0
149,2021-07-29 16:53:54.059522048,1627577634059522152,0.0,0.0,0.0,0.0294199492782,-9.66935634613,0.647238910198
4245,2021-07-29 16:53:54.061639424,1627577634061639309,-0.0069813169539,-0.00349065847695,-0.0069813169539,0.0,0.0,0.0
4246,2021-07-29 16:53:54.066643968,1627577634066643953,0.0,-0.00174532923847,-0.00349065847695,0.0,0.0,0.0
4247,2021-07-29 16:53:54.071679232,1627577634071679354,0.0,-0.0069813169539,-0.0122173046693,0.0,0.0,0.0
150,2021-07-29 16:53:54.075335168,1627577634075335264,0.0,0.0,0.0,0.0294199492782,-9.70858287811,0.666852176189
4248,2021-07-29 16:53:54.076897024,1627577634076896906,0.0,-0.00523598771542,-0.00523598771542,0.0,0.0,0.0
4249,2021-07-29 16:53:54.081657600,1627577634081657648,-0.00174532923847,-0.00523598771542,-0.00523598771542,0.0,0.0,0.0
4250,2021-07-29 16:53:54.086683392,1627577634086683512,-0.00174532923847,0.0,-0.00872664619237,0.0,0.0,0.0
151,2021-07-29 16:53:54.091146240,1627577634091146231,0.0,0.0,0.0,0.0490332469344,-9.66935634613,0.608012259007
4251,2021-07-29 16:53:54.091759360,1627577634091759443,0.0,-0.00523598771542,-0.0069813169539,0.0,0.0,0.0
4252,2021-07-29 16:53:54.096890368,1627577634096890450,0.00349065847695,-0.0069813169539,-0.00523598771542,0.0,0.0,0.0
4253,2021-07-29 16:53:54.101934336,1627577634101934433,0.00349065847695,-0.00523598771542,-0.0104719754308,0.0,0.0,0.0
4254,2021-07-29 16:53:54.106900992,1627577634106900930,0.0,-0.00174532923847,-0.0069813169539,0.0,0.0,0.0
152,2021-07-29 16:53:54.106956800,1627577634106956720,0.0,0.0,0.0,0.0294199492782,-9.76742362976,0.647238910198
4255,2021-07-29 16:53:54.111889920,1627577634111889839,0.0,-0.00349065847695,-0.00872664619237,0.0,0.0,0.0
4256,2021-07-29 16:53:54.116985600,1627577634116985559,-0.0069813169539,-0.00872664619237,-0.0069813169539,0.0,0.0,0.0
4257,2021-07-29 16:53:54.121948416,1627577634121948481,-0.00349065847695,-0.0069813169539,-0.00523598771542,0.0,0.0,0.0
153,2021-07-29 16:53:54.122766336,1627577634122766256,0.0,0.0,0.0,0.12748645246,-9.61051654816,0.529559075832
4258,2021-07-29 16:53:54.126939136,1627577634126939058,0.0,-0.00523598771542,-0.00872664619237,0.0,0.0,0.0
4259,2021-07-29 16:53:54.131890688,1627577634131890774,-0.00174532923847,-0.00872664619237,-0.0069813169539,0.0,0.0,0.0
4260,2021-07-29 16:53:54.136982528,1627577634136982441,0.0,-0.00174532923847,-0.0122173046693,0.0,0.0,0.0
154,2021-07-29 16:53:54.138576896,1627577634138576984,0.0,0.0,0.0,0.28439283371,-9.64974308014,0.725692093372
4261,2021-07-29 16:53:54.141936640,1627577634141936541,-0.00523598771542,-0.00349065847695,-0.0139626339078,0.0,0.0,0.0
4262,2021-07-29 16:53:54.146899200,1627577634146899223,-0.0069813169539,-0.00523598771542,-0.00872664619237,0.0,0.0,0.0
4263,2021-07-29 16:53:54.151951104,1627577634151951075,0.0,-0.00349065847695,-0.0069813169539,0.0,0.0,0.0
155,2021-07-29 16:53:54.154386176,1627577634154386282,0.0,0.0,0.0,0.323619455099,-9.64974308014,0.509945809841
4264,2021-07-29 16:53:54.156936960,1627577634156936884,0.00349065847695,-0.00349065847695,-0.0069813169539,0.0,0.0,0.0
4265,2021-07-29 16:53:54.161922560,1627577634161922455,0.0,-0.00523598771542,-0.0104719754308,0.0,0.0,0.0
4266,2021-07-29 16:53:54.166906880,1627577634166906834,0.00349065847695,-0.00872664619237,-0.00523598771542,0.0,0.0,0.0
156,2021-07-29 16:53:54.170196224,1627577634170196295,0.0,0.0,0.0,0.264779537916,-9.87529659271,0.764918684959
4267,2021-07-29 16:53:54.171892992,1627577634171892881,-0.00523598771542,-0.00349065847695,-0.0069813169539,0.0,0.0,0.0
4268,2021-07-29 16:53:54.176940544,1627577634176940441,-0.00174532923847,-0.0069813169539,-0.0104719754308,0.0,0.0,0.0
4269,2021-07-29 16:53:54.181882880,1627577634181882858,0.0,-0.00523598771542,-0.00349065847695,0.0,0.0,0.0
157,2021-07-29 16:53:54.186004224,1627577634186004162,0.0,0.0,0.0,0.205939650536,-9.83607006073,0.627625584602
4270,2021-07-29 16:53:54.186953216,1627577634186953306,0.00349065847695,0.0,-0.00174532923847,0.0,0.0,0.0
4271,2021-07-29 16:53:54.191957760,1627577634191957712,0.00523598771542,-0.00174532923847,-0.00349065847695,0.0,0.0,0.0
4272,2021-07-29 16:53:54.196908288,1627577634196908236,0.0,-0.00523598771542,-0.00349065847695,0.0,0.0,0.0
158,2021-07-29 16:53:54.201812992,1627577634201812983,0.0,0.0,0.0,0.0882598459721,-10.0714292526,0.804145276546
4273,2021-07-29 16:53:54.201903872,1627577634201903820,-0.00349065847695,-0.00349065847695,-0.00174532923847,0.0,0.0,0.0
4274,2021-07-29 16:53:54.206901504,1627577634206901550,-0.00349065847695,-0.00523598771542,0.0,0.0,0.0,0.0
4275,2021-07-29 16:53:54.211894784,1627577634211894751,0.0,0.0,0.0,0.0,0.0,0.0
4276,2021-07-29 16:53:54.216956416,1627577634216956377,0.00349065847695,-0.00174532923847,0.00174532923847,0.0,0.0,0.0
159,2021-07-29 16:53:54.217621760,1627577634217621803,0.0,0.0,0.0,0.0490332469344,-9.8949098587,0.588398993015
4277,2021-07-29 16:53:54.222038784,1627577634222038746,0.00523598771542,0.0,-0.00349065847695,0.0,0.0,0.0
4278,2021-07-29 16:53:54.226941440,1627577634226941347,0.0,-0.00174532923847,0.0,0.0,0.0,0.0
4279,2021-07-29 16:53:54.232146688,1627577634232146740,-0.00349065847695,-0.00174532923847,-0.00349065847695,0.0,0.0,0.0
160,2021-07-29 16:53:54.233431296,1627577634233431339,0.0,0.0,0.0,0.0294199492782,-9.87529659271,0.804145276546
4280,2021-07-29 16:53:54.237207296,1627577634237207413,-0.00349065847695,-0.00349065847695,0.0,0.0,0.0,0.0
4281,2021-07-29 16:53:54.242230528,1627577634242230654,0.0,0.0,-0.00349065847695,0.0,0.0,0.0
4282,2021-07-29 16:53:54.247124992,1627577634247124910,0.00174532923847,-0.00523598771542,0.00349065847695,0.0,0.0,0.0
161,2021-07-29 16:53:54.249241600,1627577634249241590,0.0,0.0,0.0,0.0490332469344,-9.68896961212,0.647238910198
4283,2021-07-29 16:53:54.252189184,1627577634252189159,0.0,-0.00349065847695,-0.00523598771542,0.0,0.0,0.0
4284,2021-07-29 16:53:54.257217792,1627577634257217884,0.0,-0.00523598771542,0.0,0.0,0.0,0.0
4285,2021-07-29 16:53:54.262191360,1627577634262191296,-0.00523598771542,-0.00349065847695,-0.00349065847695,0.0,0.0,0.0
162,2021-07-29 16:53:54.265052160,1627577634265052080,0.0,0.0,0.0,0.0686465501785,-9.64974308014,0.725692093372
4286,2021-07-29 16:53:54.267147520,1627577634267147541,0.0,-0.00174532923847,-0.00523598771542,0.0,0.0,0.0
4287,2021-07-29 16:53:54.272189440,1627577634272189379,0.00174532923847,-0.00349065847695,-0.00349065847695,0.0,0.0,0.0
4288,2021-07-29 16:53:54.277178880,1627577634277179003,0.00349065847695,-0.00523598771542,-0.00349065847695,0.0,0.0,0.0
163,2021-07-29 16:53:54.280861184,1627577634280861139,0.0,0.0,0.0,0.166713044047,-9.49283695221,0.647238910198
4289,2021-07-29 16:53:54.282152192,1627577634282152176,0.0,-0.00872664619237,-0.00349065847695,0.0,0.0,0.0
4290,2021-07-29 16:53:54.287275776,1627577634287275791,-0.00174532923847,-0.00523598771542,0.0,0.0,0.0,0.0
4291,2021-07-29 16:53:54.292151808,1627577634292151928,-0.00523598771542,-0.00174532923847,-0.00872664619237,0.0,0.0,0.0
164,2021-07-29 16:53:54.296670976,1627577634296670914,0.0,0.0,0.0,0.225552946329,-9.53206348419,0.745305359364
4292,2021-07-29 16:53:54.297155072,1627577634297155142,-0.00349065847695,0.0,-0.0069813169539,0.0,0.0,0.0
4293,2021-07-29 16:53:54.302218752,1627577634302218676,0.00174532923847,-0.00523598771542,-0.0104719754308,0.0,0.0,0.0
4294,2021-07-29 16:53:54.307209216,1627577634307209253,0.00174532923847,-0.00523598771542,-0.00872664619237,0.0,0.0,0.0
4295,2021-07-29 16:53:54.312109312,1627577634312109232,0.00349065847695,-0.0069813169539,-0.0104719754308,0.0,0.0,0.0
165,2021-07-29 16:53:54.312479744,1627577634312479734,0.0,0.0,0.0,0.304006129503,-9.55167675018,0.725692093372
4296,2021-07-29 16:53:54.317170688,1627577634317170620,-0.00523598771542,-0.00523598771542,-0.0069813169539,0.0,0.0,0.0
4297,2021-07-29 16:53:54.322198272,1627577634322198391,-0.00174532923847,-0.00174532923847,-0.0104719754308,0.0,0.0,0.0
4298,2021-07-29 16:53:54.327184640,1627577634327184677,0.0,-0.00349065847695,-0.00872664619237,0.0,0.0,0.0
166,2021-07-29 16:53:54.328290560,1627577634328290462,0.0,0.0,0.0,0.304006129503,-9.61051654816,0.745305359364
4299,2021-07-29 16:53:54.332144640,1627577634332144737,0.0,-0.00174532923847,-0.0104719754308,0.0,0.0,0.0
4300,2021-07-29 16:53:54.337192192,1627577634337192297,0.0,-0.00349065847695,-0.00523598771542,0.0,0.0,0.0
4301,2021-07-29 16:53:54.342160896,1627577634342160940,0.0,-0.00174532923847,-0.00872664619237,0.0,0.0,0.0
167,2021-07-29 16:53:54.344099840,1627577634344099760,0.0,0.0,0.0,0.304006129503,-9.68896961212,0.784531950951
4302,2021-07-29 16:53:54.347112448,1627577634347112417,0.00174532923847,-0.00349065847695,-0.0122173046693,0.0,0.0,0.0
4303,2021-07-29 16:53:54.352243968,1627577634352243900,-0.00174532923847,0.0,-0.00872664619237,0.0,0.0,0.0
4304,2021-07-29 16:53:54.357190144,1627577634357190132,-0.0069813169539,-0.00523598771542,-0.0069813169539,0.0,0.0,0.0
168,2021-07-29 16:53:54.359907072,1627577634359907150,0.0,0.0,0.0,0.28439283371,-9.7281961441,0.764918684959
4305,2021-07-29 16:53:54.362142464,1627577634362142563,-0.00174532923847,-0.00174532923847,-0.00872664619237,0.0,0.0,0.0
4306,2021-07-29 16:53:54.367537408,1627577634367537498,0.00174532923847,0.00349065847695,-0.0139626339078,0.0,0.0,0.0
4307,2021-07-29 16:53:54.372470272,1627577634372470379,0.0,-0.00174532923847,-0.00523598771542,0.0,0.0,0.0
169,2021-07-29 16:53:54.375716352,1627577634375716448,0.0,0.0,0.0,0.264779537916,-9.80665016174,0.804145276546
4308,2021-07-29 16:53:54.377429504,1627577634377429485,-0.00349065847695,-0.00349065847695,-0.0069813169539,0.0,0.0,0.0
4309,2021-07-29 16:53:54.382400000,1627577634382400036,-0.00174532923847,-0.00523598771542,-0.0104719754308,0.0,0.0,0.0
4310,2021-07-29 16:53:54.387441920,1627577634387441874,-0.00174532923847,-0.00349065847695,-0.00523598771542,0.0,0.0,0.0
170,2021-07-29 16:53:54.391525632,1627577634391525745,0.0,0.0,0.0,0.264779537916,-9.81645679474,0.745305359364
4311,2021-07-29 16:53:54.392423168,1627577634392423153,-0.00349065847695,0.0,-0.00174532923847,0.0,0.0,0.0
4312,2021-07-29 16:53:54.397376000,1627577634397376060,-0.00174532923847,-0.00349065847695,-0.0104719754308,0.0,0.0,0.0
4313,2021-07-29 16:53:54.402507264,1627577634402507305,0.0,0.0,-0.0069813169539,0.0,0.0,0.0
171,2021-07-29 16:53:54.407334656,1627577634407334566,0.0,0.0,0.0,0.28439283371,-9.87529659271,0.745305359364
4314,2021-07-29 16:53:54.407434752,1627577634407434702,0.0,-0.00174532923847,-0.0069813169539,0.0,0.0,0.0
4315,2021-07-29 16:53:54.412375040,1627577634412374973,-0.00174532923847,0.00349065847695,-0.0104719754308,0.0,0.0,0.0
4316,2021-07-29 16:53:54.417430272,1627577634417430162,-0.00349065847695,-0.00523598771542,-0.00349065847695,0.0,0.0,0.0
4317,2021-07-29 16:53:54.422543872,1627577634422543764,-0.00349065847695,-0.00349065847695,-0.0069813169539,0.0,0.0,0.0
172,2021-07-29 16:53:54.423143424,1627577634423143387,0.0,0.0,0.0,0.304006129503,-9.78703689575,0.686465501785
4318,2021-07-29 16:53:54.427386624,1627577634427386522,0.0,-0.00523598771542,-0.00349065847695,0.0,0.0,0.0
4319,2021-07-29 16:53:54.432410112,1627577634432410002,0.00174532923847,-0.00349065847695,-0.00174532923847,0.0,0.0,0.0
4320,2021-07-29 16:53:54.437452288,1627577634437452316,0.0,-0.00523598771542,-0.00349065847695,0.0,0.0,0.0
173,2021-07-29 16:53:54.438950912,1627577634438951015,0.0,0.0,0.0,0.323619455099,-9.7478094101,0.686465501785
4321,2021-07-29 16:53:54.442376448,1627577634442376375,-0.00523598771542,-0.0069813169539,-0.00174532923847,0.0,0.0,0.0
4322,2021-07-29 16:53:54.447395328,1627577634447395325,-0.00174532923847,-0.00349065847695,-0.00523598771542,0.0,0.0,0.0
4323,2021-07-29 16:53:54.452518400,1627577634452518463,-0.00174532923847,0.0,-0.00523598771542,0.0,0.0,0.0
174,2021-07-29 16:53:54.454758400,1627577634454758406,0.0,0.0,0.0,0.343232750893,-9.66935634613,0.627625584602
4324,2021-07-29 16:53:54.457398528,1627577634457398415,0.0,0.0,-0.00523598771542,0.0,0.0,0.0
4325,2021-07-29 16:53:54.462391552,1627577634462391615,-0.00174532923847,-0.00349065847695,-0.0104719754308,0.0,0.0,0.0
4326,2021-07-29 16:53:54.467460352,1627577634467460394,-0.00349065847695,-0.00349065847695,-0.0069813169539,0.0,0.0,0.0
175,2021-07-29 16:53:54.470567680,1627577634470567703,0.0,0.0,0.0,0.343232750893,-9.61051654816,0.647238910198
4327,2021-07-29 16:53:54.472499968,1627577634472499847,-0.00349065847695,-0.0069813169539,-0.00523598771542,0.0,0.0,0.0
4328,2021-07-29 16:53:54.477406976,1627577634477406979,-0.00349065847695,-0.00174532923847,-0.0069813169539,0.0,0.0,0.0
4329,2021-07-29 16:53:54.482385664,1627577634482385635,-0.00174532923847,-0.00523598771542,-0.0122173046693,0.0,0.0,0.0
176,2021-07-29 16:53:54.486376704,1627577634486376762,0.0,0.0,0.0,0.362846046686,-9.59090328217,0.627625584602
4330,2021-07-29 16:53:54.487436544,1627577634487436533,-0.00174532923847,0.0,-0.00872664619237,0.0,0.0,0.0
4331,2021-07-29 16:53:54.492427776,1627577634492427826,-0.00174532923847,-0.00523598771542,-0.0122173046693,0.0,0.0,0.0
4332,2021-07-29 16:53:54.497396480,1627577634497396469,-0.00174532923847,0.0,-0.0104719754308,0.0,0.0,0.0
177,2021-07-29 16:53:54.502184960,1627577634502184868,0.0,0.0,0.0,0.362846046686,-9.61051654816,0.666852176189
4333,2021-07-29 16:53:54.502763520,1627577634502763510,-0.0069813169539,-0.00349065847695,-0.0157079622149,0.0,0.0,0.0
4334,2021-07-29 16:53:54.507673088,1627577634507673025,-0.00523598771542,-0.0069813169539,-0.00349065847695,0.0,0.0,0.0
4335,2021-07-29 16:53:54.512633856,1627577634512633801,-0.0069813169539,-0.0122173046693,-0.0104719754308,0.0,0.0,0.0
4336,2021-07-29 16:53:54.517729792,1627577634517729759,-0.00349065847695,-0.00523598771542,-0.0104719754308,0.0,0.0,0.0
178,2021-07-29 16:53:54.517992704,1627577634517992735,0.0,0.0,0.0,0.362846046686,-9.64974308014,0.666852176189
4337,2021-07-29 16:53:54.522694400,1627577634522694349,-0.00174532923847,-0.00523598771542,-0.00872664619237,0.0,0.0,0.0
4338,2021-07-29 16:53:54.527695616,1627577634527695656,-0.0069813169539,-0.0104719754308,-0.0069813169539,0.0,0.0,0.0
4339,2021-07-29 16:53:54.532666880,1627577634532666922,-0.00523598771542,-0.0104719754308,-0.0104719754308,0.0,0.0,0.0
179,2021-07-29 16:53:54.533798400,1627577634533798456,0.0,0.0,0.0,0.402072638273,-9.70858287811,0.686465501785
4340,2021-07-29 16:53:54.537694976,1627577634537694931,-0.00523598771542,-0.00349065847695,-0.0104719754308,0.0,0.0,0.0
4341,2021-07-29 16:53:54.542677760,1627577634542677879,-0.00523598771542,-0.00872664619237,-0.00872664619237,0.0,0.0,0.0
4342,2021-07-29 16:53:54.547633152,1627577634547633171,-0.00523598771542,-0.00872664619237,-0.0104719754308,0.0,0.0,0.0
180,2021-07-29 16:53:54.549605888,1627577634549605846,0.0,0.0,0.0,0.431492596865,-9.7281961441,0.666852176189
4343,2021-07-29 16:53:54.552692224,1627577634552692175,-0.00349065847695,-0.00349065847695,-0.0122173046693,0.0,0.0,0.0
4344,2021-07-29 16:53:54.557698304,1627577634557698250,-0.00174532923847,-0.00872664619237,-0.0104719754308,0.0,0.0,0.0
4345,2021-07-29 16:53:54.562665984,1627577634562665939,-0.00349065847695,-0.00349065847695,-0.00872664619237,0.0,0.0,0.0
181,2021-07-29 16:53:54.565412352,1627577634565412283,0.0,0.0,0.0,0.490332484245,-9.76742362976,0.706078767776
4346,2021-07-29 16:53:54.567701248,1627577634567701340,-0.0069813169539,-0.0069813169539,-0.0122173046693,0.0,0.0,0.0
4347,2021-07-29 16:53:54.572781312,1627577634572781324,-0.00349065847695,-0.0104719754308,-0.0122173046693,0.0,0.0,0.0
4348,2021-07-29 16:53:54.577703424,1627577634577703476,-0.00523598771542,-0.00872664619237,-0.0069813169539,0.0,0.0,0.0
182,2021-07-29 16:53:54.581219584,1627577634581219673,0.0,0.0,0.0,0.529559075832,-9.7478094101,0.686465501785
4349,2021-07-29 16:53:54.582635008,1627577634582634926,-0.00349065847695,-0.00523598771542,-0.0104719754308,0.0,0.0,0.0
4350,2021-07-29 16:53:54.587663360,1627577634587663412,-0.00349065847695,-0.0069813169539,-0.0069813169539,0.0,0.0,0.0
4351,2021-07-29 16:53:54.592697600,1627577634592697620,-0.0069813169539,-0.00872664619237,-0.0122173046693,0.0,0.0,0.0
183,2021-07-29 16:53:54.597027840,1627577634597027779,0.0,0.0,0.0,0.529559075832,-9.78703689575,0.706078767776
4352,2021-07-29 16:53:54.597664000,1627577634597663879,-0.00523598771542,-0.00523598771542,-0.0069813169539,0.0,0.0,0.0
4353,2021-07-29 16:53:54.602672384,1627577634602672338,-0.00349065847695,-0.0104719754308,-0.0104719754308,0.0,0.0,0.0
4354,2021-07-29 16:53:54.607764224,1627577634607764244,-0.00174532923847,-0.00872664619237,-0.00523598771542,0.0,0.0,0.0
4355,2021-07-29 16:53:54.612652800,1627577634612652779,-0.00523598771542,-0.00523598771542,-0.00872664619237,0.0,0.0,0.0
184,2021-07-29 16:53:54.612834816,1627577634612834692,0.0,0.0,0.0,0.549172401428,-9.78703689575,0.725692093372
4356,2021-07-29 16:53:54.617699328,1627577634617699385,0.0,-0.00523598771542,-0.0122173046693,0.0,0.0,0.0
4357,2021-07-29 16:53:54.622683904,1627577634622684002,-0.00174532923847,-0.00349065847695,-0.0069813169539,0.0,0.0,0.0
4358,2021-07-29 16:53:54.627676928,1627577634627676964,-0.00174532923847,-0.00349065847695,-0.0122173046693,0.0,0.0,0.0
185,2021-07-29 16:53:54.628640768,1627577634628640652,0.0,0.0,0.0,0.509945809841,-9.76742362976,0.745305359364
4359,2021-07-29 16:53:54.632651776,1627577634632651806,-0.00523598771542,-0.00872664619237,-0.0104719754308,0.0,0.0,0.0
4360,2021-07-29 16:53:54.637962496,1627577634637962580,-0.00174532923847,-0.00523598771542,-0.0069813169539,0.0,0.0,0.0
4361,2021-07-29 16:53:54.642944768,1627577634642944813,-0.00349065847695,-0.0139626339078,-0.00174532923847,0.0,0.0,0.0
186,2021-07-29 16:53:54.644446464,1627577634644446373,0.0,0.0,0.0,0.451105892658,-9.80665016174,0.725692093372
4362,2021-07-29 16:53:54.647887104,1627577634647886992,-0.00523598771542,-0.00523598771542,-0.00523598771542,0.0,0.0,0.0
4363,2021-07-29 16:53:54.652981248,1627577634652981281,-0.00523598771542,-0.00349065847695,-0.0069813169539,0.0,0.0,0.0
4364,2021-07-29 16:53:54.657985536,1627577634657985449,-0.00523598771542,-0.00523598771542,-0.00523598771542,0.0,0.0,0.0
187,2021-07-29 16:53:54.660253952,1627577634660254002,0.0,0.0,0.0,0.451105892658,-9.76742362976,0.686465501785
4365,2021-07-29 16:53:54.662910464,1627577634662910461,-0.00523598771542,-0.0069813169539,-0.00349065847695,0.0,0.0,0.0
4366,2021-07-29 16:53:54.668009472,1627577634668009520,0.0,-0.0104719754308,-0.00349065847695,0.0,0.0,0.0
4367,2021-07-29 16:53:54.672929536,1627577634672929525,-0.00523598771542,-0.0069813169539,-0.00523598771542,0.0,0.0,0.0
188,2021-07-29 16:53:54.676063232,1627577634676063299,0.0,0.0,0.0,0.451105892658,-9.78703689575,0.725692093372
4368,2021-07-29 16:53:54.677921024,1627577634677921057,-0.00523598771542,-0.0104719754308,-0.00349065847695,0.0,0.0,0.0
4369,2021-07-29 16:53:54.682884096,1627577634682883978,-0.00523598771542,-0.00872664619237,-0.00349065847695,0.0,0.0,0.0
4370,2021-07-29 16:53:54.687928064,1627577634687927961,-0.00523598771542,-0.00523598771542,-0.00872664619237,0.0,0.0,0.0
189,2021-07-29 16:53:54.691870720,1627577634691870689,0.0,0.0,0.0,0.451105892658,-9.66935634613,0.686465501785
4371,2021-07-29 16:53:54.692959744,1627577634692959785,-0.00523598771542,-0.0069813169539,-0.0069813169539,0.0,0.0,0.0
4372,2021-07-29 16:53:54.697891584,1627577634697891474,-0.00349065847695,-0.00523598771542,-0.0069813169539,0.0,0.0,0.0
4373,2021-07-29 16:53:54.702939648,1627577634702939749,-0.0104719754308,-0.0122173046693,-0.00872664619237,0.0,0.0,0.0
190,2021-07-29 16:53:54.707676416,1627577634707676411,0.0,0.0,0.0,0.509945809841,-9.63012981415,0.686465501785
4374,2021-07-29 16:53:54.707969024,1627577634707968950,-0.0069813169539,-0.00523598771542,0.0,0.0,0.0,0.0
4375,2021-07-29 16:53:54.712879872,1627577634712879896,-0.00872664619237,-0.00523598771542,-0.0069813169539,0.0,0.0,0.0
4376,2021-07-29 16:53:54.718309632,1627577634718309641,-0.00523598771542,-0.0122173046693,-0.0069813169539,0.0,0.0,0.0
4377,2021-07-29 16:53:54.722994432,1627577634722994328,-0.00349065847695,-0.0104719754308,-0.00349065847695,0.0,0.0,0.0
191,2021-07-29 16:53:54.723482624,1627577634723482609,0.0,0.0,0.0,0.509945809841,-9.78703689575,0.706078767776
4378,2021-07-29 16:53:54.727877632,1627577634727877617,-0.00523598771542,-0.0104719754308,-0.0069813169539,0.0,0.0,0.0
4379,2021-07-29 16:53:54.732887040,1627577634732887030,-0.00174532923847,-0.00872664619237,-0.0069813169539,0.0,0.0,0.0
4380,2021-07-29 16:53:54.737943552,1627577634737943649,-0.00523598771542,-0.0104719754308,-0.0069813169539,0.0,0.0,0.0
192,2021-07-29 16:53:54.739288320,1627577634739288330,0.0,0.0,0.0,0.509945809841,-9.7281961441,0.725692093372
4381,2021-07-29 16:53:54.742872064,1627577634742872000,-0.00523598771542,-0.0069813169539,-0.0069813169539,0.0,0.0,0.0
4382,2021-07-29 16:53:54.747899136,1627577634747899055,-0.00174532923847,-0.0122173046693,-0.00523598771542,0.0,0.0,0.0
4383,2021-07-29 16:53:54.752906496,1627577634752906561,-0.00174532923847,-0.0069813169539,-0.0104719754308,0.0,0.0,0.0
193,2021-07-29 16:53:54.755095040,1627577634755095005,0.0,0.0,0.0,0.490332484245,-9.7281961441,0.725692093372
4384,2021-07-29 16:53:54.757997568,1627577634757997513,-0.00872664619237,-0.00523598771542,-0.00523598771542,0.0,0.0,0.0
4385,2021-07-29 16:53:54.762915072,1627577634762915134,-0.0069813169539,-0.00872664619237,-0.00349065847695,0.0,0.0,0.0
4386,2021-07-29 16:53:54.768057856,1627577634768057823,-0.00349065847695,-0.0122173046693,-0.00174532923847,0.0,0.0,0.0
194,2021-07-29 16:53:54.770900736,1627577634770900726,0.0,0.0,0.0,0.490332484245,-9.78703689575,0.706078767776
4387,2021-07-29 16:53:54.773205760,1627577634773205757,-0.00349065847695,-0.0104719754308,-0.00523598771542,0.0,0.0,0.0
4388,2021-07-29 16:53:54.778160384,1627577634778160334,-0.00349065847695,-0.0122173046693,-0.00174532923847,0.0,0.0,0.0
4389,2021-07-29 16:53:54.783205632,1627577634783205748,-0.00349065847695,-0.00872664619237,-0.00174532923847,0.0,0.0,0.0
195,2021-07-29 16:53:54.786707968,1627577634786707878,0.0,0.0,0.0,0.431492596865,-9.81645679474,0.764918684959
4390,2021-07-29 16:53:54.788182784,1627577634788182735,-0.00523598771542,-0.0104719754308,-0.0104719754308,0.0,0.0,0.0
4391,2021-07-29 16:53:54.793205504,1627577634793205500,-0.0104719754308,-0.0139626339078,-0.00174532923847,0.0,0.0,0.0
4392,2021-07-29 16:53:54.798146816,1627577634798146725,-0.00872664619237,-0.00523598771542,-0.00174532923847,0.0,0.0,0.0
196,2021-07-29 16:53:54.802514176,1627577634802514076,0.0,0.0,0.0,0.451105892658,-9.68896961212,0.647238910198
4393,2021-07-29 16:53:54.803259392,1627577634803259373,-0.00349065847695,-0.0069813169539,-0.00174532923847,0.0,0.0,0.0
4394,2021-07-29 16:53:54.808257024,1627577634808257103,-0.00349065847695,-0.0104719754308,-0.00523598771542,0.0,0.0,0.0
4395,2021-07-29 16:53:54.813146624,1627577634813146591,-0.0069813169539,-0.0069813169539,-0.00523598771542,0.0,0.0,0.0
4396,2021-07-29 16:53:54.818212096,1627577634818212032,-0.0104719754308,-0.00872664619237,-0.00174532923847,0.0,0.0,0.0
197,2021-07-29 16:53:54.818320128,1627577634818320036,0.0,0.0,0.0,0.431492596865,-9.87529659271,0.745305359364
4397,2021-07-29 16:53:54.823199488,1627577634823199511,-0.00349065847695,-0.00523598771542,-0.00349065847695,0.0,0.0,0.0
4398,2021-07-29 16:53:54.828182784,1627577634828182697,-0.00174532923847,-0.0104719754308,-0.00523598771542,0.0,0.0,0.0
4399,2021-07-29 16:53:54.833238272,1627577634833238363,-0.00174532923847,-0.0139626339078,0.0,0.0,0.0,0.0
198,2021-07-29 16:53:54.834126848,1627577634834126949,0.0,0.0,0.0,0.451105892658,-9.81645679474,0.706078767776
4400,2021-07-29 16:53:54.838162432,1627577634838162422,-0.00174532923847,-0.0104719754308,-0.00349065847695,0.0,0.0,0.0
4401,2021-07-29 16:53:54.843187456,1627577634843187571,-0.00349065847695,-0.00872664619237,-0.00174532923847,0.0,0.0,0.0
4402,2021-07-29 16:53:54.848102656,1627577634848102570,-0.0069813169539,-0.0069813169539,0.0,0.0,0.0,0.0
199,2021-07-29 16:53:54.849934848,1627577634849934816,0.0,0.0,0.0,0.431492596865,-9.81645679474,0.725692093372
4403,2021-07-29 16:53:54.853200640,1627577634853200674,-0.00523598771542,-0.00872664619237,0.0,0.0,0.0,0.0
4404,2021-07-29 16:53:54.858233600,1627577634858233690,0.0,-0.0104719754308,0.0,0.0,0.0,0.0
4405,2021-07-29 16:53:54.863146240,1627577634863146305,0.00174532923847,-0.0104719754308,0.00174532923847,0.0,0.0,0.0
200,2021-07-29 16:53:54.865739520,1627577634865739584,0.0,0.0,0.0,0.411879301071,-9.8949098587,0.706078767776
4406,2021-07-29 16:53:54.868207104,1627577634868206978,0.00523598771542,-0.00872664619237,0.0,0.0,0.0,0.0
4407,2021-07-29 16:53:54.873176832,1627577634873176813,0.0,-0.00523598771542,0.0,0.0,0.0,0.0
4408,2021-07-29 16:53:54.878180608,1627577634878180504,0.0,-0.0069813169539,0.0,0.0,0.0,0.0
201,2021-07-29 16:53:54.881544704,1627577634881544828,0.0,0.0,0.0,0.343232750893,-9.87529659271,0.647238910198
4409,2021-07-29 16:53:54.883133952,1627577634883133888,0.0,-0.00523598771542,-0.00174532923847,0.0,0.0,0.0
4410,2021-07-29 16:53:54.888185088,1627577634888185024,0.00349065847695,-0.0104719754308,0.0,0.0,0.0,0.0
4411,2021-07-29 16:53:54.893345792,1627577634893345833,0.00349065847695,-0.00872664619237,0.0,0.0,0.0,0.0
202,2021-07-29 16:53:54.897351168,1627577634897351265,0.0,0.0,0.0,0.28439283371,-9.83607006073,0.666852176189
4412,2021-07-29 16:53:54.898110976,1627577634898110867,0.00174532923847,-0.0122173046693,0.0,0.0,0.0,0.0
4413,2021-07-29 16:53:54.903298304,1627577634903298378,0.0,-0.00523598771542,0.00174532923847,0.0,0.0,0.0
4414,2021-07-29 16:53:54.908546816,1627577634908546925,-0.00174532923847,-0.0139626339078,0.00523598771542,0.0,0.0,0.0
203,2021-07-29 16:53:54.913155328,1627577634913155317,0.0,0.0,0.0,0.245166242123,-9.80665016174,0.647238910198
4415,2021-07-29 16:53:54.913411072,1627577634913411140,0.00349065847695,-0.00523598771542,0.0,0.0,0.0,0.0
4416,2021-07-29 16:53:54.918486016,1627577634918486118,0.00523598771542,-0.0122173046693,0.00349065847695,0.0,0.0,0.0
4417,2021-07-29 16:53:54.923536128,1627577634923536062,0.00349065847695,-0.0139626339078,0.00349065847695,0.0,0.0,0.0
4418,2021-07-29 16:53:54.928433152,1627577634928433180,0.00872664619237,-0.00523598771542,0.0,0.0,0.0,0.0
204,2021-07-29 16:53:54.928959488,1627577634928959370,0.0,0.0,0.0,0.186326339841,-9.83607006073,0.686465501785
4419,2021-07-29 16:53:54.933440256,1627577634933440208,0.0,-0.00872664619237,0.00349065847695,0.0,0.0,0.0
4420,2021-07-29 16:53:54.938436864,1627577634938436747,-0.00174532923847,-0.0122173046693,0.0,0.0,0.0,0.0
4421,2021-07-29 16:53:54.943395840,1627577634943395853,0.0,-0.0104719754308,0.0,0.0,0.0,0.0
205,2021-07-29 16:53:54.944761344,1627577634944761276,0.0,0.0,0.0,0.166713044047,-9.59090328217,0.549172401428
4422,2021-07-29 16:53:54.948349952,1627577634948349953,0.00174532923847,-0.0122173046693,0.0,0.0,0.0,0.0
4423,2021-07-29 16:53:54.953428992,1627577634953428984,0.00349065847695,-0.0104719754308,0.0,0.0,0.0,0.0
4424,2021-07-29 16:53:54.958395904,1627577634958395958,0.00174532923847,-0.0122173046693,0.0,0.0,0.0,0.0
206,2021-07-29 16:53:54.960564736,1627577634960564852,0.0,0.0,0.0,0.186326339841,-9.55167675018,0.647238910198
4425,2021-07-29 16:53:54.963390976,1627577634963391066,0.00349065847695,-0.0104719754308,-0.00349065847695,0.0,0.0,0.0
4426,2021-07-29 16:53:54.968465920,1627577634968466043,-0.00174532923847,-0.00872664619237,0.0,0.0,0.0,0.0
4427,2021-07-29 16:53:54.973438208,1627577634973438263,0.00174532923847,-0.0122173046693,0.0,0.0,0.0,0.0
207,2021-07-29 16:53:54.976367616,1627577634976367712,0.0,0.0,0.0,0.205939650536,-9.55167675018,0.588398993015
4428,2021-07-29 16:53:54.978380032,1627577634978379965,0.00349065847695,-0.0122173046693,0.0,0.0,0.0,0.0
4429,2021-07-29 16:53:54.983410176,1627577634983410120,0.00174532923847,-0.0069813169539,-0.00523598771542,0.0,0.0,0.0
4430,2021-07-29 16:53:54.988419328,1627577634988419294,0.00523598771542,-0.0104719754308,0.0,0.0,0.0,0.0
208,2021-07-29 16:53:54.992167936,1627577634992167950,0.0,0.0,0.0,0.186326339841,-9.53206348419,0.588398993015
4431,2021-07-29 16:53:54.993536512,1627577634993536472,0.0,-0.0157079622149,-0.00349065847695,0.0,0.0,0.0
4432,2021-07-29 16:53:54.998393600,1627577634998393536,0.0,-0.0139626339078,-0.00349065847695,0.0,0.0,0.0
4433,2021-07-29 16:53:55.003547904,1627577635003547907,0.0,-0.0104719754308,-0.00523598771542,0.0,0.0,0.0
209,2021-07-29 16:53:55.007970560,1627577635007970572,0.0,0.0,0.0,0.186326339841,-9.55167675018,0.608012259007
4434,2021-07-29 16:53:55.008470784,1627577635008470774,0.00174532923847,-0.0157079622149,0.0,0.0,0.0,0.0
4435,2021-07-29 16:53:55.013383168,1627577635013383150,0.0,-0.0139626339078,-0.00174532923847,0.0,0.0,0.0
4436,2021-07-29 16:53:55.018494976,1627577635018495083,0.00349065847695,-0.00872664619237,0.0,0.0,0.0,0.0
4437,2021-07-29 16:53:55.023458304,1627577635023458242,0.00349065847695,-0.00872664619237,-0.00174532923847,0.0,0.0,0.0
210,2021-07-29 16:53:55.023771648,1627577635023771524,0.0,0.0,0.0,0.12748645246,-9.7281961441,0.686465501785
4438,2021-07-29 16:53:55.028342784,1627577635028342724,0.0,-0.0122173046693,-0.00523598771542,0.0,0.0,0.0
4439,2021-07-29 16:53:55.033408768,1627577635033408880,0.00349065847695,-0.0104719754308,-0.00174532923847,0.0,0.0,0.0
4440,2021-07-29 16:53:55.038443520,1627577635038443565,0.0,-0.00872664619237,-0.00523598771542,0.0,0.0,0.0
211,2021-07-29 16:53:55.039582720,1627577635039582729,0.0,0.0,0.0,0.0490332469344,-9.70858287811,0.627625584602
4441,2021-07-29 16:53:55.043598336,1627577635043598413,0.0,-0.0122173046693,-0.00349065847695,0.0,0.0,0.0
4442,2021-07-29 16:53:55.048615936,1627577635048615932,0.0,-0.00872664619237,-0.00174532923847,0.0,0.0,0.0
4443,2021-07-29 16:53:55.053657088,1627577635053657055,0.0,-0.0069813169539,0.0,0.0,0.0,0.0
212,2021-07-29 16:53:55.055392768,1627577635055392742,0.0,0.0,0.0,-0.0294199492782,-9.7478094101,0.627625584602
4444,2021-07-29 16:53:55.058651648,1627577635058651686,0.00349065847695,-0.00872664619237,-0.00174532923847,0.0,0.0,0.0
4445,2021-07-29 16:53:55.063667968,1627577635063668013,0.00174532923847,-0.00872664619237,-0.00174532923847,0.0,0.0,0.0
4446,2021-07-29 16:53:55.068755456,1627577635068755388,0.00174532923847,-0.00349065847695,-0.00349065847695,0.0,0.0,0.0
213,2021-07-29 16:53:55.071204608,1627577635071204662,0.0,0.0,0.0,-0.0882598459721,-9.78703689575,0.706078767776
4447,2021-07-29 16:53:55.073865216,1627577635073865175,0.0,-0.00872664619237,-0.00349065847695,0.0,0.0,0.0
4448,2021-07-29 16:53:55.078637312,1627577635078637362,0.0,-0.0174532923847,0.0,0.0,0.0,0.0
4449,2021-07-29 16:53:55.083687936,1627577635083688021,-0.00174532923847,-0.0069813169539,-0.00349065847695,0.0,0.0,0.0
214,2021-07-29 16:53:55.087017472,1627577635087017536,0.0,0.0,0.0,-0.0882598459721,-9.70858287811,0.608012259007
4450,2021-07-29 16:53:55.088696320,1627577635088696241,0.0,-0.0069813169539,0.00174532923847,0.0,0.0,0.0
4451,2021-07-29 16:53:55.093655552,1627577635093655586,-0.00174532923847,-0.0122173046693,-0.00174532923847,0.0,0.0,0.0
4452,2021-07-29 16:53:55.098628864,1627577635098628759,-0.00174532923847,-0.0174532923847,-0.00523598771542,0.0,0.0,0.0
215,2021-07-29 16:53:55.102829312,1627577635102829218,0.0,0.0,0.0,-0.0490332469344,-9.64974308014,0.725692093372
4453,2021-07-29 16:53:55.103683840,1627577635103683949,0.0,-0.0122173046693,-0.00174532923847,0.0,0.0,0.0
4454,2021-07-29 16:53:55.108686848,1627577635108686924,-0.00349065847695,-0.0139626339078,-0.00349065847695,0.0,0.0,0.0
4455,2021-07-29 16:53:55.113635840,1627577635113635778,-0.00174532923847,-0.0104719754308,0.0,0.0,0.0,0.0
216,2021-07-29 16:53:55.118640640,1627577635118640661,0.0,0.0,0.0,0.0294199492782,-9.61051654816,0.725692093372
4456,2021-07-29 16:53:55.118757120,1627577635118757010,0.0,-0.00872664619237,-0.00523598771542,0.0,0.0,0.0
4457,2021-07-29 16:53:55.123628544,1627577635123628616,0.00349065847695,-0.0104719754308,-0.00349065847695,0.0,0.0,0.0
4458,2021-07-29 16:53:55.128664576,1627577635128664494,0.0,-0.0069813169539,-0.0069813169539,0.0,0.0,0.0
4459,2021-07-29 16:53:55.133816576,1627577635133816481,0.0,-0.0069813169539,-0.00872664619237,0.0,0.0,0.0
217,2021-07-29 16:53:55.134451968,1627577635134451866,0.0,0.0,0.0,0.0490332469344,-9.57129001617,0.764918684959
4460,2021-07-29 16:53:55.138654208,1627577635138654232,-0.00174532923847,-0.00872664619237,-0.00523598771542,0.0,0.0,0.0
4461,2021-07-29 16:53:55.143675392,1627577635143675327,0.00349065847695,-0.00872664619237,-0.00872664619237,0.0,0.0,0.0
4462,2021-07-29 16:53:55.148636160,1627577635148636103,0.00523598771542,-0.00872664619237,-0.0069813169539,0.0,0.0,0.0
218,2021-07-29 16:53:55.150260992,1627577635150260925,0.0,0.0,0.0,0.0882598459721,-9.59090328217,0.725692093372
4463,2021-07-29 16:53:55.153645056,1627577635153645039,0.00349065847695,-0.0104719754308,-0.0104719754308,0.0,0.0,0.0
4464,2021-07-29 16:53:55.158670848,1627577635158670902,0.00174532923847,0.0,-0.0104719754308,0.0,0.0,0.0
4465,2021-07-29 16:53:55.163634432,1627577635163634539,0.0,-0.00349065847695,-0.0069813169539,0.0,0.0,0.0
219,2021-07-29 16:53:55.166071040,1627577635166070938,0.0,0.0,0.0,0.0882598459721,-9.63012981415,0.764918684959
4466,2021-07-29 16:53:55.168710912,1627577635168710947,0.00349065847695,-0.00174532923847,-0.00872664619237,0.0,0.0,0.0
4467,2021-07-29 16:53:55.173724416,1627577635173724413,0.00349065847695,-0.00872664619237,-0.00523598771542,0.0,0.0,0.0
4468,2021-07-29 16:53:55.178648064,1627577635178647995,0.00174532923847,-0.00523598771542,-0.0104719754308,0.0,0.0,0.0
220,2021-07-29 16:53:55.181880064,1627577635181879997,0.0,0.0,0.0,0.0294199492782,-9.70858287811,0.725692093372
4469,2021-07-29 16:53:55.183923712,1627577635183923721,0.00523598771542,-0.00523598771542,-0.0069813169539,0.0,0.0,0.0
4470,2021-07-29 16:53:55.188935936,1627577635188935995,0.00174532923847,-0.00872664619237,-0.0069813169539,0.0,0.0,0.0
4471,2021-07-29 16:53:55.193922304,1627577635193922281,0.0,-0.00872664619237,-0.00523598771542,0.0,0.0,0.0
221,2021-07-29 16:53:55.197691648,1627577635197691679,0.0,0.0,0.0,0.0,-9.7478094101,0.745305359364
4472,2021-07-29 16:53:55.198900480,1627577635198900461,-0.00174532923847,-0.0069813169539,-0.00523598771542,0.0,0.0,0.0
4473,2021-07-29 16:53:55.203925248,1627577635203925371,0.0,-0.0069813169539,-0.00872664619237,0.0,0.0,0.0
4474,2021-07-29 16:53:55.208946688,1627577635208946705,0.00174532923847,-0.00523598771542,-0.00523598771542,0.0,0.0,0.0
222,2021-07-29 16:53:55.213499392,1627577635213499308,0.0,0.0,0.0,-0.00980664975941,-9.78703689575,0.745305359364
4475,2021-07-29 16:53:55.213881856,1627577635213881731,0.00174532923847,-0.00523598771542,0.0,0.0,0.0,0.0
4476,2021-07-29 16:53:55.218968064,1627577635218968153,0.0,-0.0104719754308,-0.00523598771542,0.0,0.0,0.0
4477,2021-07-29 16:53:55.223969792,1627577635223969698,0.0,-0.00174532923847,-0.0069813169539,0.0,0.0,0.0
4478,2021-07-29 16:53:55.228891648,1627577635228891611,-0.00523598771542,-0.0104719754308,-0.00523598771542,0.0,0.0,0.0
223,2021-07-29 16:53:55.229308928,1627577635229308844,0.0,0.0,0.0,-0.0490332469344,-9.83607006073,0.725692093372
4479,2021-07-29 16:53:55.233921792,1627577635233921766,-0.00174532923847,-0.0069813169539,-0.00174532923847,0.0,0.0,0.0
4480,2021-07-29 16:53:55.238938368,1627577635238938332,-0.00174532923847,-0.0069813169539,-0.00349065847695,0.0,0.0,0.0
4481,2021-07-29 16:53:55.243937024,1627577635243937016,0.0,-0.0069813169539,-0.00523598771542,0.0,0.0,0.0
224,2021-07-29 16:53:55.245118976,1627577635245119095,0.0,0.0,0.0,0.00980664975941,-9.76742362976,0.666852176189
4482,2021-07-29 16:53:55.248882432,1627577635248882532,0.0,-0.0069813169539,0.0,0.0,0.0,0.0
4483,2021-07-29 16:53:55.253896448,1627577635253896475,-0.00523598771542,-0.00523598771542,-0.00349065847695,0.0,0.0,0.0
4484,2021-07-29 16:53:55.258923008,1627577635258923054,0.0,-0.00174532923847,-0.00174532923847,0.0,0.0,0.0
225,2021-07-29 16:53:55.260928256,1627577635260928154,0.0,0.0,0.0,0.0294199492782,-9.85568332672,0.764918684959
4485,2021-07-29 16:53:55.264015104,1627577635264015198,0.00174532923847,-0.00523598771542,-0.00523598771542,0.0,0.0,0.0
4486,2021-07-29 16:53:55.269008896,1627577635269008875,0.0,-0.00523598771542,0.0,0.0,0.0,0.0
4487,2021-07-29 16:53:55.274107904,1627577635274107933,0.0,0.0,-0.00349065847695,0.0,0.0,0.0
226,2021-07-29 16:53:55.276738048,1627577635276738167,0.0,0.0,0.0,0.0882598459721,-9.76742362976,0.686465501785
4488,2021-07-29 16:53:55.278914304,1627577635278914213,0.0,-0.00872664619237,-0.00349065847695,0.0,0.0,0.0
4489,2021-07-29 16:53:55.283969536,1627577635283969641,0.0,-0.0069813169539,0.0,0.0,0.0,0.0
4490,2021-07-29 16:53:55.288942592,1627577635288942575,0.00174532923847,0.0,-0.00349065847695,0.0,0.0,0.0
227,2021-07-29 16:53:55.292548096,1627577635292548180,0.0,0.0,0.0,0.107873149216,-9.80665016174,0.725692093372
4491,2021-07-29 16:53:55.293948928,1627577635293948889,-0.00174532923847,0.0,-0.00174532923847,0.0,0.0,0.0
4492,2021-07-29 16:53:55.298887936,1627577635298887968,0.0,-0.00349065847695,-0.00174532923847,0.0,0.0,0.0
4493,2021-07-29 16:53:55.303947520,1627577635303947449,-0.00523598771542,-0.00523598771542,0.0,0.0,0.0,0.0
228,2021-07-29 16:53:55.308357632,1627577635308357716,0.0,0.0,0.0,0.0882598459721,-9.83607006073,0.686465501785
4494,2021-07-29 16:53:55.308911616,1627577635308911562,0.00349065847695,-0.00523598771542,0.00174532923847,0.0,0.0,0.0
4495,2021-07-29 16:53:55.313896448,1627577635313896418,0.0,-0.00174532923847,0.0,0.0,0.0,0.0
4496,2021-07-29 16:53:55.319184896,1627577635319184780,0.00349065847695,-0.00523598771542,-0.00174532923847,0.0,0.0,0.0
229,2021-07-29 16:53:55.324167168,1627577635324167252,0.0,0.0,0.0,0.0686465501785,-9.87529659271,0.706078767776
4497,2021-07-29 16:53:55.324180480,1627577635324180365,0.0,-0.00174532923847,-0.00349065847695,0.0,0.0,0.0
4498,2021-07-29 16:53:55.329114880,1627577635329114914,0.00174532923847,-0.00349065847695,0.0,0.0,0.0,0.0
4499,2021-07-29 16:53:55.334266880,1627577635334266901,0.00174532923847,-0.00174532923847,0.00174532923847,0.0,0.0,0.0
4500,2021-07-29 16:53:55.339160064,1627577635339159966,0.0,-0.00523598771542,0.0,0.0,0.0,0.0
230,2021-07-29 16:53:55.339976448,1627577635339976549,0.0,0.0,0.0,0.0294199492782,-9.87529659271,0.627625584602
4501,2021-07-29 16:53:55.344170496,1627577635344170570,0.0069813169539,0.0,-0.00174532923847,0.0,0.0,0.0
4502,2021-07-29 16:53:55.349154048,1627577635349153996,0.00349065847695,0.0,0.0,0.0,0.0,0.0
4503,2021-07-29 16:53:55.354164480,1627577635354164600,-0.00174532923847,-0.00349065847695,0.0,0.0,0.0,0.0
231,2021-07-29 16:53:55.355788800,1627577635355788708,0.0,0.0,0.0,0.0294199492782,-9.85568332672,0.666852176189
4504,2021-07-29 16:53:55.359206144,1627577635359206200,0.0,-0.00349065847695,0.00174532923847,0.0,0.0,0.0
4505,2021-07-29 16:53:55.364164608,1627577635364164591,0.00349065847695,-0.00174532923847,0.00174532923847,0.0,0.0,0.0
4506,2021-07-29 16:53:55.369246720,1627577635369246721,0.00523598771542,-0.00523598771542,0.0,0.0,0.0,0.0
232,2021-07-29 16:53:55.371598080,1627577635371598005,0.0,0.0,0.0,0.00980664975941,-9.83607006073,0.647238910198
4507,2021-07-29 16:53:55.374265088,1627577635374265194,0.00872664619237,0.0,0.00174532923847,0.0,0.0,0.0
4508,2021-07-29 16:53:55.379147776,1627577635379147768,0.0,0.0,0.0,0.0,0.0,0.0
4509,2021-07-29 16:53:55.384336128,1627577635384336233,-0.00174532923847,-0.00174532923847,0.0,0.0,0.0,0.0
233,2021-07-29 16:53:55.387407104,1627577635387407064,0.0,0.0,0.0,0.00980664975941,-9.76742362976,0.588398993015
4510,2021-07-29 16:53:55.389183744,1627577635389183760,0.0,-0.00523598771542,0.0,0.0,0.0,0.0
4511,2021-07-29 16:53:55.394138368,1627577635394138336,-0.00174532923847,-0.00349065847695,0.0,0.0,0.0,0.0
4512,2021-07-29 16:53:55.399147264,1627577635399147272,0.0,-0.0069813169539,0.0,0.0,0.0,0.0
234,2021-07-29 16:53:55.403214080,1627577635403213978,0.0,0.0,0.0,-0.00980664975941,-9.68896961212,0.509945809841
4513,2021-07-29 16:53:55.404187392,1627577635404187441,0.00349065847695,-0.00523598771542,-0.00174532923847,0.0,0.0,0.0
4514,2021-07-29 16:53:55.409190912,1627577635409190893,0.0,-0.0104719754308,-0.00174532923847,0.0,0.0,0.0
4515,2021-07-29 16:53:55.414183680,1627577635414183617,-0.00174532923847,-0.00523598771542,0.0,0.0,0.0,0.0
235,2021-07-29 16:53:55.419021312,1627577635419021368,0.0,0.0,0.0,0.0294199492782,-9.66935634613,0.568785667419
4516,2021-07-29 16:53:55.419190016,1627577635419189930,-0.00523598771542,-0.0069813169539,-0.00349065847695,0.0,0.0,0.0
4517,2021-07-29 16:53:55.424165632,1627577635424165726,-0.00174532923847,-0.00872664619237,0.0,0.0,0.0,0.0
4518,2021-07-29 16:53:55.429157376,1627577635429157257,0.00349065847695,-0.00872664619237,-0.00174532923847,0.0,0.0,0.0
4519,2021-07-29 16:53:55.434258688,1627577635434258699,0.00174532923847,-0.0069813169539,0.00174532923847,0.0,0.0,0.0
236,2021-07-29 16:53:55.434829824,1627577635434829950,0.0,0.0,0.0,0.0490332469344,-9.66935634613,0.549172401428
4520,2021-07-29 16:53:55.439274752,1627577635439274788,0.00523598771542,-0.0069813169539,0.0,0.0,0.0,0.0
4521,2021-07-29 16:53:55.444135936,1627577635444135904,0.0,-0.00872664619237,0.0,0.0,0.0,0.0
4522,2021-07-29 16:53:55.449105664,1627577635449105740,-0.00174532923847,-0.0174532923847,-0.00174532923847,0.0,0.0,0.0
237,2021-07-29 16:53:55.450638592,1627577635450638533,0.0,0.0,0.0,0.0490332469344,-9.66935634613,0.588398993015
4523,2021-07-29 16:53:55.454461952,1627577635454462051,-0.00174532923847,-0.0069813169539,-0.00349065847695,0.0,0.0,0.0
4524,2021-07-29 16:53:55.459453952,1627577635459454060,0.0,-0.00872664619237,0.0,0.0,0.0,0.0
4525,2021-07-29 16:53:55.464352256,1627577635464352369,0.00349065847695,-0.0069813169539,-0.00349065847695,0.0,0.0,0.0
238,2021-07-29 16:53:55.466449408,1627577635466449499,0.0,0.0,0.0,0.0882598459721,-9.61051654816,0.608012259007
4526,2021-07-29 16:53:55.469599744,1627577635469599724,0.00349065847695,-0.0104719754308,0.0,0.0,0.0,0.0
4527,2021-07-29 16:53:55.474469632,1627577635474469662,0.00523598771542,-0.0104719754308,-0.00174532923847,0.0,0.0,0.0
4528,2021-07-29 16:53:55.479405312,1627577635479405403,0.0,-0.0069813169539,-0.00174532923847,0.0,0.0,0.0
239,2021-07-29 16:53:55.482259456,1627577635482259512,0.0,0.0,0.0,0.0294199492782,-9.68896961212,0.608012259007
4529,2021-07-29 16:53:55.484529920,1627577635484529972,0.00349065847695,-0.00349065847695,-0.00523598771542,0.0,0.0,0.0
4530,2021-07-29 16:53:55.489448448,1627577635489448547,0.0,-0.00523598771542,-0.00174532923847,0.0,0.0,0.0
4531,2021-07-29 16:53:55.494425344,1627577635494425297,0.0,-0.00872664619237,0.0,0.0,0.0,0.0
240,2021-07-29 16:53:55.498068480,1627577635498068571,0.0,0.0,0.0,0.0686465501785,-9.63012981415,0.627625584602
4532,2021-07-29 16:53:55.499376384,1627577635499376297,0.00174532923847,-0.0069813169539,-0.00523598771542,0.0,0.0,0.0
4533,2021-07-29 16:53:55.504456448,1627577635504456520,0.0069813169539,-0.0069813169539,0.0,0.0,0.0,0.0
4534,2021-07-29 16:53:55.509436416,1627577635509436369,0.00349065847695,-0.00872664619237,-0.00523598771542,0.0,0.0,0.0
241,2021-07-29 16:53:55.513876224,1627577635513876200,0.0,0.0,0.0,0.00980664975941,-9.70858287811,0.745305359364
4535,2021-07-29 16:53:55.514354688,1627577635514354706,-0.00174532923847,-0.00349065847695,0.0,0.0,0.0,0.0
4536,2021-07-29 16:53:55.519409920,1627577635519409895,0.0,-0.00872664619237,-0.00523598771542,0.0,0.0,0.0
4537,2021-07-29 16:53:55.524496128,1627577635524496078,-0.00349065847695,-0.0069813169539,-0.0069813169539,0.0,0.0,0.0
4538,2021-07-29 16:53:55.529376256,1627577635529376268,0.0,-0.0104719754308,0.0,0.0,0.0,0.0
242,2021-07-29 16:53:55.529686784,1627577635529686689,0.0,0.0,0.0,0.107873149216,-9.64974308014,0.529559075832
4539,2021-07-29 16:53:55.534526208,1627577635534526110,0.00349065847695,-0.0104719754308,-0.00349065847695,0.0,0.0,0.0
4540,2021-07-29 16:53:55.539431936,1627577635539432049,0.00523598771542,-0.00872664619237,-0.00349065847695,0.0,0.0,0.0
4541,2021-07-29 16:53:55.544422656,1627577635544422626,0.00174532923847,-0.00349065847695,0.0,0.0,0.0,0.0
243,2021-07-29 16:53:55.545494272,1627577635545494318,0.0,0.0,0.0,0.0294199492782,-9.87529659271,0.833565235138
4542,2021-07-29 16:53:55.549394688,1627577635549394608,-0.00174532923847,0.0,-0.00523598771542,0.0,0.0,0.0
4543,2021-07-29 16:53:55.554417408,1627577635554417372,0.0,-0.00523598771542,-0.00349065847695,0.0,0.0,0.0
4544,2021-07-29 16:53:55.559482880,1627577635559482813,0.0,-0.00523598771542,-0.00349065847695,0.0,0.0,0.0
244,2021-07-29 16:53:55.561302784,1627577635561302662,0.0,0.0,0.0,0.12748645246,-9.70858287811,0.568785667419
4545,2021-07-29 16:53:55.564381696,1627577635564381599,0.0069813169539,-0.0122173046693,0.0,0.0,0.0,0.0
4546,2021-07-29 16:53:55.569419520,1627577635569419622,0.0104719754308,-0.0104719754308,0.0,0.0,0.0,0.0
4547,2021-07-29 16:53:55.574465024,1627577635574465036,0.00523598771542,-0.00349065847695,-0.00523598771542,0.0,0.0,0.0
245,2021-07-29 16:53:55.577112576,1627577635577112675,0.0,0.0,0.0,0.0686465501785,-9.91452312469,0.833565235138
4548,2021-07-29 16:53:55.579362560,1627577635579362631,0.00349065847695,-0.0069813169539,0.0,0.0,0.0,0.0
4549,2021-07-29 16:53:55.584509696,1627577635584509611,0.00349065847695,-0.00349065847695,0.0,0.0,0.0,0.0
4550,2021-07-29 16:53:55.589668864,1627577635589668751,0.00349065847695,-0.00523598771542,-0.00349065847695,0.0,0.0,0.0
246,2021-07-29 16:53:55.592919808,1627577635592919827,0.0,0.0,0.0,0.12748645246,-9.76742362976,0.647238910198
4551,2021-07-29 16:53:55.594663680,1627577635594663620,0.00872664619237,-0.0104719754308,0.0,0.0,0.0,0.0
4552,2021-07-29 16:53:55.599668736,1627577635599668741,0.0122173046693,-0.00872664619237,0.00349065847695,0.0,0.0,0.0
4553,2021-07-29 16:53:55.604683776,1627577635604683876,0.0069813169539,-0.00523598771542,-0.00349065847695,0.0,0.0,0.0
247,2021-07-29 16:53:55.608726784,1627577635608726740,0.0,0.0,0.0,0.12748645246,-9.80665016174,0.813951909542
4554,2021-07-29 16:53:55.609648384,1627577635609648466,0.00174532923847,-0.00174532923847,-0.00174532923847,0.0,0.0,0.0
4555,2021-07-29 16:53:55.614629376,1627577635614629269,0.00523598771542,-0.0104719754308,0.00174532923847,0.0,0.0,0.0
4556,2021-07-29 16:53:55.619699200,1627577635619699240,0.00349065847695,-0.0069813169539,0.0,0.0,0.0,0.0
248,2021-07-29 16:53:55.624532480,1627577635624532461,0.0,0.0,0.0,0.0294199492782,-9.53206348419,0.627625584602
4557,2021-07-29 16:53:55.624712192,1627577635624712229,0.00872664619237,-0.00523598771542,-0.00523598771542,0.0,0.0,0.0
4558,2021-07-29 16:53:55.629671680,1627577635629671574,0.00523598771542,-0.0104719754308,-0.00174532923847,0.0,0.0,0.0
4559,2021-07-29 16:53:55.634692608,1627577635634692669,0.00349065847695,-0.0139626339078,0.0,0.0,0.0,0.0
4560,2021-07-29 16:53:55.639682304,1627577635639682293,0.00349065847695,-0.00523598771542,-0.00349065847695,0.0,0.0,0.0
249,2021-07-29 16:53:55.640338176,1627577635640338182,0.0,0.0,0.0,0.0882598459721,-9.7478094101,0.627625584602
4561,2021-07-29 16:53:55.644690944,1627577635644690990,0.00523598771542,0.0,-0.00872664619237,0.0,0.0,0.0
4562,2021-07-29 16:53:55.649641728,1627577635649641752,0.00349065847695,-0.0139626339078,0.0,0.0,0.0,0.0
4563,2021-07-29 16:53:55.654685952,1627577635654685974,0.00872664619237,-0.0069813169539,0.0,0.0,0.0,0.0
250,2021-07-29 16:53:55.656142592,1627577635656142473,0.0,0.0,0.0,0.12748645246,-9.7281961441,0.784531950951
4564,2021-07-29 16:53:55.659658240,1627577635659658194,0.00872664619237,-0.00349065847695,-0.00523598771542,0.0,0.0,0.0
4565,2021-07-29 16:53:55.664654592,1627577635664654493,0.00349065847695,-0.00523598771542,-0.0069813169539,0.0,0.0,0.0
4566,2021-07-29 16:53:55.669723136,1627577635669723034,0.00174532923847,-0.00349065847695,0.0,0.0,0.0,0.0
251,2021-07-29 16:53:55.671949568,1627577635671949625,0.0,0.0,0.0,0.166713044047,-9.55167675018,0.784531950951
4567,2021-07-29 16:53:55.674749696,1627577635674749613,0.0,-0.00872664619237,-0.00349065847695,0.0,0.0,0.0
4568,2021-07-29 16:53:55.679641600,1627577635679641485,0.0069813169539,-0.00349065847695,-0.00523598771542,0.0,0.0,0.0
4569,2021-07-29 16:53:55.684777984,1627577635684777975,0.00872664619237,-0.00349065847695,-0.0069813169539,0.0,0.0,0.0
252,2021-07-29 16:53:55.687755776,1627577635687755823,0.0,0.0,0.0,0.205939650536,-9.76742362976,0.833565235138
4570,2021-07-29 16:53:55.689758720,1627577635689758778,0.00523598771542,-0.0104719754308,0.0,0.0,0.0,0.0
4571,2021-07-29 16:53:55.694650880,1627577635694650888,0.0,0.0,-0.0069813169539,0.0,0.0,0.0
4572,2021-07-29 16:53:55.699640576,1627577635699640512,0.00174532923847,-0.00349065847695,-0.00872664619237,0.0,0.0,0.0
253,2021-07-29 16:53:55.703561984,1627577635703562021,0.0,0.0,0.0,0.147099748254,-9.68896961212,0.745305359364
4573,2021-07-29 16:53:55.704667136,1627577635704667091,0.00523598771542,-0.00523598771542,-0.00523598771542,0.0,0.0,0.0
4574,2021-07-29 16:53:55.709639424,1627577635709639549,0.00523598771542,-0.00523598771542,-0.00349065847695,0.0,0.0,0.0
4575,2021-07-29 16:53:55.714658560,1627577635714658499,0.00523598771542,-0.00174532923847,-0.0104719754308,0.0,0.0,0.0
254,2021-07-29 16:53:55.719366912,1627577635719366789,0.0,0.0,0.0,0.166713044047,-9.64974308014,0.784531950951
4576,2021-07-29 16:53:55.719689728,1627577635719689608,0.00523598771542,0.0,-0.00872664619237,0.0,0.0,0.0
4577,2021-07-29 16:53:55.725024256,1627577635725024223,0.00174532923847,0.0,-0.00349065847695,0.0,0.0,0.0
4578,2021-07-29 16:53:55.729900544,1627577635729900599,0.0,-0.00523598771542,-0.00349065847695,0.0,0.0,0.0
4579,2021-07-29 16:53:55.734987776,1627577635734987736,0.00349065847695,-0.00174532923847,-0.00872664619237,0.0,0.0,0.0
255,2021-07-29 16:53:55.735171328,1627577635735171318,0.0,0.0,0.0,0.166713044047,-9.70858287811,0.647238910198
4580,2021-07-29 16:53:55.739982336,1627577635739982367,0.00349065847695,0.0,-0.00523598771542,0.0,0.0,0.0
4581,2021-07-29 16:53:55.744916480,1627577635744916439,0.00872664619237,-0.00174532923847,-0.00523598771542,0.0,0.0,0.0
4582,2021-07-29 16:53:55.749913088,1627577635749913216,0.00349065847695,-0.00349065847695,-0.00174532923847,0.0,0.0,0.0
256,2021-07-29 16:53:55.750976000,1627577635750976086,0.0,0.0,0.0,0.264779537916,-9.78703689575,0.931631743908
