%time,field.header.seq,field.header.stamp,field.header.frame_id,field.orientation.x,field.orientation.y,field.orientation.z,field.orientation.w,field.orientation_covariance0,field.orientation_covariance1,field.orientation_covariance2,field.orientation_covariance3,field.orientation_covariance4,field.orientation_covariance5,field.orientation_covariance6,field.orientation_covariance7,field.orientation_covariance8,field.angular_velocity.x,field.angular_velocity.y,field.angular_velocity.z,field.angular_velocity_covariance0,field.angular_velocity_covariance1,field.angular_velocity_covariance2,field.angular_velocity_covariance3,field.angular_velocity_covariance4,field.angular_velocity_covariance5,field.angular_velocity_covariance6,field.angular_velocity_covariance7,field.angular_velocity_covariance8,field.linear_acceleration.x,field.linear_acceleration.y,field.linear_acceleration.z,field.linear_acceleration_covariance0,field.linear_acceleration_covariance1,field.linear_acceleration_covariance2,field.linear_acceleration_covariance3,field.linear_acceleration_covariance4,field.linear_acceleration_covariance5,field.linear_acceleration_covariance6,field.linear_acceleration_covariance7,field.linear_acceleration_covariance8
1817200,468349,1644543956644919872,1,0.0,0.0,0.0,0.0,0.0,0.0,0.0,0.0,0.0,0.0,0.0,0.0,0.0,0.0,0.0,0.0,0.0,0.0,0.0,0.0,0.0,0.0,0.0,0.0,0.0,9.56148338318,0.0,-0.137293100357,0.0,0.0,0.0,0.0,0.0,0.0,0.0,0.0,0.0
3645200,468350,1644543956646933794,1,0.0,0.0,0.0,0.0,0.0,0.0,0.0,0.0,0.0,0.0,0.0,0.0,0.0,0.0,0.0,0.0,0.0,0.0,0.0,0.0,0.0,0.0,0.0,0.0,0.0,9.53206348419,-0.0294199492782,-0.0980664938688,0.0,0.0,0.0,0.0,0.0,0.0,0.0,0.0,0.0
5453000,468351,1644543956648947954,1,0.0,0.0,0.0,0.0,0.0,0.0,0.0,0.0,0.0,0.0,0.0,0.0,0.0,0.0,0.0,0.0,0.0,0.0,0.0,0.0,0.0,0.0,0.0,0.0,0.0,9.53206348419,-0.0784531980753,-0.166713044047,0.0,0.0,0.0,0.0,0.0,0.0,0.0,0.0,0.0
7858500,468352,1644543956650959969,1,0.0,0.0,0.0,0.0,0.0,0.0,0.0,0.0,0.0,0.0,0.0,0.0,0.0,0.0,0.0,0.0,0.0,0.0,0.0,0.0,0.0,0.0,0.0,0.0,0.0,9.53206348419,-0.0294199492782,-0.12748645246,0.0,0.0,0.0,0.0,0.0,0.0,0.0,0.0,0.0
9404100,468353,1644543956652973890,1,0.0,0.0,0.0,0.0,0.0,0.0,0.0,0.0,0.0,0.0,0.0,0.0,0.0,0.0,0.0,0.0,0.0,0.0,0.0,0.0,0.0,0.0,0.0,0.0,0.0,9.57129001617,-0.0294199492782,-0.166713044047,0.0,0.0,0.0,0.0,0.0,0.0,0.0,0.0,0.0
11422100,468354,1644543956654988050,1,0.0,0.0,0.0,0.0,0.0,0.0,0.0,0.0,0.0,0.0,0.0,0.0,0.0,0.0,0.0,0.0,0.0,0.0,0.0,0.0,0.0,0.0,0.0,0.0,0.0,9.53206348419,-0.0392265990376,-0.166713044047,0.0,0.0,0.0,0.0,0.0,0.0,0.0,0.0,0.0
13614700,468355,1644543956657002211,1,0.0,0.0,0.0,0.0,0.0,0.0,0.0,0.0,0.0,0.0,0.0,0.0,0.0,0.0,0.0,0.0,0.0,0.0,0.0,0.0,0.0,0.0,0.0,0.0,0.0,9.57129001617,-0.0392265990376,-0.166713044047,0.0,0.0,0.0,0.0,0.0,0.0,0.0,0.0,0.0
15376700,468356,1644543956659016132,1,0.0,0.0,0.0,0.0,0.0,0.0,0.0,0.0,0.0,0.0,0.0,0.0,0.0,0.0,0.0,0.0,0.0,0.0,0.0,0.0,0.0,0.0,0.0,0.0,0.0,9.56148338318,-0.0392265990376,-0.196132987738,0.0,0.0,0.0,0.0,0.0,0.0,0.0,0.0,0.0
17647500,468357,1644543956661030293,1,0.0,0.0,0.0,0.0,0.0,0.0,0.0,0.0,0.0,0.0,0.0,0.0,0.0,0.0,0.0,0.0,0.0,0.0,0.0,0.0,0.0,0.0,0.0,0.0,0.0,9.53206348419,-0.0784531980753,-0.225552946329,0.0,0.0,0.0,0.0,0.0,0.0,0.0,0.0,0.0
19579200,468358,1644543956663044214,1,0.0,0.0,0.0,0.0,0.0,0.0,0.0,0.0,0.0,0.0,0.0,0.0,0.0,0.0,0.0,0.0,0.0,0.0,0.0,0.0,0.0,0.0,0.0,0.0,0.0,9.5222568512,-0.0686465501785,-0.166713044047,0.0,0.0,0.0,0.0,0.0,0.0,0.0,0.0,0.0
21568600,468359,1644543956665056229,1,0.0,0.0,0.0,0.0,0.0,0.0,0.0,0.0,0.0,0.0,0.0,0.0,0.0,0.0,0.0,0.0,0.0,0.0,0.0,0.0,0.0,0.0,0.0,0.0,0.0,9.56148338318,-0.137293100357,-0.264779537916,0.0,0.0,0.0,0.0,0.0,0.0,0.0,0.0,0.0
23638500,468360,1644543956667070389,1,0.0,0.0,0.0,0.0,0.0,0.0,0.0,0.0,0.0,0.0,0.0,0.0,0.0,0.0,0.0,0.0,0.0,0.0,0.0,0.0,0.0,0.0,0.0,0.0,0.0,9.61051654816,-0.0980664938688,-0.196132987738,0.0,0.0,0.0,0.0,0.0,0.0,0.0,0.0,0.0
25639000,468361,1644543956669084549,1,0.0,0.0,0.0,0.0,0.0,0.0,0.0,0.0,0.0,0.0,0.0,0.0,0.0,0.0,0.0,0.0,0.0,0.0,0.0,0.0,0.0,0.0,0.0,0.0,0.0,9.56148338318,-0.0784531980753,-0.176519691944,0.0,0.0,0.0,0.0,0.0,0.0,0.0,0.0,0.0
27627100,468362,1644543956671098471,1,0.0,0.0,0.0,0.0,0.0,0.0,0.0,0.0,0.0,0.0,0.0,0.0,0.0,0.0,0.0,0.0,0.0,0.0,0.0,0.0,0.0,0.0,0.0,0.0,0.0,9.58109664917,-0.12748645246,-0.176519691944,0.0,0.0,0.0,0.0,0.0,0.0,0.0,0.0,0.0
29755500,468363,1644543956673110247,1,0.0,0.0,0.0,0.0,0.0,0.0,0.0,0.0,0.0,0.0,0.0,0.0,0.0,0.0,0.0,0.0,0.0,0.0,0.0,0.0,0.0,0.0,0.0,0.0,0.0,9.57129001617,-0.0686465501785,-0.166713044047,0.0,0.0,0.0,0.0,0.0,0.0,0.0,0.0,0.0
31731600,468364,1644543956675124407,1,0.0,0.0,0.0,0.0,0.0,0.0,0.0,0.0,0.0,0.0,0.0,0.0,0.0,0.0,0.0,0.0,0.0,0.0,0.0,0.0,0.0,0.0,0.0,0.0,0.0,9.45361042023,-0.12748645246,-0.166713044047,0.0,0.0,0.0,0.0,0.0,0.0,0.0,0.0,0.0
762443200,468727,1644543957406009674,1,0.0,0.0,0.0,0.0,0.0,0.0,0.0,0.0,0.0,0.0,0.0,0.0,0.0,0.0,0.0,0.0,0.0,0.0,0.0,0.0,0.0,0.0,0.0,0.0,0.0,9.53206348419,-0.0980664938688,-0.0784531980753,0.0,0.0,0.0,0.0,0.0,0.0,0.0,0.0,0.0
764439300,468728,1644543957408023596,1,0.0,0.0,0.0,0.0,0.0,0.0,0.0,0.0,0.0,0.0,0.0,0.0,0.0,0.0,0.0,0.0,0.0,0.0,0.0,0.0,0.0,0.0,0.0,0.0,0.0,9.48303031921,-0.0980664938688,-0.166713044047,0.0,0.0,0.0,0.0,0.0,0.0,0.0,0.0,0.0
766459200,468729,1644543957410037756,1,0.0,0.0,0.0,0.0,0.0,0.0,0.0,0.0,0.0,0.0,0.0,0.0,0.0,0.0,0.0,0.0,0.0,0.0,0.0,0.0,0.0,0.0,0.0,0.0,0.0,9.5222568512,-0.0686465501785,-0.176519691944,0.0,0.0,0.0,0.0,0.0,0.0,0.0,0.0,0.0
768696300,468730,1644543957412049770,1,0.0,0.0,0.0,0.0,0.0,0.0,0.0,0.0,0.0,0.0,0.0,0.0,0.0,0.0,0.0,0.0,0.0,0.0,0.0,0.0,0.0,0.0,0.0,0.0,0.0,9.5222568512,-0.0392265990376,-0.196132987738,0.0,0.0,0.0,0.0,0.0,0.0,0.0,0.0,0.0
770445900,468731,1644543957414063692,1,0.0,0.0,0.0,0.0,0.0,0.0,0.0,0.0,0.0,0.0,0.0,0.0,0.0,0.0,0.0,0.0,0.0,0.0,0.0,0.0,0.0,0.0,0.0,0.0,0.0,9.53206348419,-0.0686465501785,-0.264779537916,0.0,0.0,0.0,0.0,0.0,0.0,0.0,0.0,0.0
772384800,468732,1644543957416077614,1,0.0,0.0,0.0,0.0,0.0,0.0,0.0,0.0,0.0,0.0,0.0,0.0,0.0,0.0,0.0,0.0,0.0,0.0,0.0,0.0,0.0,0.0,0.0,0.0,0.0,9.56148338318,-0.0980664938688,-0.274586200714,0.0,0.0,0.0,0.0,0.0,0.0,0.0,0.0,0.0
774489000,468733,1644543957418091774,1,0.0,0.0,0.0,0.0,0.0,0.0,0.0,0.0,0.0,0.0,0.0,0.0,0.0,0.0,0.0,0.0,0.0,0.0,0.0,0.0,0.0,0.0,0.0,0.0,0.0,9.5222568512,-0.0784531980753,-0.274586200714,0.0,0.0,0.0,0.0,0.0,0.0,0.0,0.0,0.0
776562700,468734,1644543957420103788,1,0.0,0.0,0.0,0.0,0.0,0.0,0.0,0.0,0.0,0.0,0.0,0.0,0.0,0.0,0.0,0.0,0.0,0.0,0.0,0.0,0.0,0.0,0.0,0.0,0.0,9.56148338318,-0.0980664938688,-0.245166242123,0.0,0.0,0.0,0.0,0.0,0.0,0.0,0.0,0.0
778365600,468735,1644543957422117710,1,0.0,0.0,0.0,0.0,0.0,0.0,0.0,0.0,0.0,0.0,0.0,0.0,0.0,0.0,0.0,0.0,0.0,0.0,0.0,0.0,0.0,0.0,0.0,0.0,0.0,9.53206348419,-0.0784531980753,-0.225552946329,0.0,0.0,0.0,0.0,0.0,0.0,0.0,0.0,0.0
780384600,468736,1644543957424131632,1,0.0,0.0,0.0,0.0,0.0,0.0,0.0,0.0,0.0,0.0,0.0,0.0,0.0,0.0,0.0,0.0,0.0,0.0,0.0,0.0,0.0,0.0,0.0,0.0,0.0,9.5222568512,-0.0784531980753,-0.166713044047,0.0,0.0,0.0,0.0,0.0,0.0,0.0,0.0,0.0
782605800,468737,1644543957426145792,1,0.0,0.0,0.0,0.0,0.0,0.0,0.0,0.0,0.0,0.0,0.0,0.0,0.0,0.0,0.0,0.0,0.0,0.0,0.0,0.0,0.0,0.0,0.0,0.0,0.0,9.53206348419,-0.0784531980753,-0.137293100357,0.0,0.0,0.0,0.0,0.0,0.0,0.0,0.0,0.0
784642200,468738,1644543957428157806,1,0.0,0.0,0.0,0.0,0.0,0.0,0.0,0.0,0.0,0.0,0.0,0.0,0.0,0.0,0.0,0.0,0.0,0.0,0.0,0.0,0.0,0.0,0.0,0.0,0.0,9.53206348419,-0.0686465501785,-0.137293100357,0.0,0.0,0.0,0.0,0.0,0.0,0.0,0.0,0.0
786652700,468739,1644543957430171728,1,0.0,0.0,0.0,0.0,0.0,0.0,0.0,0.0,0.0,0.0,0.0,0.0,0.0,0.0,0.0,0.0,0.0,0.0,0.0,0.0,0.0,0.0,0.0,0.0,0.0,9.53206348419,-0.0784531980753,-0.137293100357,0.0,0.0,0.0,0.0,0.0,0.0,0.0,0.0,0.0
788856200,468740,1644543957432185650,1,0.0,0.0,0.0,0.0,0.0,0.0,0.0,0.0,0.0,0.0,0.0,0.0,0.0,0.0,0.0,0.0,0.0,0.0,0.0,0.0,0.0,0.0,0.0,0.0,0.0,9.5222568512,-0.0980664938688,-0.176519691944,0.0,0.0,0.0,0.0,0.0,0.0,0.0,0.0,0.0
790864600,468741,1644543957434197664,1,0.0,0.0,0.0,0.0,0.0,0.0,0.0,0.0,0.0,0.0,0.0,0.0,0.0,0.0,0.0,0.0,0.0,0.0,0.0,0.0,0.0,0.0,0.0,0.0,0.0,9.5222568512,-0.0980664938688,-0.137293100357,0.0,0.0,0.0,0.0,0.0,0.0,0.0,0.0,0.0
792893600,468742,1644543957436211586,1,0.0,0.0,0.0,0.0,0.0,0.0,0.0,0.0,0.0,0.0,0.0,0.0,0.0,0.0,0.0,0.0,0.0,0.0,0.0,0.0,0.0,0.0,0.0,0.0,0.0,9.56148338318,-0.0392265990376,-0.12748645246,0.0,0.0,0.0,0.0,0.0,0.0,0.0,0.0,0.0
794901000,468743,1644543957438225508,1,0.0,0.0,0.0,0.0,0.0,0.0,0.0,0.0,0.0,0.0,0.0,0.0,0.0,0.0,0.0,0.0,0.0,0.0,0.0,0.0,0.0,0.0,0.0,0.0,0.0,9.45361042023,-0.0392265990376,-0.176519691944,0.0,0.0,0.0,0.0,0.0,0.0,0.0,0.0,0.0
796562400,468744,1644543957440239429,1,0.0,0.0,0.0,0.0,0.0,0.0,0.0,0.0,0.0,0.0,0.0,0.0,0.0,0.0,0.0,0.0,0.0,0.0,0.0,0.0,0.0,0.0,0.0,0.0,0.0,9.5222568512,-0.12748645246,-0.137293100357,0.0,0.0,0.0,0.0,0.0,0.0,0.0,0.0,0.0
798832900,468745,1644543957442253590,1,0.0,0.0,0.0,0.0,0.0,0.0,0.0,0.0,0.0,0.0,0.0,0.0,0.0,0.0,0.0,0.0,0.0,0.0,0.0,0.0,0.0,0.0,0.0,0.0,0.0,9.56148338318,-0.12748645246,-0.196132987738,0.0,0.0,0.0,0.0,0.0,0.0,0.0,0.0,0.0
800988200,468746,1644543957444265604,1,0.0,0.0,0.0,0.0,0.0,0.0,0.0,0.0,0.0,0.0,0.0,0.0,0.0,0.0,0.0,0.0,0.0,0.0,0.0,0.0,0.0,0.0,0.0,0.0,0.0,9.53206348419,-0.0392265990376,-0.196132987738,0.0,0.0,0.0,0.0,0.0,0.0,0.0,0.0,0.0
802913700,468747,1644543957446279526,1,0.0,0.0,0.0,0.0,0.0,0.0,0.0,0.0,0.0,0.0,0.0,0.0,0.0,0.0,0.0,0.0,0.0,0.0,0.0,0.0,0.0,0.0,0.0,0.0,0.0,9.57129001617,-0.0686465501785,-0.196132987738,0.0,0.0,0.0,0.0,0.0,0.0,0.0,0.0,0.0
804919100,468748,1644543957448293447,1,0.0,0.0,0.0,0.0,0.0,0.0,0.0,0.0,0.0,0.0,0.0,0.0,0.0,0.0,0.0,0.0,0.0,0.0,0.0,0.0,0.0,0.0,0.0,0.0,0.0,9.53206348419,-0.0686465501785,-0.245166242123,0.0,0.0,0.0,0.0,0.0,0.0,0.0,0.0,0.0
806861400,468749,1644543957450305700,1,0.0,0.0,0.0,0.0,0.0,0.0,0.0,0.0,0.0,0.0,0.0,0.0,0.0,0.0,0.0,0.0,0.0,0.0,0.0,0.0,0.0,0.0,0.0,0.0,0.0,9.53206348419,-0.0980664938688,-0.196132987738,0.0,0.0,0.0,0.0,0.0,0.0,0.0,0.0,0.0
809401500,468750,1644543957452319622,1,0.0,0.0,0.0,0.0,0.0,0.0,0.0,0.0,0.0,0.0,0.0,0.0,0.0,0.0,0.0,0.0,0.0,0.0,0.0,0.0,0.0,0.0,0.0,0.0,0.0,9.57129001617,-0.0784531980753,-0.225552946329,0.0,0.0,0.0,0.0,0.0,0.0,0.0,0.0,0.0
810863100,468751,1644543957454333544,1,0.0,0.0,0.0,0.0,0.0,0.0,0.0,0.0,0.0,0.0,0.0,0.0,0.0,0.0,0.0,0.0,0.0,0.0,0.0,0.0,0.0,0.0,0.0,0.0,0.0,9.56148338318,-0.0980664938688,-0.196132987738,0.0,0.0,0.0,0.0,0.0,0.0,0.0,0.0,0.0
812851800,468752,1644543957456345558,1,0.0,0.0,0.0,0.0,0.0,0.0,0.0,0.0,0.0,0.0,0.0,0.0,0.0,0.0,0.0,0.0,0.0,0.0,0.0,0.0,0.0,0.0,0.0,0.0,0.0,9.56148338318,-0.0784531980753,-0.166713044047,0.0,0.0,0.0,0.0,0.0,0.0,0.0,0.0,0.0
814855900,468753,1644543957458359718,1,0.0,0.0,0.0,0.0,0.0,0.0,0.0,0.0,0.0,0.0,0.0,0.0,0.0,0.0,0.0,0.0,0.0,0.0,0.0,0.0,0.0,0.0,0.0,0.0,0.0,9.53206348419,-0.0686465501785,-0.176519691944,0.0,0.0,0.0,0.0,0.0,0.0,0.0,0.0,0.0
816960400,468754,1644543957460371494,1,0.0,0.0,0.0,0.0,0.0,0.0,0.0,0.0,0.0,0.0,0.0,0.0,0.0,0.0,0.0,0.0,0.0,0.0,0.0,0.0,0.0,0.0,0.0,0.0,0.0,9.56148338318,-0.0784531980753,-0.176519691944,0.0,0.0,0.0,0.0,0.0,0.0,0.0,0.0,0.0
818854300,468755,1644543957462385416,1,0.0,0.0,0.0,0.0,0.0,0.0,0.0,0.0,0.0,0.0,0.0,0.0,0.0,0.0,0.0,0.0,0.0,0.0,0.0,0.0,0.0,0.0,0.0,0.0,0.0,9.5222568512,-0.0784531980753,-0.176519691944,0.0,0.0,0.0,0.0,0.0,0.0,0.0,0.0,0.0
820837200,468756,1644543957464399338,1,0.0,0.0,0.0,0.0,0.0,0.0,0.0,0.0,0.0,0.0,0.0,0.0,0.0,0.0,0.0,0.0,0.0,0.0,0.0,0.0,0.0,0.0,0.0,0.0,0.0,9.53206348419,-0.0784531980753,-0.166713044047,0.0,0.0,0.0,0.0,0.0,0.0,0.0,0.0,0.0
822849900,468757,1644543957466413498,1,0.0,0.0,0.0,0.0,0.0,0.0,0.0,0.0,0.0,0.0,0.0,0.0,0.0,0.0,0.0,0.0,0.0,0.0,0.0,0.0,0.0,0.0,0.0,0.0,0.0,9.5222568512,-0.0980664938688,-0.176519691944,0.0,0.0,0.0,0.0,0.0,0.0,0.0,0.0,0.0
825058100,468758,1644543957468425512,1,0.0,0.0,0.0,0.0,0.0,0.0,0.0,0.0,0.0,0.0,0.0,0.0,0.0,0.0,0.0,0.0,0.0,0.0,0.0,0.0,0.0,0.0,0.0,0.0,0.0,9.5222568512,-0.0686465501785,-0.176519691944,0.0,0.0,0.0,0.0,0.0,0.0,0.0,0.0,0.0
826906900,468759,1644543957470439434,1,0.0,0.0,0.0,0.0,0.0,0.0,0.0,0.0,0.0,0.0,0.0,0.0,0.0,0.0,0.0,0.0,0.0,0.0,0.0,0.0,0.0,0.0,0.0,0.0,0.0,9.53206348419,-0.0980664938688,-0.176519691944,0.0,0.0,0.0,0.0,0.0,0.0,0.0,0.0,0.0
828846200,468760,1644543957472453356,1,0.0,0.0,0.0,0.0,0.0,0.0,0.0,0.0,0.0,0.0,0.0,0.0,0.0,0.0,0.0,0.0,0.0,0.0,0.0,0.0,0.0,0.0,0.0,0.0,0.0,9.5222568512,-0.0686465501785,-0.176519691944,0.0,0.0,0.0,0.0,0.0,0.0,0.0,0.0,0.0
830818800,468761,1644543957474467516,1,0.0,0.0,0.0,0.0,0.0,0.0,0.0,0.0,0.0,0.0,0.0,0.0,0.0,0.0,0.0,0.0,0.0,0.0,0.0,0.0,0.0,0.0,0.0,0.0,0.0,9.53206348419,-0.0784531980753,-0.196132987738,0.0,0.0,0.0,0.0,0.0,0.0,0.0,0.0,0.0
833044600,468762,1644543957476479530,1,0.0,0.0,0.0,0.0,0.0,0.0,0.0,0.0,0.0,0.0,0.0,0.0,0.0,0.0,0.0,0.0,0.0,0.0,0.0,0.0,0.0,0.0,0.0,0.0,0.0,9.49283695221,-0.0392265990376,-0.225552946329,0.0,0.0,0.0,0.0,0.0,0.0,0.0,0.0,0.0
835047200,468763,1644543957478493452,1,0.0,0.0,0.0,0.0,0.0,0.0,0.0,0.0,0.0,0.0,0.0,0.0,0.0,0.0,0.0,0.0,0.0,0.0,0.0,0.0,0.0,0.0,0.0,0.0,0.0,9.49283695221,-0.0392265990376,-0.225552946329,0.0,0.0,0.0,0.0,0.0,0.0,0.0,0.0,0.0
836892300,468764,1644543957480507374,1,0.0,0.0,0.0,0.0,0.0,0.0,0.0,0.0,0.0,0.0,0.0,0.0,0.0,0.0,0.0,0.0,0.0,0.0,0.0,0.0,0.0,0.0,0.0,0.0,0.0,9.5222568512,-0.0784531980753,-0.225552946329,0.0,0.0,0.0,0.0,0.0,0.0,0.0,0.0,0.0
838960200,468765,1644543957482521534,1,0.0,0.0,0.0,0.0,0.0,0.0,0.0,0.0,0.0,0.0,0.0,0.0,0.0,0.0,0.0,0.0,0.0,0.0,0.0,0.0,0.0,0.0,0.0,0.0,0.0,9.53206348419,-0.0392265990376,-0.225552946329,0.0,0.0,0.0,0.0,0.0,0.0,0.0,0.0,0.0
840950400,468766,1644543957484535456,1,0.0,0.0,0.0,0.0,0.0,0.0,0.0,0.0,0.0,0.0,0.0,0.0,0.0,0.0,0.0,0.0,0.0,0.0,0.0,0.0,0.0,0.0,0.0,0.0,0.0,9.53206348419,-0.0784531980753,-0.225552946329,0.0,0.0,0.0,0.0,0.0,0.0,0.0,0.0,0.0
842885400,468767,1644543957486547470,1,0.0,0.0,0.0,0.0,0.0,0.0,0.0,0.0,0.0,0.0,0.0,0.0,0.0,0.0,0.0,0.0,0.0,0.0,0.0,0.0,0.0,0.0,0.0,0.0,0.0,9.49283695221,-0.0784531980753,-0.196132987738,0.0,0.0,0.0,0.0,0.0,0.0,0.0,0.0,0.0
844866900,468768,1644543957488561392,1,0.0,0.0,0.0,0.0,0.0,0.0,0.0,0.0,0.0,0.0,0.0,0.0,0.0,0.0,0.0,0.0,0.0,0.0,0.0,0.0,0.0,0.0,0.0,0.0,0.0,9.53206348419,-0.0294199492782,-0.176519691944,0.0,0.0,0.0,0.0,0.0,0.0,0.0,0.0,0.0
846846200,468769,1644543957490575552,1,0.0,0.0,0.0,0.0,0.0,0.0,0.0,0.0,0.0,0.0,0.0,0.0,0.0,0.0,0.0,0.0,0.0,0.0,0.0,0.0,0.0,0.0,0.0,0.0,0.0,9.53206348419,-0.0686465501785,-0.196132987738,0.0,0.0,0.0,0.0,0.0,0.0,0.0,0.0,0.0
848858800,468770,1644543957492587328,1,0.0,0.0,0.0,0.0,0.0,0.0,0.0,0.0,0.0,0.0,0.0,0.0,0.0,0.0,0.0,0.0,0.0,0.0,0.0,0.0,0.0,0.0,0.0,0.0,0.0,9.53206348419,-0.12748645246,-0.176519691944,0.0,0.0,0.0,0.0,0.0,0.0,0.0,0.0,0.0
850902700,468771,1644543957494601250,1,0.0,0.0,0.0,0.0,0.0,0.0,0.0,0.0,0.0,0.0,0.0,0.0,0.0,0.0,0.0,0.0,0.0,0.0,0.0,0.0,0.0,0.0,0.0,0.0,0.0,9.57129001617,-0.0686465501785,-0.166713044047,0.0,0.0,0.0,0.0,0.0,0.0,0.0,0.0,0.0
852855400,468772,1644543957496615171,1,0.0,0.0,0.0,0.0,0.0,0.0,0.0,0.0,0.0,0.0,0.0,0.0,0.0,0.0,0.0,0.0,0.0,0.0,0.0,0.0,0.0,0.0,0.0,0.0,0.0,9.56148338318,-0.0686465501785,-0.176519691944,0.0,0.0,0.0,0.0,0.0,0.0,0.0,0.0,0.0
855202900,468773,1644543957498627424,1,0.0,0.0,0.0,0.0,0.0,0.0,0.0,0.0,0.0,0.0,0.0,0.0,0.0,0.0,0.0,0.0,0.0,0.0,0.0,0.0,0.0,0.0,0.0,0.0,0.0,9.53206348419,-0.0980664938688,-0.137293100357,0.0,0.0,0.0,0.0,0.0,0.0,0.0,0.0,0.0
857499000,468774,1644543957500641346,1,0.0,0.0,0.0,0.0,0.0,0.0,0.0,0.0,0.0,0.0,0.0,0.0,0.0,0.0,0.0,0.0,0.0,0.0,0.0,0.0,0.0,0.0,0.0,0.0,0.0,9.56148338318,-0.0980664938688,-0.166713044047,0.0,0.0,0.0,0.0,0.0,0.0,0.0,0.0,0.0
859106900,468775,1644543957502655268,1,0.0,0.0,0.0,0.0,0.0,0.0,0.0,0.0,0.0,0.0,0.0,0.0,0.0,0.0,0.0,0.0,0.0,0.0,0.0,0.0,0.0,0.0,0.0,0.0,0.0,9.53206348419,-0.0392265990376,-0.176519691944,0.0,0.0,0.0,0.0,0.0,0.0,0.0,0.0,0.0
861058800,468776,1644543957504667282,1,0.0,0.0,0.0,0.0,0.0,0.0,0.0,0.0,0.0,0.0,0.0,0.0,0.0,0.0,0.0,0.0,0.0,0.0,0.0,0.0,0.0,0.0,0.0,0.0,0.0,9.49283695221,-0.0980664938688,-0.196132987738,0.0,0.0,0.0,0.0,0.0,0.0,0.0,0.0,0.0
863059000,468777,1644543957506681442,1,0.0,0.0,0.0,0.0,0.0,0.0,0.0,0.0,0.0,0.0,0.0,0.0,0.0,0.0,0.0,0.0,0.0,0.0,0.0,0.0,0.0,0.0,0.0,0.0,0.0,9.53206348419,-0.0392265990376,-0.176519691944,0.0,0.0,0.0,0.0,0.0,0.0,0.0,0.0,0.0
865304300,468778,1644543957508695364,1,0.0,0.0,0.0,0.0,0.0,0.0,0.0,0.0,0.0,0.0,0.0,0.0,0.0,0.0,0.0,0.0,0.0,0.0,0.0,0.0,0.0,0.0,0.0,0.0,0.0,9.53206348419,-0.0392265990376,-0.176519691944,0.0,0.0,0.0,0.0,0.0,0.0,0.0,0.0,0.0
867177100,468779,1644543957510707378,1,0.0,0.0,0.0,0.0,0.0,0.0,0.0,0.0,0.0,0.0,0.0,0.0,0.0,0.0,0.0,0.0,0.0,0.0,0.0,0.0,0.0,0.0,0.0,0.0,0.0,9.53206348419,-0.0686465501785,-0.176519691944,0.0,0.0,0.0,0.0,0.0,0.0,0.0,0.0,0.0
869134400,468780,1644543957512721300,1,0.0,0.0,0.0,0.0,0.0,0.0,0.0,0.0,0.0,0.0,0.0,0.0,0.0,0.0,0.0,0.0,0.0,0.0,0.0,0.0,0.0,0.0,0.0,0.0,0.0,9.53206348419,-0.0784531980753,-0.176519691944,0.0,0.0,0.0,0.0,0.0,0.0,0.0,0.0,0.0
871329500,468781,1644543957514735460,1,0.0,0.0,0.0,0.0,0.0,0.0,0.0,0.0,0.0,0.0,0.0,0.0,0.0,0.0,0.0,0.0,0.0,0.0,0.0,0.0,0.0,0.0,0.0,0.0,0.0,9.5222568512,-0.0980664938688,-0.176519691944,0.0,0.0,0.0,0.0,0.0,0.0,0.0,0.0,0.0
873126900,468782,1644543957516747236,1,0.0,0.0,0.0,0.0,0.0,0.0,0.0,0.0,0.0,0.0,0.0,0.0,0.0,0.0,0.0,0.0,0.0,0.0,0.0,0.0,0.0,0.0,0.0,0.0,0.0,9.48303031921,-0.0784531980753,-0.176519691944,0.0,0.0,0.0,0.0,0.0,0.0,0.0,0.0,0.0
875097700,468783,1644543957518761158,1,0.0,0.0,0.0,0.0,0.0,0.0,0.0,0.0,0.0,0.0,0.0,0.0,0.0,0.0,0.0,0.0,0.0,0.0,0.0,0.0,0.0,0.0,0.0,0.0,0.0,9.48303031921,-0.0686465501785,-0.166713044047,0.0,0.0,0.0,0.0,0.0,0.0,0.0,0.0,0.0
877138100,468784,1644543957520775080,1,0.0,0.0,0.0,0.0,0.0,0.0,0.0,0.0,0.0,0.0,0.0,0.0,0.0,0.0,0.0,0.0,0.0,0.0,0.0,0.0,0.0,0.0,0.0,0.0,0.0,9.57129001617,-0.0980664938688,-0.176519691944,0.0,0.0,0.0,0.0,0.0,0.0,0.0,0.0,0.0
879110500,468785,1644543957522787333,1,0.0,0.0,0.0,0.0,0.0,0.0,0.0,0.0,0.0,0.0,0.0,0.0,0.0,0.0,0.0,0.0,0.0,0.0,0.0,0.0,0.0,0.0,0.0,0.0,0.0,9.53206348419,-0.0686465501785,-0.176519691944,0.0,0.0,0.0,0.0,0.0,0.0,0.0,0.0,0.0
881100100,468786,1644543957524801254,1,0.0,0.0,0.0,0.0,0.0,0.0,0.0,0.0,0.0,0.0,0.0,0.0,0.0,0.0,0.0,0.0,0.0,0.0,0.0,0.0,0.0,0.0,0.0,0.0,0.0,9.49283695221,-0.0980664938688,-0.176519691944,0.0,0.0,0.0,0.0,0.0,0.0,0.0,0.0,0.0
883083700,468787,1644543957526815176,1,0.0,0.0,0.0,0.0,0.0,0.0,0.0,0.0,0.0,0.0,0.0,0.0,0.0,0.0,0.0,0.0,0.0,0.0,0.0,0.0,0.0,0.0,0.0,0.0,0.0,9.53206348419,-0.0980664938688,-0.176519691944,0.0,0.0,0.0,0.0,0.0,0.0,0.0,0.0,0.0
885201000,468788,1644543957528827190,1,0.0,0.0,0.0,0.0,0.0,0.0,0.0,0.0,0.0,0.0,0.0,0.0,0.0,0.0,0.0,0.0,0.0,0.0,0.0,0.0,0.0,0.0,0.0,0.0,0.0,9.49283695221,-0.0686465501785,-0.225552946329,0.0,0.0,0.0,0.0,0.0,0.0,0.0,0.0,0.0
887195000,468789,1644543957530841351,1,0.0,0.0,0.0,0.0,0.0,0.0,0.0,0.0,0.0,0.0,0.0,0.0,0.0,0.0,0.0,0.0,0.0,0.0,0.0,0.0,0.0,0.0,0.0,0.0,0.0,9.53206348419,-0.12748645246,-0.176519691944,0.0,0.0,0.0,0.0,0.0,0.0,0.0,0.0,0.0
889127200,468790,1644543957532855272,1,0.0,0.0,0.0,0.0,0.0,0.0,0.0,0.0,0.0,0.0,0.0,0.0,0.0,0.0,0.0,0.0,0.0,0.0,0.0,0.0,0.0,0.0,0.0,0.0,0.0,9.53206348419,-0.0784531980753,-0.176519691944,0.0,0.0,0.0,0.0,0.0,0.0,0.0,0.0,0.0
891085900,468791,1644543957534869194,1,0.0,0.0,0.0,0.0,0.0,0.0,0.0,0.0,0.0,0.0,0.0,0.0,0.0,0.0,0.0,0.0,0.0,0.0,0.0,0.0,0.0,0.0,0.0,0.0,0.0,9.5222568512,-0.0980664938688,-0.176519691944,0.0,0.0,0.0,0.0,0.0,0.0,0.0,0.0,0.0
893102600,468792,1644543957536881208,1,0.0,0.0,0.0,0.0,0.0,0.0,0.0,0.0,0.0,0.0,0.0,0.0,0.0,0.0,0.0,0.0,0.0,0.0,0.0,0.0,0.0,0.0,0.0,0.0,0.0,9.53206348419,-0.0980664938688,-0.196132987738,0.0,0.0,0.0,0.0,0.0,0.0,0.0,0.0,0.0
895311000,468793,1644543957538895369,1,0.0,0.0,0.0,0.0,0.0,0.0,0.0,0.0,0.0,0.0,0.0,0.0,0.0,0.0,0.0,0.0,0.0,0.0,0.0,0.0,0.0,0.0,0.0,0.0,0.0,9.53206348419,-0.12748645246,-0.166713044047,0.0,0.0,0.0,0.0,0.0,0.0,0.0,0.0,0.0
897350800,468794,1644543957540909290,1,0.0,0.0,0.0,0.0,0.0,0.0,0.0,0.0,0.0,0.0,0.0,0.0,0.0,0.0,0.0,0.0,0.0,0.0,0.0,0.0,0.0,0.0,0.0,0.0,0.0,9.53206348419,-0.0784531980753,-0.137293100357,0.0,0.0,0.0,0.0,0.0,0.0,0.0,0.0,0.0
899305600,468795,1644543957542923212,1,0.0,0.0,0.0,0.0,0.0,0.0,0.0,0.0,0.0,0.0,0.0,0.0,0.0,0.0,0.0,0.0,0.0,0.0,0.0,0.0,0.0,0.0,0.0,0.0,0.0,9.57129001617,-0.0784531980753,-0.176519691944,0.0,0.0,0.0,0.0,0.0,0.0,0.0,0.0,0.0
901514000,468796,1644543957544937372,1,0.0,0.0,0.0,0.0,0.0,0.0,0.0,0.0,0.0,0.0,0.0,0.0,0.0,0.0,0.0,0.0,0.0,0.0,0.0,0.0,0.0,0.0,0.0,0.0,0.0,9.5222568512,-0.12748645246,-0.176519691944,0.0,0.0,0.0,0.0,0.0,0.0,0.0,0.0,0.0
903320000,468797,1644543957546949148,1,0.0,0.0,0.0,0.0,0.0,0.0,0.0,0.0,0.0,0.0,0.0,0.0,0.0,0.0,0.0,0.0,0.0,0.0,0.0,0.0,0.0,0.0,0.0,0.0,0.0,9.49283695221,-0.12748645246,-0.196132987738,0.0,0.0,0.0,0.0,0.0,0.0,0.0,0.0,0.0
905313300,468798,1644543957548963070,1,0.0,0.0,0.0,0.0,0.0,0.0,0.0,0.0,0.0,0.0,0.0,0.0,0.0,0.0,0.0,0.0,0.0,0.0,0.0,0.0,0.0,0.0,0.0,0.0,0.0,9.56148338318,-0.0784531980753,-0.166713044047,0.0,0.0,0.0,0.0,0.0,0.0,0.0,0.0,0.0
907604800,468799,1644543957550976992,1,0.0,0.0,0.0,0.0,0.0,0.0,0.0,0.0,0.0,0.0,0.0,0.0,0.0,0.0,0.0,0.0,0.0,0.0,0.0,0.0,0.0,0.0,0.0,0.0,0.0,9.53206348419,-0.137293100357,-0.12748645246,0.0,0.0,0.0,0.0,0.0,0.0,0.0,0.0,0.0
909339100,468800,1644543957552991152,1,0.0,0.0,0.0,0.0,0.0,0.0,0.0,0.0,0.0,0.0,0.0,0.0,0.0,0.0,0.0,0.0,0.0,0.0,0.0,0.0,0.0,0.0,0.0,0.0,0.0,9.5222568512,-0.0784531980753,-0.176519691944,0.0,0.0,0.0,0.0,0.0,0.0,0.0,0.0,0.0
911628800,468801,1644543957555005074,1,0.0,0.0,0.0,0.0,0.0,0.0,0.0,0.0,0.0,0.0,0.0,0.0,0.0,0.0,0.0,0.0,0.0,0.0,0.0,0.0,0.0,0.0,0.0,0.0,0.0,9.53206348419,-0.0784531980753,-0.176519691944,0.0,0.0,0.0,0.0,0.0,0.0,0.0,0.0,0.0
913707000,468802,1644543957557018995,1,0.0,0.0,0.0,0.0,0.0,0.0,0.0,0.0,0.0,0.0,0.0,0.0,0.0,0.0,0.0,0.0,0.0,0.0,0.0,0.0,0.0,0.0,0.0,0.0,0.0,9.53206348419,-0.0980664938688,-0.196132987738,0.0,0.0,0.0,0.0,0.0,0.0,0.0,0.0,0.0
915670300,468803,1644543957559031248,1,0.0,0.0,0.0,0.0,0.0,0.0,0.0,0.0,0.0,0.0,0.0,0.0,0.0,0.0,0.0,0.0,0.0,0.0,0.0,0.0,0.0,0.0,0.0,0.0,0.0,9.53206348419,-0.0980664938688,-0.196132987738,0.0,0.0,0.0,0.0,0.0,0.0,0.0,0.0,0.0
917700000,468804,1644543957561045170,1,0.0,0.0,0.0,0.0,0.0,0.0,0.0,0.0,0.0,0.0,0.0,0.0,0.0,0.0,0.0,0.0,0.0,0.0,0.0,0.0,0.0,0.0,0.0,0.0,0.0,9.53206348419,-0.0784531980753,-0.176519691944,0.0,0.0,0.0,0.0,0.0,0.0,0.0,0.0,0.0
919888100,468805,1644543957563059092,1,0.0,0.0,0.0,0.0,0.0,0.0,0.0,0.0,0.0,0.0,0.0,0.0,0.0,0.0,0.0,0.0,0.0,0.0,0.0,0.0,0.0,0.0,0.0,0.0,0.0,9.49283695221,-0.12748645246,-0.166713044047,0.0,0.0,0.0,0.0,0.0,0.0,0.0,0.0,0.0
921607000,468806,1644543957565073252,1,0.0,0.0,0.0,0.0,0.0,0.0,0.0,0.0,0.0,0.0,0.0,0.0,0.0,0.0,0.0,0.0,0.0,0.0,0.0,0.0,0.0,0.0,0.0,0.0,0.0,9.53206348419,-0.0784531980753,-0.176519691944,0.0,0.0,0.0,0.0,0.0,0.0,0.0,0.0,0.0
923594600,468807,1644543957567085266,1,0.0,0.0,0.0,0.0,0.0,0.0,0.0,0.0,0.0,0.0,0.0,0.0,0.0,0.0,0.0,0.0,0.0,0.0,0.0,0.0,0.0,0.0,0.0,0.0,0.0,9.5222568512,-0.0784531980753,-0.176519691944,0.0,0.0,0.0,0.0,0.0,0.0,0.0,0.0,0.0
925603500,468808,1644543957569099188,1,0.0,0.0,0.0,0.0,0.0,0.0,0.0,0.0,0.0,0.0,0.0,0.0,0.0,0.0,0.0,0.0,0.0,0.0,0.0,0.0,0.0,0.0,0.0,0.0,0.0,9.56148338318,-0.0980664938688,-0.166713044047,0.0,0.0,0.0,0.0,0.0,0.0,0.0,0.0,0.0
927595300,468809,1644543957571113110,1,0.0,0.0,0.0,0.0,0.0,0.0,0.0,0.0,0.0,0.0,0.0,0.0,0.0,0.0,0.0,0.0,0.0,0.0,0.0,0.0,0.0,0.0,0.0,0.0,0.0,9.56148338318,-0.0980664938688,-0.176519691944,0.0,0.0,0.0,0.0,0.0,0.0,0.0,0.0,0.0
929581200,468810,1644543957573127270,1,0.0,0.0,0.0,0.0,0.0,0.0,0.0,0.0,0.0,0.0,0.0,0.0,0.0,0.0,0.0,0.0,0.0,0.0,0.0,0.0,0.0,0.0,0.0,0.0,0.0,9.5222568512,-0.0686465501785,-0.225552946329,0.0,0.0,0.0,0.0,0.0,0.0,0.0,0.0,0.0
931834300,468811,1644543957575141191,1,0.0,0.0,0.0,0.0,0.0,0.0,0.0,0.0,0.0,0.0,0.0,0.0,0.0,0.0,0.0,0.0,0.0,0.0,0.0,0.0,0.0,0.0,0.0,0.0,0.0,9.56148338318,-0.0980664938688,-0.166713044047,0.0,0.0,0.0,0.0,0.0,0.0,0.0,0.0,0.0
933930900,468812,1644543957577152967,1,0.0,0.0,0.0,0.0,0.0,0.0,0.0,0.0,0.0,0.0,0.0,0.0,0.0,0.0,0.0,0.0,0.0,0.0,0.0,0.0,0.0,0.0,0.0,0.0,0.0,9.53206348419,-0.0980664938688,-0.176519691944,0.0,0.0,0.0,0.0,0.0,0.0,0.0,0.0,0.0
935616100,468813,1644543957579166889,1,0.0,0.0,0.0,0.0,0.0,0.0,0.0,0.0,0.0,0.0,0.0,0.0,0.0,0.0,0.0,0.0,0.0,0.0,0.0,0.0,0.0,0.0,0.0,0.0,0.0,9.49283695221,-0.0980664938688,-0.225552946329,0.0,0.0,0.0,0.0,0.0,0.0,0.0,0.0,0.0
937600300,468814,1644543957581181049,1,0.0,0.0,0.0,0.0,0.0,0.0,0.0,0.0,0.0,0.0,0.0,0.0,0.0,0.0,0.0,0.0,0.0,0.0,0.0,0.0,0.0,0.0,0.0,0.0,0.0,9.49283695221,-0.0980664938688,-0.196132987738,0.0,0.0,0.0,0.0,0.0,0.0,0.0,0.0,0.0
939588200,468815,1644543957583194971,1,0.0,0.0,0.0,0.0,0.0,0.0,0.0,0.0,0.0,0.0,0.0,0.0,0.0,0.0,0.0,0.0,0.0,0.0,0.0,0.0,0.0,0.0,0.0,0.0,0.0,9.5222568512,-0.0980664938688,-0.196132987738,0.0,0.0,0.0,0.0,0.0,0.0,0.0,0.0,0.0
941598000,468816,1644543957585206985,1,0.0,0.0,0.0,0.0,0.0,0.0,0.0,0.0,0.0,0.0,0.0,0.0,0.0,0.0,0.0,0.0,0.0,0.0,0.0,0.0,0.0,0.0,0.0,0.0,0.0,9.5222568512,-0.12748645246,-0.176519691944,0.0,0.0,0.0,0.0,0.0,0.0,0.0,0.0,0.0
943593800,468817,1644543957587221146,1,0.0,0.0,0.0,0.0,0.0,0.0,0.0,0.0,0.0,0.0,0.0,0.0,0.0,0.0,0.0,0.0,0.0,0.0,0.0,0.0,0.0,0.0,0.0,0.0,0.0,9.5222568512,-0.137293100357,-0.166713044047,0.0,0.0,0.0,0.0,0.0,0.0,0.0,0.0,0.0
946026900,468818,1644543957589235067,1,0.0,0.0,0.0,0.0,0.0,0.0,0.0,0.0,0.0,0.0,0.0,0.0,0.0,0.0,0.0,0.0,0.0,0.0,0.0,0.0,0.0,0.0,0.0,0.0,0.0,9.49283695221,-0.137293100357,-0.225552946329,0.0,0.0,0.0,0.0,0.0,0.0,0.0,0.0,0.0
947794900,468819,1644543957591247082,1,0.0,0.0,0.0,0.0,0.0,0.0,0.0,0.0,0.0,0.0,0.0,0.0,0.0,0.0,0.0,0.0,0.0,0.0,0.0,0.0,0.0,0.0,0.0,0.0,0.0,9.53206348419,-0.137293100357,-0.176519691944,0.0,0.0,0.0,0.0,0.0,0.0,0.0,0.0,0.0
949699600,468820,1644543957593261003,1,0.0,0.0,0.0,0.0,0.0,0.0,0.0,0.0,0.0,0.0,0.0,0.0,0.0,0.0,0.0,0.0,0.0,0.0,0.0,0.0,0.0,0.0,0.0,0.0,0.0,9.5222568512,-0.166713044047,-0.176519691944,0.0,0.0,0.0,0.0,0.0,0.0,0.0,0.0,0.0
951670800,468821,1644543957595275164,1,0.0,0.0,0.0,0.0,0.0,0.0,0.0,0.0,0.0,0.0,0.0,0.0,0.0,0.0,0.0,0.0,0.0,0.0,0.0,0.0,0.0,0.0,0.0,0.0,0.0,9.49283695221,-0.137293100357,-0.196132987738,0.0,0.0,0.0,0.0,0.0,0.0,0.0,0.0,0.0
953701900,468822,1644543957597289085,1,0.0,0.0,0.0,0.0,0.0,0.0,0.0,0.0,0.0,0.0,0.0,0.0,0.0,0.0,0.0,0.0,0.0,0.0,0.0,0.0,0.0,0.0,0.0,0.0,0.0,9.53206348419,-0.166713044047,-0.176519691944,0.0,0.0,0.0,0.0,0.0,0.0,0.0,0.0,0.0
955678500,468823,1644543957599301100,1,0.0,0.0,0.0,0.0,0.0,0.0,0.0,0.0,0.0,0.0,0.0,0.0,0.0,0.0,0.0,0.0,0.0,0.0,0.0,0.0,0.0,0.0,0.0,0.0,0.0,9.53206348419,-0.176519691944,-0.176519691944,0.0,0.0,0.0,0.0,0.0,0.0,0.0,0.0,0.0
957618300,468824,1644543957601315022,1,0.0,0.0,0.0,0.0,0.0,0.0,0.0,0.0,0.0,0.0,0.0,0.0,0.0,0.0,0.0,0.0,0.0,0.0,0.0,0.0,0.0,0.0,0.0,0.0,0.0,9.53206348419,-0.137293100357,-0.225552946329,0.0,0.0,0.0,0.0,0.0,0.0,0.0,0.0,0.0
959878500,468825,1644543957603329182,1,0.0,0.0,0.0,0.0,0.0,0.0,0.0,0.0,0.0,0.0,0.0,0.0,0.0,0.0,0.0,0.0,0.0,0.0,0.0,0.0,0.0,0.0,0.0,0.0,0.0,9.48303031921,-0.196132987738,-0.225552946329,0.0,0.0,0.0,0.0,0.0,0.0,0.0,0.0,0.0
961829300,468826,1644543957605340958,1,0.0,0.0,0.0,0.0,0.0,0.0,0.0,0.0,0.0,0.0,0.0,0.0,0.0,0.0,0.0,0.0,0.0,0.0,0.0,0.0,0.0,0.0,0.0,0.0,0.0,9.49283695221,-0.196132987738,-0.225552946329,0.0,0.0,0.0,0.0,0.0,0.0,0.0,0.0,0.0
963706500,468827,1644543957607354879,1,0.0,0.0,0.0,0.0,0.0,0.0,0.0,0.0,0.0,0.0,0.0,0.0,0.0,0.0,0.0,0.0,0.0,0.0,0.0,0.0,0.0,0.0,0.0,0.0,0.0,9.5222568512,-0.12748645246,-0.166713044047,0.0,0.0,0.0,0.0,0.0,0.0,0.0,0.0,0.0
965600700,468828,1644543957609366894,1,0.0,0.0,0.0,0.0,0.0,0.0,0.0,0.0,0.0,0.0,0.0,0.0,0.0,0.0,0.0,0.0,0.0,0.0,0.0,0.0,0.0,0.0,0.0,0.0,0.0,9.5222568512,-0.176519691944,-0.176519691944,0.0,0.0,0.0,0.0,0.0,0.0,0.0,0.0,0.0
967657000,468829,1644543957611381054,1,0.0,0.0,0.0,0.0,0.0,0.0,0.0,0.0,0.0,0.0,0.0,0.0,0.0,0.0,0.0,0.0,0.0,0.0,0.0,0.0,0.0,0.0,0.0,0.0,0.0,9.49283695221,-0.166713044047,-0.245166242123,0.0,0.0,0.0,0.0,0.0,0.0,0.0,0.0,0.0
969885200,468830,1644543957613394976,1,0.0,0.0,0.0,0.0,0.0,0.0,0.0,0.0,0.0,0.0,0.0,0.0,0.0,0.0,0.0,0.0,0.0,0.0,0.0,0.0,0.0,0.0,0.0,0.0,0.0,9.48303031921,-0.137293100357,-0.274586200714,0.0,0.0,0.0,0.0,0.0,0.0,0.0,0.0,0.0
971798500,468831,1644543957615406990,1,0.0,0.0,0.0,0.0,0.0,0.0,0.0,0.0,0.0,0.0,0.0,0.0,0.0,0.0,0.0,0.0,0.0,0.0,0.0,0.0,0.0,0.0,0.0,0.0,0.0,9.5222568512,-0.225552946329,-0.196132987738,0.0,0.0,0.0,0.0,0.0,0.0,0.0,0.0,0.0
973834200,468832,1644543957617420912,1,0.0,0.0,0.0,0.0,0.0,0.0,0.0,0.0,0.0,0.0,0.0,0.0,0.0,0.0,0.0,0.0,0.0,0.0,0.0,0.0,0.0,0.0,0.0,0.0,0.0,9.5222568512,-0.176519691944,-0.137293100357,0.0,0.0,0.0,0.0,0.0,0.0,0.0,0.0,0.0
975866600,468833,1644543957619435072,1,0.0,0.0,0.0,0.0,0.0,0.0,0.0,0.0,0.0,0.0,0.0,0.0,0.0,0.0,0.0,0.0,0.0,0.0,0.0,0.0,0.0,0.0,0.0,0.0,0.0,9.5222568512,-0.196132987738,-0.166713044047,0.0,0.0,0.0,0.0,0.0,0.0,0.0,0.0,0.0
978042500,468834,1644543957621448994,1,0.0,0.0,0.0,0.0,0.0,0.0,0.0,0.0,0.0,0.0,0.0,0.0,0.0,0.0,0.0,0.0,0.0,0.0,0.0,0.0,0.0,0.0,0.0,0.0,0.0,9.49283695221,-0.196132987738,-0.166713044047,0.0,0.0,0.0,0.0,0.0,0.0,0.0,0.0,0.0
979827500,468835,1644543957623461008,1,0.0,0.0,0.0,0.0,0.0,0.0,0.0,0.0,0.0,0.0,0.0,0.0,0.0,0.0,0.0,0.0,0.0,0.0,0.0,0.0,0.0,0.0,0.0,0.0,0.0,9.5222568512,-0.196132987738,-0.225552946329,0.0,0.0,0.0,0.0,0.0,0.0,0.0,0.0,0.0
981829300,468836,1644543957625475168,1,0.0,0.0,0.0,0.0,0.0,0.0,0.0,0.0,0.0,0.0,0.0,0.0,0.0,0.0,0.0,0.0,0.0,0.0,0.0,0.0,0.0,0.0,0.0,0.0,0.0,9.5222568512,-0.137293100357,-0.166713044047,0.0,0.0,0.0,0.0,0.0,0.0,0.0,0.0,0.0
983954800,468837,1644543957627489090,1,0.0,0.0,0.0,0.0,0.0,0.0,0.0,0.0,0.0,0.0,0.0,0.0,0.0,0.0,0.0,0.0,0.0,0.0,0.0,0.0,0.0,0.0,0.0,0.0,0.0,9.49283695221,-0.225552946329,-0.166713044047,0.0,0.0,0.0,0.0,0.0,0.0,0.0,0.0,0.0
985855300,468838,1644543957629500866,1,0.0,0.0,0.0,0.0,0.0,0.0,0.0,0.0,0.0,0.0,0.0,0.0,0.0,0.0,0.0,0.0,0.0,0.0,0.0,0.0,0.0,0.0,0.0,0.0,0.0,9.49283695221,-0.196132987738,-0.176519691944,0.0,0.0,0.0,0.0,0.0,0.0,0.0,0.0,0.0
987833300,468839,1644543957631514788,1,0.0,0.0,0.0,0.0,0.0,0.0,0.0,0.0,0.0,0.0,0.0,0.0,0.0,0.0,0.0,0.0,0.0,0.0,0.0,0.0,0.0,0.0,0.0,0.0,0.0,9.48303031921,-0.196132987738,-0.166713044047,0.0,0.0,0.0,0.0,0.0,0.0,0.0,0.0,0.0
989848500,468840,1644543957633528948,1,0.0,0.0,0.0,0.0,0.0,0.0,0.0,0.0,0.0,0.0,0.0,0.0,0.0,0.0,0.0,0.0,0.0,0.0,0.0,0.0,0.0,0.0,0.0,0.0,0.0,9.49283695221,-0.166713044047,-0.196132987738,0.0,0.0,0.0,0.0,0.0,0.0,0.0,0.0,0.0
991935700,468841,1644543957635540962,1,0.0,0.0,0.0,0.0,0.0,0.0,0.0,0.0,0.0,0.0,0.0,0.0,0.0,0.0,0.0,0.0,0.0,0.0,0.0,0.0,0.0,0.0,0.0,0.0,0.0,9.48303031921,-0.137293100357,-0.176519691944,0.0,0.0,0.0,0.0,0.0,0.0,0.0,0.0,0.0
993990700,468842,1644543957637554884,1,0.0,0.0,0.0,0.0,0.0,0.0,0.0,0.0,0.0,0.0,0.0,0.0,0.0,0.0,0.0,0.0,0.0,0.0,0.0,0.0,0.0,0.0,0.0,0.0,0.0,9.45361042023,-0.176519691944,-0.166713044047,0.0,0.0,0.0,0.0,0.0,0.0,0.0,0.0,0.0
995909900,468843,1644543957639569044,1,0.0,0.0,0.0,0.0,0.0,0.0,0.0,0.0,0.0,0.0,0.0,0.0,0.0,0.0,0.0,0.0,0.0,0.0,0.0,0.0,0.0,0.0,0.0,0.0,0.0,9.48303031921,-0.176519691944,-0.176519691944,0.0,0.0,0.0,0.0,0.0,0.0,0.0,0.0,0.0
997852900,468844,1644543957641582966,1,0.0,0.0,0.0,0.0,0.0,0.0,0.0,0.0,0.0,0.0,0.0,0.0,0.0,0.0,0.0,0.0,0.0,0.0,0.0,0.0,0.0,0.0,0.0,0.0,0.0,9.49283695221,-0.137293100357,-0.176519691944,0.0,0.0,0.0,0.0,0.0,0.0,0.0,0.0,0.0
999954200,468845,1644543957643594980,1,0.0,0.0,0.0,0.0,0.0,0.0,0.0,0.0,0.0,0.0,0.0,0.0,0.0,0.0,0.0,0.0,0.0,0.0,0.0,0.0,0.0,0.0,0.0,0.0,0.0,9.5222568512,-0.176519691944,-0.166713044047,0.0,0.0,0.0,0.0,0.0,0.0,0.0,0.0,0.0
1001888500,468846,1644543957645608902,1,0.0,0.0,0.0,0.0,0.0,0.0,0.0,0.0,0.0,0.0,0.0,0.0,0.0,0.0,0.0,0.0,0.0,0.0,0.0,0.0,0.0,0.0,0.0,0.0,0.0,9.43399715424,-0.196132987738,-0.176519691944,0.0,0.0,0.0,0.0,0.0,0.0,0.0,0.0,0.0
1003833600,468847,1644543957647621155,1,0.0,0.0,0.0,0.0,0.0,0.0,0.0,0.0,0.0,0.0,0.0,0.0,0.0,0.0,0.0,0.0,0.0,0.0,0.0,0.0,0.0,0.0,0.0,0.0,0.0,9.49283695221,-0.176519691944,-0.166713044047,0.0,0.0,0.0,0.0,0.0,0.0,0.0,0.0,0.0
1005858600,468848,1644543957649635077,1,0.0,0.0,0.0,0.0,0.0,0.0,0.0,0.0,0.0,0.0,0.0,0.0,0.0,0.0,0.0,0.0,0.0,0.0,0.0,0.0,0.0,0.0,0.0,0.0,0.0,9.5222568512,-0.176519691944,-0.166713044047,0.0,0.0,0.0,0.0,0.0,0.0,0.0,0.0,0.0
1008644800,468849,1644543957651647091,1,0.0,0.0,0.0,0.0,0.0,0.0,0.0,0.0,0.0,0.0,0.0,0.0,0.0,0.0,0.0,0.0,0.0,0.0,0.0,0.0,0.0,0.0,0.0,0.0,0.0,9.5222568512,-0.176519691944,-0.176519691944,0.0,0.0,0.0,0.0,0.0,0.0,0.0,0.0,0.0
1010139700,468850,1644543957653660774,1,0.0,0.0,0.0,0.0,0.0,0.0,0.0,0.0,0.0,0.0,0.0,0.0,0.0,0.0,0.0,0.0,0.0,0.0,0.0,0.0,0.0,0.0,0.0,0.0,0.0,9.56148338318,-0.196132987738,-0.196132987738,0.0,0.0,0.0,0.0,0.0,0.0,0.0,0.0,0.0
1012098300,468851,1644543957655674934,1,0.0,0.0,0.0,0.0,0.0,0.0,0.0,0.0,0.0,0.0,0.0,0.0,0.0,0.0,0.0,0.0,0.0,0.0,0.0,0.0,0.0,0.0,0.0,0.0,0.0,9.5222568512,-0.137293100357,-0.166713044047,0.0,0.0,0.0,0.0,0.0,0.0,0.0,0.0,0.0
1014154500,468852,1644543957657686949,1,0.0,0.0,0.0,0.0,0.0,0.0,0.0,0.0,0.0,0.0,0.0,0.0,0.0,0.0,0.0,0.0,0.0,0.0,0.0,0.0,0.0,0.0,0.0,0.0,0.0,9.5222568512,-0.166713044047,-0.176519691944,0.0,0.0,0.0,0.0,0.0,0.0,0.0,0.0,0.0
1016136400,468853,1644543957659700871,1,0.0,0.0,0.0,0.0,0.0,0.0,0.0,0.0,0.0,0.0,0.0,0.0,0.0,0.0,0.0,0.0,0.0,0.0,0.0,0.0,0.0,0.0,0.0,0.0,0.0,9.53206348419,-0.176519691944,-0.176519691944,0.0,0.0,0.0,0.0,0.0,0.0,0.0,0.0,0.0
1018097400,468854,1644543957661712885,1,0.0,0.0,0.0,0.0,0.0,0.0,0.0,0.0,0.0,0.0,0.0,0.0,0.0,0.0,0.0,0.0,0.0,0.0,0.0,0.0,0.0,0.0,0.0,0.0,0.0,9.49283695221,-0.166713044047,-0.225552946329,0.0,0.0,0.0,0.0,0.0,0.0,0.0,0.0,0.0
1020133600,468855,1644543957663727045,1,0.0,0.0,0.0,0.0,0.0,0.0,0.0,0.0,0.0,0.0,0.0,0.0,0.0,0.0,0.0,0.0,0.0,0.0,0.0,0.0,0.0,0.0,0.0,0.0,0.0,9.5222568512,-0.196132987738,-0.176519691944,0.0,0.0,0.0,0.0,0.0,0.0,0.0,0.0,0.0
1022189300,468856,1644543957665739059,1,0.0,0.0,0.0,0.0,0.0,0.0,0.0,0.0,0.0,0.0,0.0,0.0,0.0,0.0,0.0,0.0,0.0,0.0,0.0,0.0,0.0,0.0,0.0,0.0,0.0,9.53206348419,-0.176519691944,-0.176519691944,0.0,0.0,0.0,0.0,0.0,0.0,0.0,0.0,0.0
1024364300,468857,1644543957667752981,1,0.0,0.0,0.0,0.0,0.0,0.0,0.0,0.0,0.0,0.0,0.0,0.0,0.0,0.0,0.0,0.0,0.0,0.0,0.0,0.0,0.0,0.0,0.0,0.0,0.0,9.5222568512,-0.166713044047,-0.176519691944,0.0,0.0,0.0,0.0,0.0,0.0,0.0,0.0,0.0
1026383200,468858,1644543957669766903,1,0.0,0.0,0.0,0.0,0.0,0.0,0.0,0.0,0.0,0.0,0.0,0.0,0.0,0.0,0.0,0.0,0.0,0.0,0.0,0.0,0.0,0.0,0.0,0.0,0.0,9.48303031921,-0.137293100357,-0.176519691944,0.0,0.0,0.0,0.0,0.0,0.0,0.0,0.0,0.0
1028376300,468859,1644543957671779156,1,0.0,0.0,0.0,0.0,0.0,0.0,0.0,0.0,0.0,0.0,0.0,0.0,0.0,0.0,0.0,0.0,0.0,0.0,0.0,0.0,0.0,0.0,0.0,0.0,0.0,9.45361042023,-0.176519691944,-0.176519691944,0.0,0.0,0.0,0.0,0.0,0.0,0.0,0.0,0.0
1030331900,468860,1644543957673793077,1,0.0,0.0,0.0,0.0,0.0,0.0,0.0,0.0,0.0,0.0,0.0,0.0,0.0,0.0,0.0,0.0,0.0,0.0,0.0,0.0,0.0,0.0,0.0,0.0,0.0,9.57129001617,-0.166713044047,-0.176519691944,0.0,0.0,0.0,0.0,0.0,0.0,0.0,0.0,0.0
1032047900,468861,1644543957675806999,1,0.0,0.0,0.0,0.0,0.0,0.0,0.0,0.0,0.0,0.0,0.0,0.0,0.0,0.0,0.0,0.0,0.0,0.0,0.0,0.0,0.0,0.0,0.0,0.0,0.0,9.49283695221,-0.137293100357,-0.196132987738,0.0,0.0,0.0,0.0,0.0,0.0,0.0,0.0,0.0
1034388300,468862,1644543957677818775,1,0.0,0.0,0.0,0.0,0.0,0.0,0.0,0.0,0.0,0.0,0.0,0.0,0.0,0.0,0.0,0.0,0.0,0.0,0.0,0.0,0.0,0.0,0.0,0.0,0.0,9.48303031921,-0.0980664938688,-0.225552946329,0.0,0.0,0.0,0.0,0.0,0.0,0.0,0.0,0.0
1036439600,468863,1644543957679832935,1,0.0,0.0,0.0,0.0,0.0,0.0,0.0,0.0,0.0,0.0,0.0,0.0,0.0,0.0,0.0,0.0,0.0,0.0,0.0,0.0,0.0,0.0,0.0,0.0,0.0,9.5222568512,-0.176519691944,-0.196132987738,0.0,0.0,0.0,0.0,0.0,0.0,0.0,0.0,0.0
1038536600,468864,1644543957681844950,1,0.0,0.0,0.0,0.0,0.0,0.0,0.0,0.0,0.0,0.0,0.0,0.0,0.0,0.0,0.0,0.0,0.0,0.0,0.0,0.0,0.0,0.0,0.0,0.0,0.0,9.53206348419,-0.166713044047,-0.166713044047,0.0,0.0,0.0,0.0,0.0,0.0,0.0,0.0,0.0
1040485800,468865,1644543957683858871,1,0.0,0.0,0.0,0.0,0.0,0.0,0.0,0.0,0.0,0.0,0.0,0.0,0.0,0.0,0.0,0.0,0.0,0.0,0.0,0.0,0.0,0.0,0.0,0.0,0.0,9.48303031921,-0.176519691944,-0.176519691944,0.0,0.0,0.0,0.0,0.0,0.0,0.0,0.0,0.0
1042477300,468866,1644543957685873032,1,0.0,0.0,0.0,0.0,0.0,0.0,0.0,0.0,0.0,0.0,0.0,0.0,0.0,0.0,0.0,0.0,0.0,0.0,0.0,0.0,0.0,0.0,0.0,0.0,0.0,9.49283695221,-0.245166242123,-0.176519691944,0.0,0.0,0.0,0.0,0.0,0.0,0.0,0.0,0.0
1044410800,468867,1644543957687885046,1,0.0,0.0,0.0,0.0,0.0,0.0,0.0,0.0,0.0,0.0,0.0,0.0,0.0,0.0,0.0,0.0,0.0,0.0,0.0,0.0,0.0,0.0,0.0,0.0,0.0,9.53206348419,-0.12748645246,-0.196132987738,0.0,0.0,0.0,0.0,0.0,0.0,0.0,0.0,0.0
1046373700,468868,1644543957689898968,1,0.0,0.0,0.0,0.0,0.0,0.0,0.0,0.0,0.0,0.0,0.0,0.0,0.0,0.0,0.0,0.0,0.0,0.0,0.0,0.0,0.0,0.0,0.0,0.0,0.0,9.48303031921,-0.137293100357,-0.176519691944,0.0,0.0,0.0,0.0,0.0,0.0,0.0,0.0,0.0
1048346000,468869,1644543957691912889,1,0.0,0.0,0.0,0.0,0.0,0.0,0.0,0.0,0.0,0.0,0.0,0.0,0.0,0.0,0.0,0.0,0.0,0.0,0.0,0.0,0.0,0.0,0.0,0.0,0.0,9.53206348419,-0.137293100357,-0.166713044047,0.0,0.0,0.0,0.0,0.0,0.0,0.0,0.0,0.0
1050518200,468870,1644543957693925142,1,0.0,0.0,0.0,0.0,0.0,0.0,0.0,0.0,0.0,0.0,0.0,0.0,0.0,0.0,0.0,0.0,0.0,0.0,0.0,0.0,0.0,0.0,0.0,0.0,0.0,9.5222568512,-0.166713044047,-0.245166242123,0.0,0.0,0.0,0.0,0.0,0.0,0.0,0.0,0.0
1052437800,468871,1644543957695939064,1,0.0,0.0,0.0,0.0,0.0,0.0,0.0,0.0,0.0,0.0,0.0,0.0,0.0,0.0,0.0,0.0,0.0,0.0,0.0,0.0,0.0,0.0,0.0,0.0,0.0,9.5222568512,-0.166713044047,-0.196132987738,0.0,0.0,0.0,0.0,0.0,0.0,0.0,0.0,0.0
1054560700,468872,1644543957697950840,1,0.0,0.0,0.0,0.0,0.0,0.0,0.0,0.0,0.0,0.0,0.0,0.0,0.0,0.0,0.0,0.0,0.0,0.0,0.0,0.0,0.0,0.0,0.0,0.0,0.0,9.5222568512,-0.12748645246,-0.176519691944,0.0,0.0,0.0,0.0,0.0,0.0,0.0,0.0,0.0
1056352200,468873,1644543957699964762,1,0.0,0.0,0.0,0.0,0.0,0.0,0.0,0.0,0.0,0.0,0.0,0.0,0.0,0.0,0.0,0.0,0.0,0.0,0.0,0.0,0.0,0.0,0.0,0.0,0.0,9.5222568512,-0.137293100357,-0.196132987738,0.0,0.0,0.0,0.0,0.0,0.0,0.0,0.0,0.0
1058349800,468874,1644543957701978922,1,0.0,0.0,0.0,0.0,0.0,0.0,0.0,0.0,0.0,0.0,0.0,0.0,0.0,0.0,0.0,0.0,0.0,0.0,0.0,0.0,0.0,0.0,0.0,0.0,0.0,9.53206348419,-0.166713044047,-0.225552946329,0.0,0.0,0.0,0.0,0.0,0.0,0.0,0.0,0.0
1060345200,468875,1644543957703992844,1,0.0,0.0,0.0,0.0,0.0,0.0,0.0,0.0,0.0,0.0,0.0,0.0,0.0,0.0,0.0,0.0,0.0,0.0,0.0,0.0,0.0,0.0,0.0,0.0,0.0,9.49283695221,-0.137293100357,-0.166713044047,0.0,0.0,0.0,0.0,0.0,0.0,0.0,0.0,0.0
1062565500,468876,1644543957706004858,1,0.0,0.0,0.0,0.0,0.0,0.0,0.0,0.0,0.0,0.0,0.0,0.0,0.0,0.0,0.0,0.0,0.0,0.0,0.0,0.0,0.0,0.0,0.0,0.0,0.0,9.5222568512,-0.137293100357,-0.176519691944,0.0,0.0,0.0,0.0,0.0,0.0,0.0,0.0,0.0
1064395800,468877,1644543957708019018,1,0.0,0.0,0.0,0.0,0.0,0.0,0.0,0.0,0.0,0.0,0.0,0.0,0.0,0.0,0.0,0.0,0.0,0.0,0.0,0.0,0.0,0.0,0.0,0.0,0.0,9.5222568512,-0.176519691944,-0.196132987738,0.0,0.0,0.0,0.0,0.0,0.0,0.0,0.0,0.0
1066352000,468878,1644543957710031033,1,0.0,0.0,0.0,0.0,0.0,0.0,0.0,0.0,0.0,0.0,0.0,0.0,0.0,0.0,0.0,0.0,0.0,0.0,0.0,0.0,0.0,0.0,0.0,0.0,0.0,9.49283695221,-0.176519691944,-0.225552946329,0.0,0.0,0.0,0.0,0.0,0.0,0.0,0.0,0.0
1068598700,468879,1644543957712044954,1,0.0,0.0,0.0,0.0,0.0,0.0,0.0,0.0,0.0,0.0,0.0,0.0,0.0,0.0,0.0,0.0,0.0,0.0,0.0,0.0,0.0,0.0,0.0,0.0,0.0,9.48303031921,-0.166713044047,-0.176519691944,0.0,0.0,0.0,0.0,0.0,0.0,0.0,0.0,0.0
1070428900,468880,1644543957714056969,1,0.0,0.0,0.0,0.0,0.0,0.0,0.0,0.0,0.0,0.0,0.0,0.0,0.0,0.0,0.0,0.0,0.0,0.0,0.0,0.0,0.0,0.0,0.0,0.0,0.0,9.53206348419,-0.137293100357,-0.196132987738,0.0,0.0,0.0,0.0,0.0,0.0,0.0,0.0,0.0
1072741100,468881,1644543957716071129,1,0.0,0.0,0.0,0.0,0.0,0.0,0.0,0.0,0.0,0.0,0.0,0.0,0.0,0.0,0.0,0.0,0.0,0.0,0.0,0.0,0.0,0.0,0.0,0.0,0.0,9.53206348419,-0.166713044047,-0.166713044047,0.0,0.0,0.0,0.0,0.0,0.0,0.0,0.0,0.0
1074489100,468882,1644543957718085051,1,0.0,0.0,0.0,0.0,0.0,0.0,0.0,0.0,0.0,0.0,0.0,0.0,0.0,0.0,0.0,0.0,0.0,0.0,0.0,0.0,0.0,0.0,0.0,0.0,0.0,9.49283695221,-0.176519691944,-0.176519691944,0.0,0.0,0.0,0.0,0.0,0.0,0.0,0.0,0.0
1076402000,468883,1644543957720096827,1,0.0,0.0,0.0,0.0,0.0,0.0,0.0,0.0,0.0,0.0,0.0,0.0,0.0,0.0,0.0,0.0,0.0,0.0,0.0,0.0,0.0,0.0,0.0,0.0,0.0,9.53206348419,-0.166713044047,-0.176519691944,0.0,0.0,0.0,0.0,0.0,0.0,0.0,0.0,0.0
1078362300,468884,1644543957722110987,1,0.0,0.0,0.0,0.0,0.0,0.0,0.0,0.0,0.0,0.0,0.0,0.0,0.0,0.0,0.0,0.0,0.0,0.0,0.0,0.0,0.0,0.0,0.0,0.0,0.0,9.5222568512,-0.166713044047,-0.176519691944,0.0,0.0,0.0,0.0,0.0,0.0,0.0,0.0,0.0
1080374200,468885,1644543957724124908,1,0.0,0.0,0.0,0.0,0.0,0.0,0.0,0.0,0.0,0.0,0.0,0.0,0.0,0.0,0.0,0.0,0.0,0.0,0.0,0.0,0.0,0.0,0.0,0.0,0.0,9.49283695221,-0.137293100357,-0.196132987738,0.0,0.0,0.0,0.0,0.0,0.0,0.0,0.0,0.0
1082591500,468886,1644543957726136923,1,0.0,0.0,0.0,0.0,0.0,0.0,0.0,0.0,0.0,0.0,0.0,0.0,0.0,0.0,0.0,0.0,0.0,0.0,0.0,0.0,0.0,0.0,0.0,0.0,0.0,9.49283695221,-0.137293100357,-0.225552946329,0.0,0.0,0.0,0.0,0.0,0.0,0.0,0.0,0.0
1084943900,468887,1644543957728150845,1,0.0,0.0,0.0,0.0,0.0,0.0,0.0,0.0,0.0,0.0,0.0,0.0,0.0,0.0,0.0,0.0,0.0,0.0,0.0,0.0,0.0,0.0,0.0,0.0,0.0,9.53206348419,-0.137293100357,-0.225552946329,0.0,0.0,0.0,0.0,0.0,0.0,0.0,0.0,0.0
1086710800,468888,1644543957730163097,1,0.0,0.0,0.0,0.0,0.0,0.0,0.0,0.0,0.0,0.0,0.0,0.0,0.0,0.0,0.0,0.0,0.0,0.0,0.0,0.0,0.0,0.0,0.0,0.0,0.0,9.48303031921,-0.12748645246,-0.245166242123,0.0,0.0,0.0,0.0,0.0,0.0,0.0,0.0,0.0
1088630600,468889,1644543957732177019,1,0.0,0.0,0.0,0.0,0.0,0.0,0.0,0.0,0.0,0.0,0.0,0.0,0.0,0.0,0.0,0.0,0.0,0.0,0.0,0.0,0.0,0.0,0.0,0.0,0.0,9.5222568512,-0.12748645246,-0.196132987738,0.0,0.0,0.0,0.0,0.0,0.0,0.0,0.0,0.0
1090604500,468890,1644543957734190941,1,0.0,0.0,0.0,0.0,0.0,0.0,0.0,0.0,0.0,0.0,0.0,0.0,0.0,0.0,0.0,0.0,0.0,0.0,0.0,0.0,0.0,0.0,0.0,0.0,0.0,9.49283695221,-0.137293100357,-0.176519691944,0.0,0.0,0.0,0.0,0.0,0.0,0.0,0.0,0.0
1092592900,468891,1644543957736202955,1,0.0,0.0,0.0,0.0,0.0,0.0,0.0,0.0,0.0,0.0,0.0,0.0,0.0,0.0,0.0,0.0,0.0,0.0,0.0,0.0,0.0,0.0,0.0,0.0,0.0,9.5222568512,-0.137293100357,-0.176519691944,0.0,0.0,0.0,0.0,0.0,0.0,0.0,0.0,0.0
1094667100,468892,1644543957738217115,1,0.0,0.0,0.0,0.0,0.0,0.0,0.0,0.0,0.0,0.0,0.0,0.0,0.0,0.0,0.0,0.0,0.0,0.0,0.0,0.0,0.0,0.0,0.0,0.0,0.0,9.48303031921,-0.0980664938688,-0.225552946329,0.0,0.0,0.0,0.0,0.0,0.0,0.0,0.0,0.0
1096604100,468893,1644543957740231037,1,0.0,0.0,0.0,0.0,0.0,0.0,0.0,0.0,0.0,0.0,0.0,0.0,0.0,0.0,0.0,0.0,0.0,0.0,0.0,0.0,0.0,0.0,0.0,0.0,0.0,9.49283695221,-0.0980664938688,-0.196132987738,0.0,0.0,0.0,0.0,0.0,0.0,0.0,0.0,0.0
1098890400,468894,1644543957742242813,1,0.0,0.0,0.0,0.0,0.0,0.0,0.0,0.0,0.0,0.0,0.0,0.0,0.0,0.0,0.0,0.0,0.0,0.0,0.0,0.0,0.0,0.0,0.0,0.0,0.0,9.5222568512,-0.137293100357,-0.176519691944,0.0,0.0,0.0,0.0,0.0,0.0,0.0,0.0,0.0
1101102700,468895,1644543957744256973,1,0.0,0.0,0.0,0.0,0.0,0.0,0.0,0.0,0.0,0.0,0.0,0.0,0.0,0.0,0.0,0.0,0.0,0.0,0.0,0.0,0.0,0.0,0.0,0.0,0.0,9.53206348419,-0.0980664938688,-0.196132987738,0.0,0.0,0.0,0.0,0.0,0.0,0.0,0.0,0.0
1102609400,468896,1644543957746270895,1,0.0,0.0,0.0,0.0,0.0,0.0,0.0,0.0,0.0,0.0,0.0,0.0,0.0,0.0,0.0,0.0,0.0,0.0,0.0,0.0,0.0,0.0,0.0,0.0,0.0,9.53206348419,-0.0980664938688,-0.166713044047,0.0,0.0,0.0,0.0,0.0,0.0,0.0,0.0,0.0
1104679000,468897,1644543957748282909,1,0.0,0.0,0.0,0.0,0.0,0.0,0.0,0.0,0.0,0.0,0.0,0.0,0.0,0.0,0.0,0.0,0.0,0.0,0.0,0.0,0.0,0.0,0.0,0.0,0.0,9.5222568512,-0.12748645246,-0.176519691944,0.0,0.0,0.0,0.0,0.0,0.0,0.0,0.0,0.0
1106663500,468898,1644543957750296831,1,0.0,0.0,0.0,0.0,0.0,0.0,0.0,0.0,0.0,0.0,0.0,0.0,0.0,0.0,0.0,0.0,0.0,0.0,0.0,0.0,0.0,0.0,0.0,0.0,0.0,9.49283695221,-0.12748645246,-0.196132987738,0.0,0.0,0.0,0.0,0.0,0.0,0.0,0.0,0.0
1108730200,468899,1644543957752309084,1,0.0,0.0,0.0,0.0,0.0,0.0,0.0,0.0,0.0,0.0,0.0,0.0,0.0,0.0,0.0,0.0,0.0,0.0,0.0,0.0,0.0,0.0,0.0,0.0,0.0,9.5222568512,-0.137293100357,-0.196132987738,0.0,0.0,0.0,0.0,0.0,0.0,0.0,0.0,0.0
1110674600,468900,1644543957754323006,1,0.0,0.0,0.0,0.0,0.0,0.0,0.0,0.0,0.0,0.0,0.0,0.0,0.0,0.0,0.0,0.0,0.0,0.0,0.0,0.0,0.0,0.0,0.0,0.0,0.0,9.49283695221,-0.12748645246,-0.196132987738,0.0,0.0,0.0,0.0,0.0,0.0,0.0,0.0,0.0
1112603700,468901,1644543957756335020,1,0.0,0.0,0.0,0.0,0.0,0.0,0.0,0.0,0.0,0.0,0.0,0.0,0.0,0.0,0.0,0.0,0.0,0.0,0.0,0.0,0.0,0.0,0.0,0.0,0.0,9.53206348419,-0.0686465501785,-0.196132987738,0.0,0.0,0.0,0.0,0.0,0.0,0.0,0.0,0.0
1114646200,468902,1644543957758348942,1,0.0,0.0,0.0,0.0,0.0,0.0,0.0,0.0,0.0,0.0,0.0,0.0,0.0,0.0,0.0,0.0,0.0,0.0,0.0,0.0,0.0,0.0,0.0,0.0,0.0,9.57129001617,-0.0784531980753,-0.225552946329,0.0,0.0,0.0,0.0,0.0,0.0,0.0,0.0,0.0
1116787800,468903,1644543957760363102,1,0.0,0.0,0.0,0.0,0.0,0.0,0.0,0.0,0.0,0.0,0.0,0.0,0.0,0.0,0.0,0.0,0.0,0.0,0.0,0.0,0.0,0.0,0.0,0.0,0.0,9.53206348419,-0.0784531980753,-0.176519691944,0.0,0.0,0.0,0.0,0.0,0.0,0.0,0.0,0.0
1118658800,468904,1644543957762375116,1,0.0,0.0,0.0,0.0,0.0,0.0,0.0,0.0,0.0,0.0,0.0,0.0,0.0,0.0,0.0,0.0,0.0,0.0,0.0,0.0,0.0,0.0,0.0,0.0,0.0,9.5222568512,-0.0686465501785,-0.264779537916,0.0,0.0,0.0,0.0,0.0,0.0,0.0,0.0,0.0
1120598300,468905,1644543957764388800,1,0.0,0.0,0.0,0.0,0.0,0.0,0.0,0.0,0.0,0.0,0.0,0.0,0.0,0.0,0.0,0.0,0.0,0.0,0.0,0.0,0.0,0.0,0.0,0.0,0.0,9.53206348419,-0.0686465501785,-0.166713044047,0.0,0.0,0.0,0.0,0.0,0.0,0.0,0.0,0.0
1122597100,468906,1644543957766401052,1,0.0,0.0,0.0,0.0,0.0,0.0,0.0,0.0,0.0,0.0,0.0,0.0,0.0,0.0,0.0,0.0,0.0,0.0,0.0,0.0,0.0,0.0,0.0,0.0,0.0,9.53206348419,-0.0784531980753,-0.176519691944,0.0,0.0,0.0,0.0,0.0,0.0,0.0,0.0,0.0
1124850300,468907,1644543957768414974,1,0.0,0.0,0.0,0.0,0.0,0.0,0.0,0.0,0.0,0.0,0.0,0.0,0.0,0.0,0.0,0.0,0.0,0.0,0.0,0.0,0.0,0.0,0.0,0.0,0.0,9.56148338318,-0.0980664938688,-0.196132987738,0.0,0.0,0.0,0.0,0.0,0.0,0.0,0.0,0.0
1126805400,468908,1644543957770426989,1,0.0,0.0,0.0,0.0,0.0,0.0,0.0,0.0,0.0,0.0,0.0,0.0,0.0,0.0,0.0,0.0,0.0,0.0,0.0,0.0,0.0,0.0,0.0,0.0,0.0,9.45361042023,-0.0784531980753,-0.166713044047,0.0,0.0,0.0,0.0,0.0,0.0,0.0,0.0,0.0
1128837400,468909,1644543957772439003,1,0.0,0.0,0.0,0.0,0.0,0.0,0.0,0.0,0.0,0.0,0.0,0.0,0.0,0.0,0.0,0.0,0.0,0.0,0.0,0.0,0.0,0.0,0.0,0.0,0.0,9.5222568512,-0.0784531980753,-0.166713044047,0.0,0.0,0.0,0.0,0.0,0.0,0.0,0.0,0.0
1131201500,468910,1644543957774453163,1,0.0,0.0,0.0,0.0,0.0,0.0,0.0,0.0,0.0,0.0,0.0,0.0,0.0,0.0,0.0,0.0,0.0,0.0,0.0,0.0,0.0,0.0,0.0,0.0,0.0,9.56148338318,-0.0392265990376,-0.166713044047,0.0,0.0,0.0,0.0,0.0,0.0,0.0,0.0,0.0
1132843400,468911,1644543957776465178,1,0.0,0.0,0.0,0.0,0.0,0.0,0.0,0.0,0.0,0.0,0.0,0.0,0.0,0.0,0.0,0.0,0.0,0.0,0.0,0.0,0.0,0.0,0.0,0.0,0.0,9.53206348419,-0.0784531980753,-0.196132987738,0.0,0.0,0.0,0.0,0.0,0.0,0.0,0.0,0.0
1134827700,468912,1644543957778479099,1,0.0,0.0,0.0,0.0,0.0,0.0,0.0,0.0,0.0,0.0,0.0,0.0,0.0,0.0,0.0,0.0,0.0,0.0,0.0,0.0,0.0,0.0,0.0,0.0,0.0,9.56148338318,-0.0784531980753,-0.196132987738,0.0,0.0,0.0,0.0,0.0,0.0,0.0,0.0,0.0
1136891600,468913,1644543957780490875,1,0.0,0.0,0.0,0.0,0.0,0.0,0.0,0.0,0.0,0.0,0.0,0.0,0.0,0.0,0.0,0.0,0.0,0.0,0.0,0.0,0.0,0.0,0.0,0.0,0.0,9.56148338318,-0.0686465501785,-0.166713044047,0.0,0.0,0.0,0.0,0.0,0.0,0.0,0.0,0.0
1138837400,468914,1644543957782505035,1,0.0,0.0,0.0,0.0,0.0,0.0,0.0,0.0,0.0,0.0,0.0,0.0,0.0,0.0,0.0,0.0,0.0,0.0,0.0,0.0,0.0,0.0,0.0,0.0,0.0,9.57129001617,-0.0392265990376,-0.176519691944,0.0,0.0,0.0,0.0,0.0,0.0,0.0,0.0,0.0
1140810300,468915,1644543957784517050,1,0.0,0.0,0.0,0.0,0.0,0.0,0.0,0.0,0.0,0.0,0.0,0.0,0.0,0.0,0.0,0.0,0.0,0.0,0.0,0.0,0.0,0.0,0.0,0.0,0.0,9.53206348419,-0.0392265990376,-0.245166242123,0.0,0.0,0.0,0.0,0.0,0.0,0.0,0.0,0.0
1142809000,468916,1644543957786530972,1,0.0,0.0,0.0,0.0,0.0,0.0,0.0,0.0,0.0,0.0,0.0,0.0,0.0,0.0,0.0,0.0,0.0,0.0,0.0,0.0,0.0,0.0,0.0,0.0,0.0,9.56148338318,-0.0784531980753,-0.176519691944,0.0,0.0,0.0,0.0,0.0,0.0,0.0,0.0,0.0
1144873600,468917,1644543957788545132,1,0.0,0.0,0.0,0.0,0.0,0.0,0.0,0.0,0.0,0.0,0.0,0.0,0.0,0.0,0.0,0.0,0.0,0.0,0.0,0.0,0.0,0.0,0.0,0.0,0.0,9.53206348419,-0.0784531980753,-0.166713044047,0.0,0.0,0.0,0.0,0.0,0.0,0.0,0.0,0.0
1147146800,468918,1644543957790557146,1,0.0,0.0,0.0,0.0,0.0,0.0,0.0,0.0,0.0,0.0,0.0,0.0,0.0,0.0,0.0,0.0,0.0,0.0,0.0,0.0,0.0,0.0,0.0,0.0,0.0,9.56148338318,-0.0392265990376,-0.196132987738,0.0,0.0,0.0,0.0,0.0,0.0,0.0,0.0,0.0
1149071200,468919,1644543957792571068,1,0.0,0.0,0.0,0.0,0.0,0.0,0.0,0.0,0.0,0.0,0.0,0.0,0.0,0.0,0.0,0.0,0.0,0.0,0.0,0.0,0.0,0.0,0.0,0.0,0.0,9.56148338318,-0.0980664938688,-0.176519691944,0.0,0.0,0.0,0.0,0.0,0.0,0.0,0.0,0.0
1151110000,468920,1644543957794583082,1,0.0,0.0,0.0,0.0,0.0,0.0,0.0,0.0,0.0,0.0,0.0,0.0,0.0,0.0,0.0,0.0,0.0,0.0,0.0,0.0,0.0,0.0,0.0,0.0,0.0,9.53206348419,-0.0686465501785,-0.176519691944,0.0,0.0,0.0,0.0,0.0,0.0,0.0,0.0,0.0
1153123200,468921,1644543957796597242,1,0.0,0.0,0.0,0.0,0.0,0.0,0.0,0.0,0.0,0.0,0.0,0.0,0.0,0.0,0.0,0.0,0.0,0.0,0.0,0.0,0.0,0.0,0.0,0.0,0.0,9.56148338318,-0.0294199492782,-0.166713044047,0.0,0.0,0.0,0.0,0.0,0.0,0.0,0.0,0.0
1154994800,468922,1644543957798609018,1,0.0,0.0,0.0,0.0,0.0,0.0,0.0,0.0,0.0,0.0,0.0,0.0,0.0,0.0,0.0,0.0,0.0,0.0,0.0,0.0,0.0,0.0,0.0,0.0,0.0,9.57129001617,-0.0392265990376,-0.196132987738,0.0,0.0,0.0,0.0,0.0,0.0,0.0,0.0,0.0
1157124300,468923,1644543957800622940,1,0.0,0.0,0.0,0.0,0.0,0.0,0.0,0.0,0.0,0.0,0.0,0.0,0.0,0.0,0.0,0.0,0.0,0.0,0.0,0.0,0.0,0.0,0.0,0.0,0.0,9.57129001617,-0.0392265990376,-0.137293100357,0.0,0.0,0.0,0.0,0.0,0.0,0.0,0.0,0.0
1159106400,468924,1644543957802634954,1,0.0,0.0,0.0,0.0,0.0,0.0,0.0,0.0,0.0,0.0,0.0,0.0,0.0,0.0,0.0,0.0,0.0,0.0,0.0,0.0,0.0,0.0,0.0,0.0,0.0,9.56148338318,-0.00980664975941,-0.196132987738,0.0,0.0,0.0,0.0,0.0,0.0,0.0,0.0,0.0
1161105400,468925,1644543957804649115,1,0.0,0.0,0.0,0.0,0.0,0.0,0.0,0.0,0.0,0.0,0.0,0.0,0.0,0.0,0.0,0.0,0.0,0.0,0.0,0.0,0.0,0.0,0.0,0.0,0.0,9.56148338318,-0.0294199492782,-0.166713044047,0.0,0.0,0.0,0.0,0.0,0.0,0.0,0.0,0.0
1163090600,468926,1644543957806663036,1,0.0,0.0,0.0,0.0,0.0,0.0,0.0,0.0,0.0,0.0,0.0,0.0,0.0,0.0,0.0,0.0,0.0,0.0,0.0,0.0,0.0,0.0,0.0,0.0,0.0,9.57129001617,-0.00980664975941,-0.0980664938688,0.0,0.0,0.0,0.0,0.0,0.0,0.0,0.0,0.0
1165152500,468927,1644543957808675051,1,0.0,0.0,0.0,0.0,0.0,0.0,0.0,0.0,0.0,0.0,0.0,0.0,0.0,0.0,0.0,0.0,0.0,0.0,0.0,0.0,0.0,0.0,0.0,0.0,0.0,9.53206348419,-0.0294199492782,-0.196132987738,0.0,0.0,0.0,0.0,0.0,0.0,0.0,0.0,0.0
1167128400,468928,1644543957810687065,1,0.0,0.0,0.0,0.0,0.0,0.0,0.0,0.0,0.0,0.0,0.0,0.0,0.0,0.0,0.0,0.0,0.0,0.0,0.0,0.0,0.0,0.0,0.0,0.0,0.0,9.57129001617,-0.0294199492782,-0.176519691944,0.0,0.0,0.0,0.0,0.0,0.0,0.0,0.0,0.0
1169283900,468929,1644543957812699318,1,0.0,0.0,0.0,0.0,0.0,0.0,0.0,0.0,0.0,0.0,0.0,0.0,0.0,0.0,0.0,0.0,0.0,0.0,0.0,0.0,0.0,0.0,0.0,0.0,0.0,9.57129001617,0.00980664975941,-0.225552946329,0.0,0.0,0.0,0.0,0.0,0.0,0.0,0.0,0.0
1171102600,468930,1644543957814713240,1,0.0,0.0,0.0,0.0,0.0,0.0,0.0,0.0,0.0,0.0,0.0,0.0,0.0,0.0,0.0,0.0,0.0,0.0,0.0,0.0,0.0,0.0,0.0,0.0,0.0,9.56148338318,0.00980664975941,-0.176519691944,0.0,0.0,0.0,0.0,0.0,0.0,0.0,0.0,0.0
1173227300,468931,1644543957816725016,1,0.0,0.0,0.0,0.0,0.0,0.0,0.0,0.0,0.0,0.0,0.0,0.0,0.0,0.0,0.0,0.0,0.0,0.0,0.0,0.0,0.0,0.0,0.0,0.0,0.0,9.56148338318,0.0392265990376,-0.196132987738,0.0,0.0,0.0,0.0,0.0,0.0,0.0,0.0,0.0
1175450700,468932,1644543957818738937,1,0.0,0.0,0.0,0.0,0.0,0.0,0.0,0.0,0.0,0.0,0.0,0.0,0.0,0.0,0.0,0.0,0.0,0.0,0.0,0.0,0.0,0.0,0.0,0.0,0.0,9.5222568512,0.0294199492782,-0.166713044047,0.0,0.0,0.0,0.0,0.0,0.0,0.0,0.0,0.0
1177368800,468933,1644543957820753098,1,0.0,0.0,0.0,0.0,0.0,0.0,0.0,0.0,0.0,0.0,0.0,0.0,0.0,0.0,0.0,0.0,0.0,0.0,0.0,0.0,0.0,0.0,0.0,0.0,0.0,9.57129001617,-0.00980664975941,-0.176519691944,0.0,0.0,0.0,0.0,0.0,0.0,0.0,0.0,0.0
1179104800,468934,1644543957822765112,1,0.0,0.0,0.0,0.0,0.0,0.0,0.0,0.0,0.0,0.0,0.0,0.0,0.0,0.0,0.0,0.0,0.0,0.0,0.0,0.0,0.0,0.0,0.0,0.0,0.0,9.57129001617,0.00980664975941,-0.176519691944,0.0,0.0,0.0,0.0,0.0,0.0,0.0,0.0,0.0
1181129000,468935,1644543957824777126,1,0.0,0.0,0.0,0.0,0.0,0.0,0.0,0.0,0.0,0.0,0.0,0.0,0.0,0.0,0.0,0.0,0.0,0.0,0.0,0.0,0.0,0.0,0.0,0.0,0.0,9.57129001617,0.0392265990376,-0.166713044047,0.0,0.0,0.0,0.0,0.0,0.0,0.0,0.0,0.0
1183097000,468936,1644543957826791048,1,0.0,0.0,0.0,0.0,0.0,0.0,0.0,0.0,0.0,0.0,0.0,0.0,0.0,0.0,0.0,0.0,0.0,0.0,0.0,0.0,0.0,0.0,0.0,0.0,0.0,9.53206348419,0.00980664975941,-0.176519691944,0.0,0.0,0.0,0.0,0.0,0.0,0.0,0.0,0.0
1185409900,468937,1644543957828805208,1,0.0,0.0,0.0,0.0,0.0,0.0,0.0,0.0,0.0,0.0,0.0,0.0,0.0,0.0,0.0,0.0,0.0,0.0,0.0,0.0,0.0,0.0,0.0,0.0,0.0,9.56148338318,0.0294199492782,-0.196132987738,0.0,0.0,0.0,0.0,0.0,0.0,0.0,0.0,0.0
1187106800,468938,1644543957830817223,1,0.0,0.0,0.0,0.0,0.0,0.0,0.0,0.0,0.0,0.0,0.0,0.0,0.0,0.0,0.0,0.0,0.0,0.0,0.0,0.0,0.0,0.0,0.0,0.0,0.0,9.57129001617,0.0294199492782,-0.196132987738,0.0,0.0,0.0,0.0,0.0,0.0,0.0,0.0,0.0
1189092000,468939,1644543957832831144,1,0.0,0.0,0.0,0.0,0.0,0.0,0.0,0.0,0.0,0.0,0.0,0.0,0.0,0.0,0.0,0.0,0.0,0.0,0.0,0.0,0.0,0.0,0.0,0.0,0.0,9.58109664917,0.0686465501785,-0.166713044047,0.0,0.0,0.0,0.0,0.0,0.0,0.0,0.0,0.0
1191557900,468940,1644543957834843159,1,0.0,0.0,0.0,0.0,0.0,0.0,0.0,0.0,0.0,0.0,0.0,0.0,0.0,0.0,0.0,0.0,0.0,0.0,0.0,0.0,0.0,0.0,0.0,0.0,0.0,9.57129001617,0.0294199492782,-0.196132987738,0.0,0.0,0.0,0.0,0.0,0.0,0.0,0.0,0.0
1193133400,468941,1644543957836857080,1,0.0,0.0,0.0,0.0,0.0,0.0,0.0,0.0,0.0,0.0,0.0,0.0,0.0,0.0,0.0,0.0,0.0,0.0,0.0,0.0,0.0,0.0,0.0,0.0,0.0,9.57129001617,0.0294199492782,-0.176519691944,0.0,0.0,0.0,0.0,0.0,0.0,0.0,0.0,0.0
1195372600,468942,1644543957838869095,1,0.0,0.0,0.0,0.0,0.0,0.0,0.0,0.0,0.0,0.0,0.0,0.0,0.0,0.0,0.0,0.0,0.0,0.0,0.0,0.0,0.0,0.0,0.0,0.0,0.0,9.56148338318,0.0392265990376,-0.176519691944,0.0,0.0,0.0,0.0,0.0,0.0,0.0,0.0,0.0
1197125500,468943,1644543957840883017,1,0.0,0.0,0.0,0.0,0.0,0.0,0.0,0.0,0.0,0.0,0.0,0.0,0.0,0.0,0.0,0.0,0.0,0.0,0.0,0.0,0.0,0.0,0.0,0.0,0.0,9.56148338318,0.0784531980753,-0.225552946329,0.0,0.0,0.0,0.0,0.0,0.0,0.0,0.0,0.0
1199351900,468944,1644543957842897177,1,0.0,0.0,0.0,0.0,0.0,0.0,0.0,0.0,0.0,0.0,0.0,0.0,0.0,0.0,0.0,0.0,0.0,0.0,0.0,0.0,0.0,0.0,0.0,0.0,0.0,9.57129001617,0.0392265990376,-0.196132987738,0.0,0.0,0.0,0.0,0.0,0.0,0.0,0.0,0.0
1201530500,468945,1644543957844909191,1,0.0,0.0,0.0,0.0,0.0,0.0,0.0,0.0,0.0,0.0,0.0,0.0,0.0,0.0,0.0,0.0,0.0,0.0,0.0,0.0,0.0,0.0,0.0,0.0,0.0,9.57129001617,0.0686465501785,-0.176519691944,0.0,0.0,0.0,0.0,0.0,0.0,0.0,0.0,0.0
1203434500,468946,1644543957846923113,1,0.0,0.0,0.0,0.0,0.0,0.0,0.0,0.0,0.0,0.0,0.0,0.0,0.0,0.0,0.0,0.0,0.0,0.0,0.0,0.0,0.0,0.0,0.0,0.0,0.0,9.56148338318,0.0686465501785,-0.176519691944,0.0,0.0,0.0,0.0,0.0,0.0,0.0,0.0,0.0
1205445600,468947,1644543957848937273,1,0.0,0.0,0.0,0.0,0.0,0.0,0.0,0.0,0.0,0.0,0.0,0.0,0.0,0.0,0.0,0.0,0.0,0.0,0.0,0.0,0.0,0.0,0.0,0.0,0.0,9.56148338318,0.0686465501785,-0.245166242123,0.0,0.0,0.0,0.0,0.0,0.0,0.0,0.0,0.0
1207527700,468948,1644543957850949287,1,0.0,0.0,0.0,0.0,0.0,0.0,0.0,0.0,0.0,0.0,0.0,0.0,0.0,0.0,0.0,0.0,0.0,0.0,0.0,0.0,0.0,0.0,0.0,0.0,0.0,9.57129001617,0.0686465501785,-0.225552946329,0.0,0.0,0.0,0.0,0.0,0.0,0.0,0.0,0.0
1209450000,468949,1644543957852963209,1,0.0,0.0,0.0,0.0,0.0,0.0,0.0,0.0,0.0,0.0,0.0,0.0,0.0,0.0,0.0,0.0,0.0,0.0,0.0,0.0,0.0,0.0,0.0,0.0,0.0,9.56148338318,0.0392265990376,-0.196132987738,0.0,0.0,0.0,0.0,0.0,0.0,0.0,0.0,0.0
1211354600,468950,1644543957854974985,1,0.0,0.0,0.0,0.0,0.0,0.0,0.0,0.0,0.0,0.0,0.0,0.0,0.0,0.0,0.0,0.0,0.0,0.0,0.0,0.0,0.0,0.0,0.0,0.0,0.0,9.53206348419,0.0392265990376,-0.225552946329,0.0,0.0,0.0,0.0,0.0,0.0,0.0,0.0,0.0
1213366700,468951,1644543957856989145,1,0.0,0.0,0.0,0.0,0.0,0.0,0.0,0.0,0.0,0.0,0.0,0.0,0.0,0.0,0.0,0.0,0.0,0.0,0.0,0.0,0.0,0.0,0.0,0.0,0.0,9.53206348419,0.0686465501785,-0.176519691944,0.0,0.0,0.0,0.0,0.0,0.0,0.0,0.0,0.0
1215354000,468952,1644543957859001160,1,0.0,0.0,0.0,0.0,0.0,0.0,0.0,0.0,0.0,0.0,0.0,0.0,0.0,0.0,0.0,0.0,0.0,0.0,0.0,0.0,0.0,0.0,0.0,0.0,0.0,9.56148338318,0.00980664975941,-0.196132987738,0.0,0.0,0.0,0.0,0.0,0.0,0.0,0.0,0.0
1217408200,468953,1644543957861015081,1,0.0,0.0,0.0,0.0,0.0,0.0,0.0,0.0,0.0,0.0,0.0,0.0,0.0,0.0,0.0,0.0,0.0,0.0,0.0,0.0,0.0,0.0,0.0,0.0,0.0,9.57129001617,0.0294199492782,-0.166713044047,0.0,0.0,0.0,0.0,0.0,0.0,0.0,0.0,0.0
1219342000,468954,1644543957863029242,1,0.0,0.0,0.0,0.0,0.0,0.0,0.0,0.0,0.0,0.0,0.0,0.0,0.0,0.0,0.0,0.0,0.0,0.0,0.0,0.0,0.0,0.0,0.0,0.0,0.0,9.58109664917,0.00980664975941,-0.166713044047,0.0,0.0,0.0,0.0,0.0,0.0,0.0,0.0,0.0
1221557800,468955,1644543957865041256,1,0.0,0.0,0.0,0.0,0.0,0.0,0.0,0.0,0.0,0.0,0.0,0.0,0.0,0.0,0.0,0.0,0.0,0.0,0.0,0.0,0.0,0.0,0.0,0.0,0.0,9.57129001617,0.0392265990376,-0.176519691944,0.0,0.0,0.0,0.0,0.0,0.0,0.0,0.0,0.0
1223378600,468956,1644543957867055178,1,0.0,0.0,0.0,0.0,0.0,0.0,0.0,0.0,0.0,0.0,0.0,0.0,0.0,0.0,0.0,0.0,0.0,0.0,0.0,0.0,0.0,0.0,0.0,0.0,0.0,9.57129001617,0.00980664975941,-0.225552946329,0.0,0.0,0.0,0.0,0.0,0.0,0.0,0.0,0.0
1225365100,468957,1644543957869067430,1,0.0,0.0,0.0,0.0,0.0,0.0,0.0,0.0,0.0,0.0,0.0,0.0,0.0,0.0,0.0,0.0,0.0,0.0,0.0,0.0,0.0,0.0,0.0,0.0,0.0,9.53206348419,0.0,-0.196132987738,0.0,0.0,0.0,0.0,0.0,0.0,0.0,0.0,0.0
1227337200,468958,1644543957871081352,1,0.0,0.0,0.0,0.0,0.0,0.0,0.0,0.0,0.0,0.0,0.0,0.0,0.0,0.0,0.0,0.0,0.0,0.0,0.0,0.0,0.0,0.0,0.0,0.0,0.0,9.57129001617,-0.00980664975941,-0.225552946329,0.0,0.0,0.0,0.0,0.0,0.0,0.0,0.0,0.0
1229370800,468959,1644543957873093367,1,0.0,0.0,0.0,0.0,0.0,0.0,0.0,0.0,0.0,0.0,0.0,0.0,0.0,0.0,0.0,0.0,0.0,0.0,0.0,0.0,0.0,0.0,0.0,0.0,0.0,9.57129001617,0.00980664975941,-0.196132987738,0.0,0.0,0.0,0.0,0.0,0.0,0.0,0.0,0.0
1231375800,468960,1644543957875109434,1,0.0,0.0,0.0,0.0,0.0,0.0,0.0,0.0,0.0,0.0,0.0,0.0,0.0,0.0,0.0,0.0,0.0,0.0,0.0,0.0,0.0,0.0,0.0,0.0,0.0,9.58109664917,-0.0294199492782,-0.225552946329,0.0,0.0,0.0,0.0,0.0,0.0,0.0,0.0,0.0
1233769600,468961,1644543957877121449,1,0.0,0.0,0.0,0.0,0.0,0.0,0.0,0.0,0.0,0.0,0.0,0.0,0.0,0.0,0.0,0.0,0.0,0.0,0.0,0.0,0.0,0.0,0.0,0.0,0.0,9.56148338318,-0.0294199492782,-0.176519691944,0.0,0.0,0.0,0.0,0.0,0.0,0.0,0.0,0.0
1235739500,468962,1644543957879135370,1,0.0,0.0,0.0,0.0,0.0,0.0,0.0,0.0,0.0,0.0,0.0,0.0,0.0,0.0,0.0,0.0,0.0,0.0,0.0,0.0,0.0,0.0,0.0,0.0,0.0,9.56148338318,-0.0294199492782,-0.196132987738,0.0,0.0,0.0,0.0,0.0,0.0,0.0,0.0,0.0
1237616500,468963,1644543957881147146,1,0.0,0.0,0.0,0.0,0.0,0.0,0.0,0.0,0.0,0.0,0.0,0.0,0.0,0.0,0.0,0.0,0.0,0.0,0.0,0.0,0.0,0.0,0.0,0.0,0.0,9.5222568512,-0.0784531980753,-0.196132987738,0.0,0.0,0.0,0.0,0.0,0.0,0.0,0.0,0.0
1239395000,468964,1644543957883161306,1,0.0,0.0,0.0,0.0,0.0,0.0,0.0,0.0,0.0,0.0,0.0,0.0,0.0,0.0,0.0,0.0,0.0,0.0,0.0,0.0,0.0,0.0,0.0,0.0,0.0,9.53206348419,-0.0686465501785,-0.176519691944,0.0,0.0,0.0,0.0,0.0,0.0,0.0,0.0,0.0
1241591500,468965,1644543957885173321,1,0.0,0.0,0.0,0.0,0.0,0.0,0.0,0.0,0.0,0.0,0.0,0.0,0.0,0.0,0.0,0.0,0.0,0.0,0.0,0.0,0.0,0.0,0.0,0.0,0.0,9.5222568512,-0.0784531980753,-0.196132987738,0.0,0.0,0.0,0.0,0.0,0.0,0.0,0.0,0.0
1243559700,468966,1644543957887187243,1,0.0,0.0,0.0,0.0,0.0,0.0,0.0,0.0,0.0,0.0,0.0,0.0,0.0,0.0,0.0,0.0,0.0,0.0,0.0,0.0,0.0,0.0,0.0,0.0,0.0,9.53206348419,-0.0392265990376,-0.176519691944,0.0,0.0,0.0,0.0,0.0,0.0,0.0,0.0,0.0
1245557900,468967,1644543957889201403,1,0.0,0.0,0.0,0.0,0.0,0.0,0.0,0.0,0.0,0.0,0.0,0.0,0.0,0.0,0.0,0.0,0.0,0.0,0.0,0.0,0.0,0.0,0.0,0.0,0.0,9.56148338318,-0.0686465501785,-0.166713044047,0.0,0.0,0.0,0.0,0.0,0.0,0.0,0.0,0.0
1247550700,468968,1644543957891215324,1,0.0,0.0,0.0,0.0,0.0,0.0,0.0,0.0,0.0,0.0,0.0,0.0,0.0,0.0,0.0,0.0,0.0,0.0,0.0,0.0,0.0,0.0,0.0,0.0,0.0,9.49283695221,-0.12748645246,-0.196132987738,0.0,0.0,0.0,0.0,0.0,0.0,0.0,0.0,0.0
1249606300,468969,1644543957893227339,1,0.0,0.0,0.0,0.0,0.0,0.0,0.0,0.0,0.0,0.0,0.0,0.0,0.0,0.0,0.0,0.0,0.0,0.0,0.0,0.0,0.0,0.0,0.0,0.0,0.0,9.53206348419,-0.12748645246,-0.176519691944,0.0,0.0,0.0,0.0,0.0,0.0,0.0,0.0,0.0
1251612400,468970,1644543957895241499,1,0.0,0.0,0.0,0.0,0.0,0.0,0.0,0.0,0.0,0.0,0.0,0.0,0.0,0.0,0.0,0.0,0.0,0.0,0.0,0.0,0.0,0.0,0.0,0.0,0.0,9.49283695221,-0.0686465501785,-0.196132987738,0.0,0.0,0.0,0.0,0.0,0.0,0.0,0.0,0.0
1253691800,468971,1644543957897253513,1,0.0,0.0,0.0,0.0,0.0,0.0,0.0,0.0,0.0,0.0,0.0,0.0,0.0,0.0,0.0,0.0,0.0,0.0,0.0,0.0,0.0,0.0,0.0,0.0,0.0,9.49283695221,-0.0392265990376,-0.196132987738,0.0,0.0,0.0,0.0,0.0,0.0,0.0,0.0,0.0
1255649200,468972,1644543957899267435,1,0.0,0.0,0.0,0.0,0.0,0.0,0.0,0.0,0.0,0.0,0.0,0.0,0.0,0.0,0.0,0.0,0.0,0.0,0.0,0.0,0.0,0.0,0.0,0.0,0.0,9.53206348419,-0.0980664938688,-0.166713044047,0.0,0.0,0.0,0.0,0.0,0.0,0.0,0.0,0.0
1257583800,468973,1644543957901281595,1,0.0,0.0,0.0,0.0,0.0,0.0,0.0,0.0,0.0,0.0,0.0,0.0,0.0,0.0,0.0,0.0,0.0,0.0,0.0,0.0,0.0,0.0,0.0,0.0,0.0,9.53206348419,-0.0980664938688,-0.196132987738,0.0,0.0,0.0,0.0,0.0,0.0,0.0,0.0,0.0
1259557700,468974,1644543957903293371,1,0.0,0.0,0.0,0.0,0.0,0.0,0.0,0.0,0.0,0.0,0.0,0.0,0.0,0.0,0.0,0.0,0.0,0.0,0.0,0.0,0.0,0.0,0.0,0.0,0.0,9.49283695221,-0.0980664938688,-0.176519691944,0.0,0.0,0.0,0.0,0.0,0.0,0.0,0.0,0.0
1261579000,468975,1644543957905307293,1,0.0,0.0,0.0,0.0,0.0,0.0,0.0,0.0,0.0,0.0,0.0,0.0,0.0,0.0,0.0,0.0,0.0,0.0,0.0,0.0,0.0,0.0,0.0,0.0,0.0,9.5222568512,-0.12748645246,-0.176519691944,0.0,0.0,0.0,0.0,0.0,0.0,0.0,0.0,0.0
1263547800,468976,1644543957907321453,1,0.0,0.0,0.0,0.0,0.0,0.0,0.0,0.0,0.0,0.0,0.0,0.0,0.0,0.0,0.0,0.0,0.0,0.0,0.0,0.0,0.0,0.0,0.0,0.0,0.0,9.56148338318,-0.137293100357,-0.225552946329,0.0,0.0,0.0,0.0,0.0,0.0,0.0,0.0,0.0
1266142900,468977,1644543957909335375,1,0.0,0.0,0.0,0.0,0.0,0.0,0.0,0.0,0.0,0.0,0.0,0.0,0.0,0.0,0.0,0.0,0.0,0.0,0.0,0.0,0.0,0.0,0.0,0.0,0.0,9.48303031921,-0.0392265990376,-0.166713044047,0.0,0.0,0.0,0.0,0.0,0.0,0.0,0.0,0.0
1267880600,468978,1644543957911347389,1,0.0,0.0,0.0,0.0,0.0,0.0,0.0,0.0,0.0,0.0,0.0,0.0,0.0,0.0,0.0,0.0,0.0,0.0,0.0,0.0,0.0,0.0,0.0,0.0,0.0,9.5222568512,-0.0980664938688,-0.225552946329,0.0,0.0,0.0,0.0,0.0,0.0,0.0,0.0,0.0
1270127900,468979,1644543957913361311,1,0.0,0.0,0.0,0.0,0.0,0.0,0.0,0.0,0.0,0.0,0.0,0.0,0.0,0.0,0.0,0.0,0.0,0.0,0.0,0.0,0.0,0.0,0.0,0.0,0.0,9.5222568512,-0.137293100357,-0.196132987738,0.0,0.0,0.0,0.0,0.0,0.0,0.0,0.0,0.0
1271930300,468980,1644543957915373564,1,0.0,0.0,0.0,0.0,0.0,0.0,0.0,0.0,0.0,0.0,0.0,0.0,0.0,0.0,0.0,0.0,0.0,0.0,0.0,0.0,0.0,0.0,0.0,0.0,0.0,9.56148338318,-0.137293100357,-0.225552946329,0.0,0.0,0.0,0.0,0.0,0.0,0.0,0.0,0.0
1273909500,468981,1644543957917387486,1,0.0,0.0,0.0,0.0,0.0,0.0,0.0,0.0,0.0,0.0,0.0,0.0,0.0,0.0,0.0,0.0,0.0,0.0,0.0,0.0,0.0,0.0,0.0,0.0,0.0,9.5222568512,-0.166713044047,-0.166713044047,0.0,0.0,0.0,0.0,0.0,0.0,0.0,0.0,0.0
1275895600,468982,1644543957919399500,1,0.0,0.0,0.0,0.0,0.0,0.0,0.0,0.0,0.0,0.0,0.0,0.0,0.0,0.0,0.0,0.0,0.0,0.0,0.0,0.0,0.0,0.0,0.0,0.0,0.0,9.53206348419,-0.166713044047,-0.176519691944,0.0,0.0,0.0,0.0,0.0,0.0,0.0,0.0,0.0
1278103200,468983,1644543957921413660,1,0.0,0.0,0.0,0.0,0.0,0.0,0.0,0.0,0.0,0.0,0.0,0.0,0.0,0.0,0.0,0.0,0.0,0.0,0.0,0.0,0.0,0.0,0.0,0.0,0.0,9.43399715424,-0.137293100357,-0.196132987738,0.0,0.0,0.0,0.0,0.0,0.0,0.0,0.0,0.0
1279836800,468984,1644543957923425436,1,0.0,0.0,0.0,0.0,0.0,0.0,0.0,0.0,0.0,0.0,0.0,0.0,0.0,0.0,0.0,0.0,0.0,0.0,0.0,0.0,0.0,0.0,0.0,0.0,0.0,9.49283695221,-0.12748645246,-0.166713044047,0.0,0.0,0.0,0.0,0.0,0.0,0.0,0.0,0.0
1282706000,468985,1644543957925439358,1,0.0,0.0,0.0,0.0,0.0,0.0,0.0,0.0,0.0,0.0,0.0,0.0,0.0,0.0,0.0,0.0,0.0,0.0,0.0,0.0,0.0,0.0,0.0,0.0,0.0,9.5222568512,-0.0980664938688,-0.176519691944,0.0,0.0,0.0,0.0,0.0,0.0,0.0,0.0,0.0
1284026600,468986,1644543957927453518,1,0.0,0.0,0.0,0.0,0.0,0.0,0.0,0.0,0.0,0.0,0.0,0.0,0.0,0.0,0.0,0.0,0.0,0.0,0.0,0.0,0.0,0.0,0.0,0.0,0.0,9.49283695221,-0.137293100357,-0.176519691944,0.0,0.0,0.0,0.0,0.0,0.0,0.0,0.0,0.0
1285883800,468987,1644543957929465532,1,0.0,0.0,0.0,0.0,0.0,0.0,0.0,0.0,0.0,0.0,0.0,0.0,0.0,0.0,0.0,0.0,0.0,0.0,0.0,0.0,0.0,0.0,0.0,0.0,0.0,9.49283695221,-0.0686465501785,-0.196132987738,0.0,0.0,0.0,0.0,0.0,0.0,0.0,0.0,0.0
1288068400,468988,1644543957931479454,1,0.0,0.0,0.0,0.0,0.0,0.0,0.0,0.0,0.0,0.0,0.0,0.0,0.0,0.0,0.0,0.0,0.0,0.0,0.0,0.0,0.0,0.0,0.0,0.0,0.0,9.53206348419,-0.137293100357,-0.225552946329,0.0,0.0,0.0,0.0,0.0,0.0,0.0,0.0,0.0
1289835000,468989,1644543957933493614,1,0.0,0.0,0.0,0.0,0.0,0.0,0.0,0.0,0.0,0.0,0.0,0.0,0.0,0.0,0.0,0.0,0.0,0.0,0.0,0.0,0.0,0.0,0.0,0.0,0.0,9.49283695221,-0.12748645246,-0.176519691944,0.0,0.0,0.0,0.0,0.0,0.0,0.0,0.0,0.0
1291846600,468990,1644543957935505629,1,0.0,0.0,0.0,0.0,0.0,0.0,0.0,0.0,0.0,0.0,0.0,0.0,0.0,0.0,0.0,0.0,0.0,0.0,0.0,0.0,0.0,0.0,0.0,0.0,0.0,9.49283695221,-0.0784531980753,-0.176519691944,0.0,0.0,0.0,0.0,0.0,0.0,0.0,0.0,0.0
1293875900,468991,1644543957937519550,1,0.0,0.0,0.0,0.0,0.0,0.0,0.0,0.0,0.0,0.0,0.0,0.0,0.0,0.0,0.0,0.0,0.0,0.0,0.0,0.0,0.0,0.0,0.0,0.0,0.0,9.5222568512,-0.137293100357,-0.166713044047,0.0,0.0,0.0,0.0,0.0,0.0,0.0,0.0,0.0
1295895600,468992,1644543957939533710,1,0.0,0.0,0.0,0.0,0.0,0.0,0.0,0.0,0.0,0.0,0.0,0.0,0.0,0.0,0.0,0.0,0.0,0.0,0.0,0.0,0.0,0.0,0.0,0.0,0.0,9.49283695221,-0.12748645246,-0.196132987738,0.0,0.0,0.0,0.0,0.0,0.0,0.0,0.0,0.0
1298154700,468993,1644543957941545725,1,0.0,0.0,0.0,0.0,0.0,0.0,0.0,0.0,0.0,0.0,0.0,0.0,0.0,0.0,0.0,0.0,0.0,0.0,0.0,0.0,0.0,0.0,0.0,0.0,0.0,9.53206348419,-0.137293100357,-0.166713044047,0.0,0.0,0.0,0.0,0.0,0.0,0.0,0.0,0.0
1300021300,468994,1644543957943559647,1,0.0,0.0,0.0,0.0,0.0,0.0,0.0,0.0,0.0,0.0,0.0,0.0,0.0,0.0,0.0,0.0,0.0,0.0,0.0,0.0,0.0,0.0,0.0,0.0,0.0,9.5222568512,-0.0980664938688,-0.176519691944,0.0,0.0,0.0,0.0,0.0,0.0,0.0,0.0,0.0
1301919700,468995,1644543957945573568,1,0.0,0.0,0.0,0.0,0.0,0.0,0.0,0.0,0.0,0.0,0.0,0.0,0.0,0.0,0.0,0.0,0.0,0.0,0.0,0.0,0.0,0.0,0.0,0.0,0.0,9.5222568512,-0.137293100357,-0.176519691944,0.0,0.0,0.0,0.0,0.0,0.0,0.0,0.0,0.0
1304151500,468996,1644543957947585583,1,0.0,0.0,0.0,0.0,0.0,0.0,0.0,0.0,0.0,0.0,0.0,0.0,0.0,0.0,0.0,0.0,0.0,0.0,0.0,0.0,0.0,0.0,0.0,0.0,0.0,9.5222568512,-0.12748645246,-0.166713044047,0.0,0.0,0.0,0.0,0.0,0.0,0.0,0.0,0.0
1306131500,468997,1644543957949599504,1,0.0,0.0,0.0,0.0,0.0,0.0,0.0,0.0,0.0,0.0,0.0,0.0,0.0,0.0,0.0,0.0,0.0,0.0,0.0,0.0,0.0,0.0,0.0,0.0,0.0,9.49283695221,-0.12748645246,-0.245166242123,0.0,0.0,0.0,0.0,0.0,0.0,0.0,0.0,0.0
1308138800,468998,1644543957951613426,1,0.0,0.0,0.0,0.0,0.0,0.0,0.0,0.0,0.0,0.0,0.0,0.0,0.0,0.0,0.0,0.0,0.0,0.0,0.0,0.0,0.0,0.0,0.0,0.0,0.0,9.53206348419,-0.12748645246,-0.166713044047,0.0,0.0,0.0,0.0,0.0,0.0,0.0,0.0,0.0
1310110900,468999,1644543957953625679,1,0.0,0.0,0.0,0.0,0.0,0.0,0.0,0.0,0.0,0.0,0.0,0.0,0.0,0.0,0.0,0.0,0.0,0.0,0.0,0.0,0.0,0.0,0.0,0.0,0.0,9.53206348419,-0.166713044047,-0.176519691944,0.0,0.0,0.0,0.0,0.0,0.0,0.0,0.0,0.0
1312234000,469000,1644543957955639601,1,0.0,0.0,0.0,0.0,0.0,0.0,0.0,0.0,0.0,0.0,0.0,0.0,0.0,0.0,0.0,0.0,0.0,0.0,0.0,0.0,0.0,0.0,0.0,0.0,0.0,9.5222568512,-0.137293100357,-0.225552946329,0.0,0.0,0.0,0.0,0.0,0.0,0.0,0.0,0.0
1314412300,469001,1644543957957653522,1,0.0,0.0,0.0,0.0,0.0,0.0,0.0,0.0,0.0,0.0,0.0,0.0,0.0,0.0,0.0,0.0,0.0,0.0,0.0,0.0,0.0,0.0,0.0,0.0,0.0,9.5222568512,-0.12748645246,-0.166713044047,0.0,0.0,0.0,0.0,0.0,0.0,0.0,0.0,0.0
1316210700,469002,1644543957959665775,1,0.0,0.0,0.0,0.0,0.0,0.0,0.0,0.0,0.0,0.0,0.0,0.0,0.0,0.0,0.0,0.0,0.0,0.0,0.0,0.0,0.0,0.0,0.0,0.0,0.0,9.5222568512,-0.166713044047,-0.225552946329,0.0,0.0,0.0,0.0,0.0,0.0,0.0,0.0,0.0
1318212600,469003,1644543957961679697,1,0.0,0.0,0.0,0.0,0.0,0.0,0.0,0.0,0.0,0.0,0.0,0.0,0.0,0.0,0.0,0.0,0.0,0.0,0.0,0.0,0.0,0.0,0.0,0.0,0.0,9.57129001617,-0.0686465501785,-0.166713044047,0.0,0.0,0.0,0.0,0.0,0.0,0.0,0.0,0.0
1320165800,469004,1644543957963693619,1,0.0,0.0,0.0,0.0,0.0,0.0,0.0,0.0,0.0,0.0,0.0,0.0,0.0,0.0,0.0,0.0,0.0,0.0,0.0,0.0,0.0,0.0,0.0,0.0,0.0,9.5222568512,-0.12748645246,-0.225552946329,0.0,0.0,0.0,0.0,0.0,0.0,0.0,0.0,0.0
1322109100,469005,1644543957965705872,1,0.0,0.0,0.0,0.0,0.0,0.0,0.0,0.0,0.0,0.0,0.0,0.0,0.0,0.0,0.0,0.0,0.0,0.0,0.0,0.0,0.0,0.0,0.0,0.0,0.0,9.5222568512,-0.137293100357,-0.176519691944,0.0,0.0,0.0,0.0,0.0,0.0,0.0,0.0,0.0
1324105700,469006,1644543957967719793,1,0.0,0.0,0.0,0.0,0.0,0.0,0.0,0.0,0.0,0.0,0.0,0.0,0.0,0.0,0.0,0.0,0.0,0.0,0.0,0.0,0.0,0.0,0.0,0.0,0.0,9.5222568512,-0.12748645246,-0.196132987738,0.0,0.0,0.0,0.0,0.0,0.0,0.0,0.0,0.0
1326087500,469007,1644543957969733715,1,0.0,0.0,0.0,0.0,0.0,0.0,0.0,0.0,0.0,0.0,0.0,0.0,0.0,0.0,0.0,0.0,0.0,0.0,0.0,0.0,0.0,0.0,0.0,0.0,0.0,9.5222568512,-0.12748645246,-0.196132987738,0.0,0.0,0.0,0.0,0.0,0.0,0.0,0.0,0.0
1328105200,469008,1644543957971745968,1,0.0,0.0,0.0,0.0,0.0,0.0,0.0,0.0,0.0,0.0,0.0,0.0,0.0,0.0,0.0,0.0,0.0,0.0,0.0,0.0,0.0,0.0,0.0,0.0,0.0,9.53206348419,-0.12748645246,-0.225552946329,0.0,0.0,0.0,0.0,0.0,0.0,0.0,0.0,0.0
1330085000,469009,1644543957973759651,1,0.0,0.0,0.0,0.0,0.0,0.0,0.0,0.0,0.0,0.0,0.0,0.0,0.0,0.0,0.0,0.0,0.0,0.0,0.0,0.0,0.0,0.0,0.0,0.0,0.0,9.53206348419,-0.166713044047,-0.176519691944,0.0,0.0,0.0,0.0,0.0,0.0,0.0,0.0,0.0
1332079300,469010,1644543957975771666,1,0.0,0.0,0.0,0.0,0.0,0.0,0.0,0.0,0.0,0.0,0.0,0.0,0.0,0.0,0.0,0.0,0.0,0.0,0.0,0.0,0.0,0.0,0.0,0.0,0.0,9.53206348419,-0.166713044047,-0.176519691944,0.0,0.0,0.0,0.0,0.0,0.0,0.0,0.0,0.0
1334198500,469011,1644543957977785826,1,0.0,0.0,0.0,0.0,0.0,0.0,0.0,0.0,0.0,0.0,0.0,0.0,0.0,0.0,0.0,0.0,0.0,0.0,0.0,0.0,0.0,0.0,0.0,0.0,0.0,9.48303031921,-0.137293100357,-0.166713044047,0.0,0.0,0.0,0.0,0.0,0.0,0.0,0.0,0.0
1336117800,469012,1644543957979799747,1,0.0,0.0,0.0,0.0,0.0,0.0,0.0,0.0,0.0,0.0,0.0,0.0,0.0,0.0,0.0,0.0,0.0,0.0,0.0,0.0,0.0,0.0,0.0,0.0,0.0,9.53206348419,-0.176519691944,-0.166713044047,0.0,0.0,0.0,0.0,0.0,0.0,0.0,0.0,0.0
1338085700,469013,1644543957981811762,1,0.0,0.0,0.0,0.0,0.0,0.0,0.0,0.0,0.0,0.0,0.0,0.0,0.0,0.0,0.0,0.0,0.0,0.0,0.0,0.0,0.0,0.0,0.0,0.0,0.0,9.5222568512,-0.196132987738,-0.196132987738,0.0,0.0,0.0,0.0,0.0,0.0,0.0,0.0,0.0
1340139300,469014,1644543957983825922,1,0.0,0.0,0.0,0.0,0.0,0.0,0.0,0.0,0.0,0.0,0.0,0.0,0.0,0.0,0.0,0.0,0.0,0.0,0.0,0.0,0.0,0.0,0.0,0.0,0.0,9.5222568512,-0.137293100357,-0.196132987738,0.0,0.0,0.0,0.0,0.0,0.0,0.0,0.0,0.0
1342096900,469015,1644543957985839844,1,0.0,0.0,0.0,0.0,0.0,0.0,0.0,0.0,0.0,0.0,0.0,0.0,0.0,0.0,0.0,0.0,0.0,0.0,0.0,0.0,0.0,0.0,0.0,0.0,0.0,9.48303031921,-0.166713044047,-0.166713044047,0.0,0.0,0.0,0.0,0.0,0.0,0.0,0.0,0.0
1344208900,469016,1644543957987851858,1,0.0,0.0,0.0,0.0,0.0,0.0,0.0,0.0,0.0,0.0,0.0,0.0,0.0,0.0,0.0,0.0,0.0,0.0,0.0,0.0,0.0,0.0,0.0,0.0,0.0,9.49283695221,-0.176519691944,-0.196132987738,0.0,0.0,0.0,0.0,0.0,0.0,0.0,0.0,0.0
1346168900,469017,1644543957989866018,1,0.0,0.0,0.0,0.0,0.0,0.0,0.0,0.0,0.0,0.0,0.0,0.0,0.0,0.0,0.0,0.0,0.0,0.0,0.0,0.0,0.0,0.0,0.0,0.0,0.0,9.53206348419,-0.176519691944,-0.225552946329,0.0,0.0,0.0,0.0,0.0,0.0,0.0,0.0,0.0
1348123700,469018,1644543957991878033,1,0.0,0.0,0.0,0.0,0.0,0.0,0.0,0.0,0.0,0.0,0.0,0.0,0.0,0.0,0.0,0.0,0.0,0.0,0.0,0.0,0.0,0.0,0.0,0.0,0.0,9.53206348419,-0.137293100357,-0.176519691944,0.0,0.0,0.0,0.0,0.0,0.0,0.0,0.0,0.0
1350366100,469019,1644543957993891954,1,0.0,0.0,0.0,0.0,0.0,0.0,0.0,0.0,0.0,0.0,0.0,0.0,0.0,0.0,0.0,0.0,0.0,0.0,0.0,0.0,0.0,0.0,0.0,0.0,0.0,9.5222568512,-0.137293100357,-0.176519691944,0.0,0.0,0.0,0.0,0.0,0.0,0.0,0.0,0.0
1352142300,469020,1644543957995903730,1,0.0,0.0,0.0,0.0,0.0,0.0,0.0,0.0,0.0,0.0,0.0,0.0,0.0,0.0,0.0,0.0,0.0,0.0,0.0,0.0,0.0,0.0,0.0,0.0,0.0,9.56148338318,-0.137293100357,-0.166713044047,0.0,0.0,0.0,0.0,0.0,0.0,0.0,0.0,0.0
1354146200,469021,1644543957997917891,1,0.0,0.0,0.0,0.0,0.0,0.0,0.0,0.0,0.0,0.0,0.0,0.0,0.0,0.0,0.0,0.0,0.0,0.0,0.0,0.0,0.0,0.0,0.0,0.0,0.0,9.5222568512,-0.176519691944,-0.196132987738,0.0,0.0,0.0,0.0,0.0,0.0,0.0,0.0,0.0
1356139800,469022,1644543957999931812,1,0.0,0.0,0.0,0.0,0.0,0.0,0.0,0.0,0.0,0.0,0.0,0.0,0.0,0.0,0.0,0.0,0.0,0.0,0.0,0.0,0.0,0.0,0.0,0.0,0.0,9.5222568512,-0.166713044047,-0.176519691944,0.0,0.0,0.0,0.0,0.0,0.0,0.0,0.0,0.0
1358466000,469023,1644543958001943827,1,0.0,0.0,0.0,0.0,0.0,0.0,0.0,0.0,0.0,0.0,0.0,0.0,0.0,0.0,0.0,0.0,0.0,0.0,0.0,0.0,0.0,0.0,0.0,0.0,0.0,9.49283695221,-0.137293100357,-0.176519691944,0.0,0.0,0.0,0.0,0.0,0.0,0.0,0.0,0.0
1360432600,469024,1644543958003957987,1,0.0,0.0,0.0,0.0,0.0,0.0,0.0,0.0,0.0,0.0,0.0,0.0,0.0,0.0,0.0,0.0,0.0,0.0,0.0,0.0,0.0,0.0,0.0,0.0,0.0,9.49283695221,-0.137293100357,-0.225552946329,0.0,0.0,0.0,0.0,0.0,0.0,0.0,0.0,0.0
1362446400,469025,1644543958005970001,1,0.0,0.0,0.0,0.0,0.0,0.0,0.0,0.0,0.0,0.0,0.0,0.0,0.0,0.0,0.0,0.0,0.0,0.0,0.0,0.0,0.0,0.0,0.0,0.0,0.0,9.5222568512,-0.166713044047,-0.176519691944,0.0,0.0,0.0,0.0,0.0,0.0,0.0,0.0,0.0
1364479300,469026,1644543958007983923,1,0.0,0.0,0.0,0.0,0.0,0.0,0.0,0.0,0.0,0.0,0.0,0.0,0.0,0.0,0.0,0.0,0.0,0.0,0.0,0.0,0.0,0.0,0.0,0.0,0.0,9.49283695221,-0.137293100357,-0.225552946329,0.0,0.0,0.0,0.0,0.0,0.0,0.0,0.0,0.0
1366367700,469027,1644543958009996176,1,0.0,0.0,0.0,0.0,0.0,0.0,0.0,0.0,0.0,0.0,0.0,0.0,0.0,0.0,0.0,0.0,0.0,0.0,0.0,0.0,0.0,0.0,0.0,0.0,0.0,9.48303031921,-0.166713044047,-0.176519691944,0.0,0.0,0.0,0.0,0.0,0.0,0.0,0.0,0.0
1368344500,469028,1644543958012010098,1,0.0,0.0,0.0,0.0,0.0,0.0,0.0,0.0,0.0,0.0,0.0,0.0,0.0,0.0,0.0,0.0,0.0,0.0,0.0,0.0,0.0,0.0,0.0,0.0,0.0,9.48303031921,-0.12748645246,-0.176519691944,0.0,0.0,0.0,0.0,0.0,0.0,0.0,0.0,0.0
1370339600,469029,1644543958014024019,1,0.0,0.0,0.0,0.0,0.0,0.0,0.0,0.0,0.0,0.0,0.0,0.0,0.0,0.0,0.0,0.0,0.0,0.0,0.0,0.0,0.0,0.0,0.0,0.0,0.0,9.56148338318,-0.12748645246,-0.196132987738,0.0,0.0,0.0,0.0,0.0,0.0,0.0,0.0,0.0
1372330400,469030,1644543958016036034,1,0.0,0.0,0.0,0.0,0.0,0.0,0.0,0.0,0.0,0.0,0.0,0.0,0.0,0.0,0.0,0.0,0.0,0.0,0.0,0.0,0.0,0.0,0.0,0.0,0.0,9.48303031921,-0.137293100357,-0.176519691944,0.0,0.0,0.0,0.0,0.0,0.0,0.0,0.0,0.0
1374781500,469031,1644543958018049955,1,0.0,0.0,0.0,0.0,0.0,0.0,0.0,0.0,0.0,0.0,0.0,0.0,0.0,0.0,0.0,0.0,0.0,0.0,0.0,0.0,0.0,0.0,0.0,0.0,0.0,9.5222568512,-0.137293100357,-0.176519691944,0.0,0.0,0.0,0.0,0.0,0.0,0.0,0.0,0.0
1376347500,469032,1644543958020063877,1,0.0,0.0,0.0,0.0,0.0,0.0,0.0,0.0,0.0,0.0,0.0,0.0,0.0,0.0,0.0,0.0,0.0,0.0,0.0,0.0,0.0,0.0,0.0,0.0,0.0,9.5222568512,-0.12748645246,-0.176519691944,0.0,0.0,0.0,0.0,0.0,0.0,0.0,0.0,0.0
1378416500,469033,1644543958022076130,1,0.0,0.0,0.0,0.0,0.0,0.0,0.0,0.0,0.0,0.0,0.0,0.0,0.0,0.0,0.0,0.0,0.0,0.0,0.0,0.0,0.0,0.0,0.0,0.0,0.0,9.53206348419,-0.166713044047,-0.176519691944,0.0,0.0,0.0,0.0,0.0,0.0,0.0,0.0,0.0
1380339600,469034,1644543958024090052,1,0.0,0.0,0.0,0.0,0.0,0.0,0.0,0.0,0.0,0.0,0.0,0.0,0.0,0.0,0.0,0.0,0.0,0.0,0.0,0.0,0.0,0.0,0.0,0.0,0.0,9.5222568512,-0.12748645246,-0.196132987738,0.0,0.0,0.0,0.0,0.0,0.0,0.0,0.0,0.0
1382332000,469035,1644543958026102066,1,0.0,0.0,0.0,0.0,0.0,0.0,0.0,0.0,0.0,0.0,0.0,0.0,0.0,0.0,0.0,0.0,0.0,0.0,0.0,0.0,0.0,0.0,0.0,0.0,0.0,9.5222568512,-0.176519691944,-0.166713044047,0.0,0.0,0.0,0.0,0.0,0.0,0.0,0.0,0.0
1384397600,469036,1644543958028116226,1,0.0,0.0,0.0,0.0,0.0,0.0,0.0,0.0,0.0,0.0,0.0,0.0,0.0,0.0,0.0,0.0,0.0,0.0,0.0,0.0,0.0,0.0,0.0,0.0,0.0,9.5222568512,-0.176519691944,-0.176519691944,0.0,0.0,0.0,0.0,0.0,0.0,0.0,0.0,0.0
1386636100,469037,1644543958030130148,1,0.0,0.0,0.0,0.0,0.0,0.0,0.0,0.0,0.0,0.0,0.0,0.0,0.0,0.0,0.0,0.0,0.0,0.0,0.0,0.0,0.0,0.0,0.0,0.0,0.0,9.53206348419,-0.166713044047,-0.176519691944,0.0,0.0,0.0,0.0,0.0,0.0,0.0,0.0,0.0
1388718000,469038,1644543958032142162,1,0.0,0.0,0.0,0.0,0.0,0.0,0.0,0.0,0.0,0.0,0.0,0.0,0.0,0.0,0.0,0.0,0.0,0.0,0.0,0.0,0.0,0.0,0.0,0.0,0.0,9.49283695221,-0.0980664938688,-0.166713044047,0.0,0.0,0.0,0.0,0.0,0.0,0.0,0.0,0.0
1390469200,469039,1644543958034156322,1,0.0,0.0,0.0,0.0,0.0,0.0,0.0,0.0,0.0,0.0,0.0,0.0,0.0,0.0,0.0,0.0,0.0,0.0,0.0,0.0,0.0,0.0,0.0,0.0,0.0,9.53206348419,-0.12748645246,-0.176519691944,0.0,0.0,0.0,0.0,0.0,0.0,0.0,0.0,0.0
1392669000,469040,1644543958036170244,1,0.0,0.0,0.0,0.0,0.0,0.0,0.0,0.0,0.0,0.0,0.0,0.0,0.0,0.0,0.0,0.0,0.0,0.0,0.0,0.0,0.0,0.0,0.0,0.0,0.0,9.5222568512,-0.176519691944,-0.166713044047,0.0,0.0,0.0,0.0,0.0,0.0,0.0,0.0,0.0
1394621300,469041,1644543958038182020,1,0.0,0.0,0.0,0.0,0.0,0.0,0.0,0.0,0.0,0.0,0.0,0.0,0.0,0.0,0.0,0.0,0.0,0.0,0.0,0.0,0.0,0.0,0.0,0.0,0.0,9.48303031921,-0.137293100357,-0.196132987738,0.0,0.0,0.0,0.0,0.0,0.0,0.0,0.0,0.0
1396634900,469042,1644543958040196180,1,0.0,0.0,0.0,0.0,0.0,0.0,0.0,0.0,0.0,0.0,0.0,0.0,0.0,0.0,0.0,0.0,0.0,0.0,0.0,0.0,0.0,0.0,0.0,0.0,0.0,9.5222568512,-0.12748645246,-0.196132987738,0.0,0.0,0.0,0.0,0.0,0.0,0.0,0.0,0.0
1398650500,469043,1644543958042208195,1,0.0,0.0,0.0,0.0,0.0,0.0,0.0,0.0,0.0,0.0,0.0,0.0,0.0,0.0,0.0,0.0,0.0,0.0,0.0,0.0,0.0,0.0,0.0,0.0,0.0,9.5222568512,-0.0980664938688,-0.225552946329,0.0,0.0,0.0,0.0,0.0,0.0,0.0,0.0,0.0
1400954500,469044,1644543958044222116,1,0.0,0.0,0.0,0.0,0.0,0.0,0.0,0.0,0.0,0.0,0.0,0.0,0.0,0.0,0.0,0.0,0.0,0.0,0.0,0.0,0.0,0.0,0.0,0.0,0.0,9.53206348419,-0.196132987738,-0.196132987738,0.0,0.0,0.0,0.0,0.0,0.0,0.0,0.0,0.0
1402625300,469045,1644543958046234131,1,0.0,0.0,0.0,0.0,0.0,0.0,0.0,0.0,0.0,0.0,0.0,0.0,0.0,0.0,0.0,0.0,0.0,0.0,0.0,0.0,0.0,0.0,0.0,0.0,0.0,9.48303031921,-0.166713044047,-0.176519691944,0.0,0.0,0.0,0.0,0.0,0.0,0.0,0.0,0.0
1404756400,469046,1644543958048248291,1,0.0,0.0,0.0,0.0,0.0,0.0,0.0,0.0,0.0,0.0,0.0,0.0,0.0,0.0,0.0,0.0,0.0,0.0,0.0,0.0,0.0,0.0,0.0,0.0,0.0,9.53206348419,-0.137293100357,-0.196132987738,0.0,0.0,0.0,0.0,0.0,0.0,0.0,0.0,0.0
1406877400,469047,1644543958050260305,1,0.0,0.0,0.0,0.0,0.0,0.0,0.0,0.0,0.0,0.0,0.0,0.0,0.0,0.0,0.0,0.0,0.0,0.0,0.0,0.0,0.0,0.0,0.0,0.0,0.0,9.49283695221,-0.137293100357,-0.196132987738,0.0,0.0,0.0,0.0,0.0,0.0,0.0,0.0,0.0
1408741500,469048,1644543958052274227,1,0.0,0.0,0.0,0.0,0.0,0.0,0.0,0.0,0.0,0.0,0.0,0.0,0.0,0.0,0.0,0.0,0.0,0.0,0.0,0.0,0.0,0.0,0.0,0.0,0.0,9.5222568512,-0.12748645246,-0.225552946329,0.0,0.0,0.0,0.0,0.0,0.0,0.0,0.0,0.0
1411021500,469049,1644543958054288387,1,0.0,0.0,0.0,0.0,0.0,0.0,0.0,0.0,0.0,0.0,0.0,0.0,0.0,0.0,0.0,0.0,0.0,0.0,0.0,0.0,0.0,0.0,0.0,0.0,0.0,9.48303031921,-0.137293100357,-0.225552946329,0.0,0.0,0.0,0.0,0.0,0.0,0.0,0.0,0.0
1412943600,469050,1644543958056300402,1,0.0,0.0,0.0,0.0,0.0,0.0,0.0,0.0,0.0,0.0,0.0,0.0,0.0,0.0,0.0,0.0,0.0,0.0,0.0,0.0,0.0,0.0,0.0,0.0,0.0,9.49283695221,-0.166713044047,-0.245166242123,0.0,0.0,0.0,0.0,0.0,0.0,0.0,0.0,0.0
1415027700,469051,1644543958058314323,1,0.0,0.0,0.0,0.0,0.0,0.0,0.0,0.0,0.0,0.0,0.0,0.0,0.0,0.0,0.0,0.0,0.0,0.0,0.0,0.0,0.0,0.0,0.0,0.0,0.0,9.53206348419,-0.0784531980753,-0.196132987738,0.0,0.0,0.0,0.0,0.0,0.0,0.0,0.0,0.0
1416985100,469052,1644543958060328484,1,0.0,0.0,0.0,0.0,0.0,0.0,0.0,0.0,0.0,0.0,0.0,0.0,0.0,0.0,0.0,0.0,0.0,0.0,0.0,0.0,0.0,0.0,0.0,0.0,0.0,9.43399715424,-0.166713044047,-0.176519691944,0.0,0.0,0.0,0.0,0.0,0.0,0.0,0.0,0.0
1419014400,469053,1644543958062340260,1,0.0,0.0,0.0,0.0,0.0,0.0,0.0,0.0,0.0,0.0,0.0,0.0,0.0,0.0,0.0,0.0,0.0,0.0,0.0,0.0,0.0,0.0,0.0,0.0,0.0,9.53206348419,-0.12748645246,-0.196132987738,0.0,0.0,0.0,0.0,0.0,0.0,0.0,0.0,0.0
1421077400,469054,1644543958064354181,1,0.0,0.0,0.0,0.0,0.0,0.0,0.0,0.0,0.0,0.0,0.0,0.0,0.0,0.0,0.0,0.0,0.0,0.0,0.0,0.0,0.0,0.0,0.0,0.0,0.0,9.5222568512,-0.12748645246,-0.196132987738,0.0,0.0,0.0,0.0,0.0,0.0,0.0,0.0,0.0
1423164800,469055,1644543958066368341,1,0.0,0.0,0.0,0.0,0.0,0.0,0.0,0.0,0.0,0.0,0.0,0.0,0.0,0.0,0.0,0.0,0.0,0.0,0.0,0.0,0.0,0.0,0.0,0.0,0.0,9.49283695221,-0.0980664938688,-0.196132987738,0.0,0.0,0.0,0.0,0.0,0.0,0.0,0.0,0.0
1425195700,469056,1644543958068380356,1,0.0,0.0,0.0,0.0,0.0,0.0,0.0,0.0,0.0,0.0,0.0,0.0,0.0,0.0,0.0,0.0,0.0,0.0,0.0,0.0,0.0,0.0,0.0,0.0,0.0,9.49283695221,-0.137293100357,-0.196132987738,0.0,0.0,0.0,0.0,0.0,0.0,0.0,0.0,0.0
1427137500,469057,1644543958070394278,1,0.0,0.0,0.0,0.0,0.0,0.0,0.0,0.0,0.0,0.0,0.0,0.0,0.0,0.0,0.0,0.0,0.0,0.0,0.0,0.0,0.0,0.0,0.0,0.0,0.0,9.5222568512,-0.137293100357,-0.225552946329,0.0,0.0,0.0,0.0,0.0,0.0,0.0,0.0,0.0
1428900800,469058,1644543958072406530,1,0.0,0.0,0.0,0.0,0.0,0.0,0.0,0.0,0.0,0.0,0.0,0.0,0.0,0.0,0.0,0.0,0.0,0.0,0.0,0.0,0.0,0.0,0.0,0.0,0.0,9.53206348419,-0.166713044047,-0.176519691944,0.0,0.0,0.0,0.0,0.0,0.0,0.0,0.0,0.0
1430897900,469059,1644543958074420452,1,0.0,0.0,0.0,0.0,0.0,0.0,0.0,0.0,0.0,0.0,0.0,0.0,0.0,0.0,0.0,0.0,0.0,0.0,0.0,0.0,0.0,0.0,0.0,0.0,0.0,9.5222568512,-0.0980664938688,-0.196132987738,0.0,0.0,0.0,0.0,0.0,0.0,0.0,0.0,0.0
1432870300,469060,1644543958076434612,1,0.0,0.0,0.0,0.0,0.0,0.0,0.0,0.0,0.0,0.0,0.0,0.0,0.0,0.0,0.0,0.0,0.0,0.0,0.0,0.0,0.0,0.0,0.0,0.0,0.0,9.49283695221,-0.12748645246,-0.225552946329,0.0,0.0,0.0,0.0,0.0,0.0,0.0,0.0,0.0
1435225900,469061,1644543958078446627,1,0.0,0.0,0.0,0.0,0.0,0.0,0.0,0.0,0.0,0.0,0.0,0.0,0.0,0.0,0.0,0.0,0.0,0.0,0.0,0.0,0.0,0.0,0.0,0.0,0.0,9.49283695221,-0.0980664938688,-0.196132987738,0.0,0.0,0.0,0.0,0.0,0.0,0.0,0.0,0.0
1436966900,469062,1644543958080460548,1,0.0,0.0,0.0,0.0,0.0,0.0,0.0,0.0,0.0,0.0,0.0,0.0,0.0,0.0,0.0,0.0,0.0,0.0,0.0,0.0,0.0,0.0,0.0,0.0,0.0,9.49283695221,-0.0980664938688,-0.225552946329,0.0,0.0,0.0,0.0,0.0,0.0,0.0,0.0,0.0
1438893800,469063,1644543958082474709,1,0.0,0.0,0.0,0.0,0.0,0.0,0.0,0.0,0.0,0.0,0.0,0.0,0.0,0.0,0.0,0.0,0.0,0.0,0.0,0.0,0.0,0.0,0.0,0.0,0.0,9.5222568512,-0.176519691944,-0.176519691944,0.0,0.0,0.0,0.0,0.0,0.0,0.0,0.0,0.0
1441115300,469064,1644543958084488630,1,0.0,0.0,0.0,0.0,0.0,0.0,0.0,0.0,0.0,0.0,0.0,0.0,0.0,0.0,0.0,0.0,0.0,0.0,0.0,0.0,0.0,0.0,0.0,0.0,0.0,9.49283695221,-0.166713044047,-0.225552946329,0.0,0.0,0.0,0.0,0.0,0.0,0.0,0.0,0.0
1442934700,469065,1644543958086500406,1,0.0,0.0,0.0,0.0,0.0,0.0,0.0,0.0,0.0,0.0,0.0,0.0,0.0,0.0,0.0,0.0,0.0,0.0,0.0,0.0,0.0,0.0,0.0,0.0,0.0,9.5222568512,-0.137293100357,-0.166713044047,0.0,0.0,0.0,0.0,0.0,0.0,0.0,0.0,0.0
1445008400,469066,1644543958088514566,1,0.0,0.0,0.0,0.0,0.0,0.0,0.0,0.0,0.0,0.0,0.0,0.0,0.0,0.0,0.0,0.0,0.0,0.0,0.0,0.0,0.0,0.0,0.0,0.0,0.0,9.49283695221,-0.12748645246,-0.245166242123,0.0,0.0,0.0,0.0,0.0,0.0,0.0,0.0,0.0
1446858700,469067,1644543958090528488,1,0.0,0.0,0.0,0.0,0.0,0.0,0.0,0.0,0.0,0.0,0.0,0.0,0.0,0.0,0.0,0.0,0.0,0.0,0.0,0.0,0.0,0.0,0.0,0.0,0.0,9.5222568512,-0.137293100357,-0.196132987738,0.0,0.0,0.0,0.0,0.0,0.0,0.0,0.0,0.0
1448846500,469068,1644543958092540503,1,0.0,0.0,0.0,0.0,0.0,0.0,0.0,0.0,0.0,0.0,0.0,0.0,0.0,0.0,0.0,0.0,0.0,0.0,0.0,0.0,0.0,0.0,0.0,0.0,0.0,9.49283695221,-0.176519691944,-0.176519691944,0.0,0.0,0.0,0.0,0.0,0.0,0.0,0.0,0.0
1450883100,469069,1644543958094554663,1,0.0,0.0,0.0,0.0,0.0,0.0,0.0,0.0,0.0,0.0,0.0,0.0,0.0,0.0,0.0,0.0,0.0,0.0,0.0,0.0,0.0,0.0,0.0,0.0,0.0,9.5222568512,-0.137293100357,-0.245166242123,0.0,0.0,0.0,0.0,0.0,0.0,0.0,0.0,0.0
1452947000,469070,1644543958096568584,1,0.0,0.0,0.0,0.0,0.0,0.0,0.0,0.0,0.0,0.0,0.0,0.0,0.0,0.0,0.0,0.0,0.0,0.0,0.0,0.0,0.0,0.0,0.0,0.0,0.0,9.53206348419,-0.12748645246,-0.176519691944,0.0,0.0,0.0,0.0,0.0,0.0,0.0,0.0,0.0
1454910900,469071,1644543958098582506,1,0.0,0.0,0.0,0.0,0.0,0.0,0.0,0.0,0.0,0.0,0.0,0.0,0.0,0.0,0.0,0.0,0.0,0.0,0.0,0.0,0.0,0.0,0.0,0.0,0.0,9.5222568512,-0.137293100357,-0.166713044047,0.0,0.0,0.0,0.0,0.0,0.0,0.0,0.0,0.0
1456840000,469072,1644543958100594759,1,0.0,0.0,0.0,0.0,0.0,0.0,0.0,0.0,0.0,0.0,0.0,0.0,0.0,0.0,0.0,0.0,0.0,0.0,0.0,0.0,0.0,0.0,0.0,0.0,0.0,9.5222568512,-0.12748645246,-0.166713044047,0.0,0.0,0.0,0.0,0.0,0.0,0.0,0.0,0.0
1458834600,469073,1644543958102608681,1,0.0,0.0,0.0,0.0,0.0,0.0,0.0,0.0,0.0,0.0,0.0,0.0,0.0,0.0,0.0,0.0,0.0,0.0,0.0,0.0,0.0,0.0,0.0,0.0,0.0,9.53206348419,-0.12748645246,-0.225552946329,0.0,0.0,0.0,0.0,0.0,0.0,0.0,0.0,0.0
1460821800,469074,1644543958104622841,1,0.0,0.0,0.0,0.0,0.0,0.0,0.0,0.0,0.0,0.0,0.0,0.0,0.0,0.0,0.0,0.0,0.0,0.0,0.0,0.0,0.0,0.0,0.0,0.0,0.0,9.49283695221,-0.0980664938688,-0.176519691944,0.0,0.0,0.0,0.0,0.0,0.0,0.0,0.0,0.0
1462861800,469075,1644543958106634855,1,0.0,0.0,0.0,0.0,0.0,0.0,0.0,0.0,0.0,0.0,0.0,0.0,0.0,0.0,0.0,0.0,0.0,0.0,0.0,0.0,0.0,0.0,0.0,0.0,0.0,9.53206348419,-0.0784531980753,-0.196132987738,0.0,0.0,0.0,0.0,0.0,0.0,0.0,0.0,0.0
1465020100,469076,1644543958108648777,1,0.0,0.0,0.0,0.0,0.0,0.0,0.0,0.0,0.0,0.0,0.0,0.0,0.0,0.0,0.0,0.0,0.0,0.0,0.0,0.0,0.0,0.0,0.0,0.0,0.0,9.53206348419,-0.0784531980753,-0.196132987738,0.0,0.0,0.0,0.0,0.0,0.0,0.0,0.0,0.0
1467106100,469077,1644543958110660553,1,0.0,0.0,0.0,0.0,0.0,0.0,0.0,0.0,0.0,0.0,0.0,0.0,0.0,0.0,0.0,0.0,0.0,0.0,0.0,0.0,0.0,0.0,0.0,0.0,0.0,9.48303031921,-0.12748645246,-0.196132987738,0.0,0.0,0.0,0.0,0.0,0.0,0.0,0.0,0.0
1468934900,469078,1644543958112674713,1,0.0,0.0,0.0,0.0,0.0,0.0,0.0,0.0,0.0,0.0,0.0,0.0,0.0,0.0,0.0,0.0,0.0,0.0,0.0,0.0,0.0,0.0,0.0,0.0,0.0,9.49283695221,-0.0980664938688,-0.225552946329,0.0,0.0,0.0,0.0,0.0,0.0,0.0,0.0,0.0
1470894100,469079,1644543958114688635,1,0.0,0.0,0.0,0.0,0.0,0.0,0.0,0.0,0.0,0.0,0.0,0.0,0.0,0.0,0.0,0.0,0.0,0.0,0.0,0.0,0.0,0.0,0.0,0.0,0.0,9.5222568512,-0.12748645246,-0.176519691944,0.0,0.0,0.0,0.0,0.0,0.0,0.0,0.0,0.0
1473374100,469080,1644543958116700649,1,0.0,0.0,0.0,0.0,0.0,0.0,0.0,0.0,0.0,0.0,0.0,0.0,0.0,0.0,0.0,0.0,0.0,0.0,0.0,0.0,0.0,0.0,0.0,0.0,0.0,9.49283695221,-0.0784531980753,-0.166713044047,0.0,0.0,0.0,0.0,0.0,0.0,0.0,0.0,0.0
1475255000,469081,1644543958118714809,1,0.0,0.0,0.0,0.0,0.0,0.0,0.0,0.0,0.0,0.0,0.0,0.0,0.0,0.0,0.0,0.0,0.0,0.0,0.0,0.0,0.0,0.0,0.0,0.0,0.0,9.53206348419,-0.0980664938688,-0.196132987738,0.0,0.0,0.0,0.0,0.0,0.0,0.0,0.0,0.0
1477448800,469082,1644543958120728731,1,0.0,0.0,0.0,0.0,0.0,0.0,0.0,0.0,0.0,0.0,0.0,0.0,0.0,0.0,0.0,0.0,0.0,0.0,0.0,0.0,0.0,0.0,0.0,0.0,0.0,9.53206348419,-0.0980664938688,-0.176519691944,0.0,0.0,0.0,0.0,0.0,0.0,0.0,0.0,0.0
1479220500,469083,1644543958122740746,1,0.0,0.0,0.0,0.0,0.0,0.0,0.0,0.0,0.0,0.0,0.0,0.0,0.0,0.0,0.0,0.0,0.0,0.0,0.0,0.0,0.0,0.0,0.0,0.0,0.0,9.57129001617,-0.0784531980753,-0.176519691944,0.0,0.0,0.0,0.0,0.0,0.0,0.0,0.0,0.0
1481480700,469084,1644543958124754906,1,0.0,0.0,0.0,0.0,0.0,0.0,0.0,0.0,0.0,0.0,0.0,0.0,0.0,0.0,0.0,0.0,0.0,0.0,0.0,0.0,0.0,0.0,0.0,0.0,0.0,9.56148338318,-0.0686465501785,-0.225552946329,0.0,0.0,0.0,0.0,0.0,0.0,0.0,0.0,0.0
1483437900,469085,1644543958126766920,1,0.0,0.0,0.0,0.0,0.0,0.0,0.0,0.0,0.0,0.0,0.0,0.0,0.0,0.0,0.0,0.0,0.0,0.0,0.0,0.0,0.0,0.0,0.0,0.0,0.0,9.5222568512,-0.0686465501785,-0.176519691944,0.0,0.0,0.0,0.0,0.0,0.0,0.0,0.0,0.0
1485165800,469086,1644543958128781080,1,0.0,0.0,0.0,0.0,0.0,0.0,0.0,0.0,0.0,0.0,0.0,0.0,0.0,0.0,0.0,0.0,0.0,0.0,0.0,0.0,0.0,0.0,0.0,0.0,0.0,9.56148338318,-0.0392265990376,-0.176519691944,0.0,0.0,0.0,0.0,0.0,0.0,0.0,0.0,0.0
1487057500,469087,1644543958130792856,1,0.0,0.0,0.0,0.0,0.0,0.0,0.0,0.0,0.0,0.0,0.0,0.0,0.0,0.0,0.0,0.0,0.0,0.0,0.0,0.0,0.0,0.0,0.0,0.0,0.0,9.56148338318,-0.00980664975941,-0.176519691944,0.0,0.0,0.0,0.0,0.0,0.0,0.0,0.0,0.0
1489076100,469088,1644543958132806778,1,0.0,0.0,0.0,0.0,0.0,0.0,0.0,0.0,0.0,0.0,0.0,0.0,0.0,0.0,0.0,0.0,0.0,0.0,0.0,0.0,0.0,0.0,0.0,0.0,0.0,9.53206348419,-0.0784531980753,-0.225552946329,0.0,0.0,0.0,0.0,0.0,0.0,0.0,0.0,0.0
1491080600,469089,1644543958134820938,1,0.0,0.0,0.0,0.0,0.0,0.0,0.0,0.0,0.0,0.0,0.0,0.0,0.0,0.0,0.0,0.0,0.0,0.0,0.0,0.0,0.0,0.0,0.0,0.0,0.0,9.49283695221,-0.0784531980753,-0.166713044047,0.0,0.0,0.0,0.0,0.0,0.0,0.0,0.0,0.0
1493050700,469090,1644543958136832952,1,0.0,0.0,0.0,0.0,0.0,0.0,0.0,0.0,0.0,0.0,0.0,0.0,0.0,0.0,0.0,0.0,0.0,0.0,0.0,0.0,0.0,0.0,0.0,0.0,0.0,9.57129001617,-0.0686465501785,-0.196132987738,0.0,0.0,0.0,0.0,0.0,0.0,0.0,0.0,0.0
1495160600,469091,1644543958138846874,1,0.0,0.0,0.0,0.0,0.0,0.0,0.0,0.0,0.0,0.0,0.0,0.0,0.0,0.0,0.0,0.0,0.0,0.0,0.0,0.0,0.0,0.0,0.0,0.0,0.0,9.57129001617,-0.0686465501785,-0.176519691944,0.0,0.0,0.0,0.0,0.0,0.0,0.0,0.0,0.0
1497122000,469092,1644543958140858889,1,0.0,0.0,0.0,0.0,0.0,0.0,0.0,0.0,0.0,0.0,0.0,0.0,0.0,0.0,0.0,0.0,0.0,0.0,0.0,0.0,0.0,0.0,0.0,0.0,0.0,9.56148338318,-0.0980664938688,-0.166713044047,0.0,0.0,0.0,0.0,0.0,0.0,0.0,0.0,0.0
1499062400,469093,1644543958142873049,1,0.0,0.0,0.0,0.0,0.0,0.0,0.0,0.0,0.0,0.0,0.0,0.0,0.0,0.0,0.0,0.0,0.0,0.0,0.0,0.0,0.0,0.0,0.0,0.0,0.0,9.56148338318,-0.0980664938688,-0.196132987738,0.0,0.0,0.0,0.0,0.0,0.0,0.0,0.0,0.0
1501087700,469094,1644543958144886971,1,0.0,0.0,0.0,0.0,0.0,0.0,0.0,0.0,0.0,0.0,0.0,0.0,0.0,0.0,0.0,0.0,0.0,0.0,0.0,0.0,0.0,0.0,0.0,0.0,0.0,9.56148338318,-0.0294199492782,-0.176519691944,0.0,0.0,0.0,0.0,0.0,0.0,0.0,0.0,0.0
1503181300,469095,1644543958146899223,1,0.0,0.0,0.0,0.0,0.0,0.0,0.0,0.0,0.0,0.0,0.0,0.0,0.0,0.0,0.0,0.0,0.0,0.0,0.0,0.0,0.0,0.0,0.0,0.0,0.0,9.5222568512,-0.0686465501785,-0.166713044047,0.0,0.0,0.0,0.0,0.0,0.0,0.0,0.0,0.0
1505287100,469096,1644543958148913145,1,0.0,0.0,0.0,0.0,0.0,0.0,0.0,0.0,0.0,0.0,0.0,0.0,0.0,0.0,0.0,0.0,0.0,0.0,0.0,0.0,0.0,0.0,0.0,0.0,0.0,9.53206348419,-0.00980664975941,-0.166713044047,0.0,0.0,0.0,0.0,0.0,0.0,0.0,0.0,0.0
1507388500,469097,1644543958150925159,1,0.0,0.0,0.0,0.0,0.0,0.0,0.0,0.0,0.0,0.0,0.0,0.0,0.0,0.0,0.0,0.0,0.0,0.0,0.0,0.0,0.0,0.0,0.0,0.0,0.0,9.56148338318,-0.00980664975941,-0.196132987738,0.0,0.0,0.0,0.0,0.0,0.0,0.0,0.0,0.0
1509429200,469098,1644543958152939320,1,0.0,0.0,0.0,0.0,0.0,0.0,0.0,0.0,0.0,0.0,0.0,0.0,0.0,0.0,0.0,0.0,0.0,0.0,0.0,0.0,0.0,0.0,0.0,0.0,0.0,9.53206348419,-0.0784531980753,-0.176519691944,0.0,0.0,0.0,0.0,0.0,0.0,0.0,0.0,0.0
1511470900,469099,1644543958154951096,1,0.0,0.0,0.0,0.0,0.0,0.0,0.0,0.0,0.0,0.0,0.0,0.0,0.0,0.0,0.0,0.0,0.0,0.0,0.0,0.0,0.0,0.0,0.0,0.0,0.0,9.53206348419,-0.0784531980753,-0.176519691944,0.0,0.0,0.0,0.0,0.0,0.0,0.0,0.0,0.0
1513508800,469100,1644543958156965017,1,0.0,0.0,0.0,0.0,0.0,0.0,0.0,0.0,0.0,0.0,0.0,0.0,0.0,0.0,0.0,0.0,0.0,0.0,0.0,0.0,0.0,0.0,0.0,0.0,0.0,9.53206348419,-0.0980664938688,-0.196132987738,0.0,0.0,0.0,0.0,0.0,0.0,0.0,0.0,0.0
1515385000,469101,1644543958158977032,1,0.0,0.0,0.0,0.0,0.0,0.0,0.0,0.0,0.0,0.0,0.0,0.0,0.0,0.0,0.0,0.0,0.0,0.0,0.0,0.0,0.0,0.0,0.0,0.0,0.0,9.58109664917,-0.0784531980753,-0.176519691944,0.0,0.0,0.0,0.0,0.0,0.0,0.0,0.0,0.0
1517372600,469102,1644543958160991192,1,0.0,0.0,0.0,0.0,0.0,0.0,0.0,0.0,0.0,0.0,0.0,0.0,0.0,0.0,0.0,0.0,0.0,0.0,0.0,0.0,0.0,0.0,0.0,0.0,0.0,9.53206348419,-0.0392265990376,-0.264779537916,0.0,0.0,0.0,0.0,0.0,0.0,0.0,0.0,0.0
1519344600,469103,1644543958163005114,1,0.0,0.0,0.0,0.0,0.0,0.0,0.0,0.0,0.0,0.0,0.0,0.0,0.0,0.0,0.0,0.0,0.0,0.0,0.0,0.0,0.0,0.0,0.0,0.0,0.0,9.53206348419,-0.0392265990376,-0.176519691944,0.0,0.0,0.0,0.0,0.0,0.0,0.0,0.0,0.0
1521586800,469104,1644543958165017366,1,0.0,0.0,0.0,0.0,0.0,0.0,0.0,0.0,0.0,0.0,0.0,0.0,0.0,0.0,0.0,0.0,0.0,0.0,0.0,0.0,0.0,0.0,0.0,0.0,0.0,9.53206348419,-0.0392265990376,-0.176519691944,0.0,0.0,0.0,0.0,0.0,0.0,0.0,0.0,0.0
1523606000,469105,1644543958167031288,1,0.0,0.0,0.0,0.0,0.0,0.0,0.0,0.0,0.0,0.0,0.0,0.0,0.0,0.0,0.0,0.0,0.0,0.0,0.0,0.0,0.0,0.0,0.0,0.0,0.0,9.49283695221,-0.0392265990376,-0.245166242123,0.0,0.0,0.0,0.0,0.0,0.0,0.0,0.0,0.0
1525754100,469106,1644543958169043303,1,0.0,0.0,0.0,0.0,0.0,0.0,0.0,0.0,0.0,0.0,0.0,0.0,0.0,0.0,0.0,0.0,0.0,0.0,0.0,0.0,0.0,0.0,0.0,0.0,0.0,9.53206348419,-0.0392265990376,-0.225552946329,0.0,0.0,0.0,0.0,0.0,0.0,0.0,0.0,0.0
1527631200,469107,1644543958171057463,1,0.0,0.0,0.0,0.0,0.0,0.0,0.0,0.0,0.0,0.0,0.0,0.0,0.0,0.0,0.0,0.0,0.0,0.0,0.0,0.0,0.0,0.0,0.0,0.0,0.0,9.53206348419,-0.0686465501785,-0.245166242123,0.0,0.0,0.0,0.0,0.0,0.0,0.0,0.0,0.0
1529633000,469108,1644543958173069239,1,0.0,0.0,0.0,0.0,0.0,0.0,0.0,0.0,0.0,0.0,0.0,0.0,0.0,0.0,0.0,0.0,0.0,0.0,0.0,0.0,0.0,0.0,0.0,0.0,0.0,9.56148338318,-0.0686465501785,-0.225552946329,0.0,0.0,0.0,0.0,0.0,0.0,0.0,0.0,0.0
1531585900,469109,1644543958175083160,1,0.0,0.0,0.0,0.0,0.0,0.0,0.0,0.0,0.0,0.0,0.0,0.0,0.0,0.0,0.0,0.0,0.0,0.0,0.0,0.0,0.0,0.0,0.0,0.0,0.0,9.53206348419,-0.0784531980753,-0.245166242123,0.0,0.0,0.0,0.0,0.0,0.0,0.0,0.0,0.0
1533626800,469110,1644543958177097321,1,0.0,0.0,0.0,0.0,0.0,0.0,0.0,0.0,0.0,0.0,0.0,0.0,0.0,0.0,0.0,0.0,0.0,0.0,0.0,0.0,0.0,0.0,0.0,0.0,0.0,9.53206348419,-0.0294199492782,-0.196132987738,0.0,0.0,0.0,0.0,0.0,0.0,0.0,0.0,0.0
1535668400,469111,1644543958179109335,1,0.0,0.0,0.0,0.0,0.0,0.0,0.0,0.0,0.0,0.0,0.0,0.0,0.0,0.0,0.0,0.0,0.0,0.0,0.0,0.0,0.0,0.0,0.0,0.0,0.0,9.53206348419,-0.00980664975941,-0.196132987738,0.0,0.0,0.0,0.0,0.0,0.0,0.0,0.0,0.0
1537822200,469112,1644543958181121349,1,0.0,0.0,0.0,0.0,0.0,0.0,0.0,0.0,0.0,0.0,0.0,0.0,0.0,0.0,0.0,0.0,0.0,0.0,0.0,0.0,0.0,0.0,0.0,0.0,0.0,9.5222568512,-0.00980664975941,-0.196132987738,0.0,0.0,0.0,0.0,0.0,0.0,0.0,0.0,0.0
1539718400,469113,1644543958183135509,1,0.0,0.0,0.0,0.0,0.0,0.0,0.0,0.0,0.0,0.0,0.0,0.0,0.0,0.0,0.0,0.0,0.0,0.0,0.0,0.0,0.0,0.0,0.0,0.0,0.0,9.56148338318,-0.0392265990376,-0.196132987738,0.0,0.0,0.0,0.0,0.0,0.0,0.0,0.0,0.0
1541737700,469114,1644543958185149431,1,0.0,0.0,0.0,0.0,0.0,0.0,0.0,0.0,0.0,0.0,0.0,0.0,0.0,0.0,0.0,0.0,0.0,0.0,0.0,0.0,0.0,0.0,0.0,0.0,0.0,9.53206348419,-0.0294199492782,-0.196132987738,0.0,0.0,0.0,0.0,0.0,0.0,0.0,0.0,0.0
1545122100,469115,1644543958187163353,1,0.0,0.0,0.0,0.0,0.0,0.0,0.0,0.0,0.0,0.0,0.0,0.0,0.0,0.0,0.0,0.0,0.0,0.0,0.0,0.0,0.0,0.0,0.0,0.0,0.0,9.56148338318,-0.00980664975941,-0.176519691944,0.0,0.0,0.0,0.0,0.0,0.0,0.0,0.0,0.0
1545856400,469116,1644543958189175606,1,0.0,0.0,0.0,0.0,0.0,0.0,0.0,0.0,0.0,0.0,0.0,0.0,0.0,0.0,0.0,0.0,0.0,0.0,0.0,0.0,0.0,0.0,0.0,0.0,0.0,9.57129001617,-0.00980664975941,-0.225552946329,0.0,0.0,0.0,0.0,0.0,0.0,0.0,0.0,0.0
1547696000,469117,1644543958191189528,1,0.0,0.0,0.0,0.0,0.0,0.0,0.0,0.0,0.0,0.0,0.0,0.0,0.0,0.0,0.0,0.0,0.0,0.0,0.0,0.0,0.0,0.0,0.0,0.0,0.0,9.56148338318,-0.0294199492782,-0.225552946329,0.0,0.0,0.0,0.0,0.0,0.0,0.0,0.0,0.0
1549648900,469118,1644543958193203449,1,0.0,0.0,0.0,0.0,0.0,0.0,0.0,0.0,0.0,0.0,0.0,0.0,0.0,0.0,0.0,0.0,0.0,0.0,0.0,0.0,0.0,0.0,0.0,0.0,0.0,9.58109664917,-0.0392265990376,-0.176519691944,0.0,0.0,0.0,0.0,0.0,0.0,0.0,0.0,0.0
1551730700,469119,1644543958195215225,1,0.0,0.0,0.0,0.0,0.0,0.0,0.0,0.0,0.0,0.0,0.0,0.0,0.0,0.0,0.0,0.0,0.0,0.0,0.0,0.0,0.0,0.0,0.0,0.0,0.0,9.49283695221,-0.0294199492782,-0.196132987738,0.0,0.0,0.0,0.0,0.0,0.0,0.0,0.0,0.0
1553617400,469120,1644543958197227240,1,0.0,0.0,0.0,0.0,0.0,0.0,0.0,0.0,0.0,0.0,0.0,0.0,0.0,0.0,0.0,0.0,0.0,0.0,0.0,0.0,0.0,0.0,0.0,0.0,0.0,9.57129001617,0.0392265990376,-0.196132987738,0.0,0.0,0.0,0.0,0.0,0.0,0.0,0.0,0.0
1555632400,469121,1644543958199241161,1,0.0,0.0,0.0,0.0,0.0,0.0,0.0,0.0,0.0,0.0,0.0,0.0,0.0,0.0,0.0,0.0,0.0,0.0,0.0,0.0,0.0,0.0,0.0,0.0,0.0,9.53206348419,0.0,-0.225552946329,0.0,0.0,0.0,0.0,0.0,0.0,0.0,0.0,0.0
1557575200,469122,1644543958201253176,1,0.0,0.0,0.0,0.0,0.0,0.0,0.0,0.0,0.0,0.0,0.0,0.0,0.0,0.0,0.0,0.0,0.0,0.0,0.0,0.0,0.0,0.0,0.0,0.0,0.0,9.56148338318,0.00980664975941,-0.196132987738,0.0,0.0,0.0,0.0,0.0,0.0,0.0,0.0,0.0
1559690600,469123,1644543958203267336,1,0.0,0.0,0.0,0.0,0.0,0.0,0.0,0.0,0.0,0.0,0.0,0.0,0.0,0.0,0.0,0.0,0.0,0.0,0.0,0.0,0.0,0.0,0.0,0.0,0.0,9.5222568512,0.0,-0.196132987738,0.0,0.0,0.0,0.0,0.0,0.0,0.0,0.0,0.0
1561685400,469124,1644543958205279350,1,0.0,0.0,0.0,0.0,0.0,0.0,0.0,0.0,0.0,0.0,0.0,0.0,0.0,0.0,0.0,0.0,0.0,0.0,0.0,0.0,0.0,0.0,0.0,0.0,0.0,9.49283695221,0.0,-0.196132987738,0.0,0.0,0.0,0.0,0.0,0.0,0.0,0.0,0.0
1563607400,469125,1644543958207295179,1,0.0,0.0,0.0,0.0,0.0,0.0,0.0,0.0,0.0,0.0,0.0,0.0,0.0,0.0,0.0,0.0,0.0,0.0,0.0,0.0,0.0,0.0,0.0,0.0,0.0,9.56148338318,-0.00980664975941,-0.196132987738,0.0,0.0,0.0,0.0,0.0,0.0,0.0,0.0,0.0
1565655800,469126,1644543958209307194,1,0.0,0.0,0.0,0.0,0.0,0.0,0.0,0.0,0.0,0.0,0.0,0.0,0.0,0.0,0.0,0.0,0.0,0.0,0.0,0.0,0.0,0.0,0.0,0.0,0.0,9.49283695221,0.0392265990376,-0.196132987738,0.0,0.0,0.0,0.0,0.0,0.0,0.0,0.0,0.0
1567645600,469127,1644543958211321115,1,0.0,0.0,0.0,0.0,0.0,0.0,0.0,0.0,0.0,0.0,0.0,0.0,0.0,0.0,0.0,0.0,0.0,0.0,0.0,0.0,0.0,0.0,0.0,0.0,0.0,9.58109664917,0.0,-0.166713044047,0.0,0.0,0.0,0.0,0.0,0.0,0.0,0.0,0.0
1569816700,469128,1644543958213335037,1,0.0,0.0,0.0,0.0,0.0,0.0,0.0,0.0,0.0,0.0,0.0,0.0,0.0,0.0,0.0,0.0,0.0,0.0,0.0,0.0,0.0,0.0,0.0,0.0,0.0,9.56148338318,-0.0294199492782,-0.196132987738,0.0,0.0,0.0,0.0,0.0,0.0,0.0,0.0,0.0
1571753900,469129,1644543958215346813,1,0.0,0.0,0.0,0.0,0.0,0.0,0.0,0.0,0.0,0.0,0.0,0.0,0.0,0.0,0.0,0.0,0.0,0.0,0.0,0.0,0.0,0.0,0.0,0.0,0.0,9.49283695221,0.0,-0.176519691944,0.0,0.0,0.0,0.0,0.0,0.0,0.0,0.0,0.0
1573861000,469130,1644543958217360973,1,0.0,0.0,0.0,0.0,0.0,0.0,0.0,0.0,0.0,0.0,0.0,0.0,0.0,0.0,0.0,0.0,0.0,0.0,0.0,0.0,0.0,0.0,0.0,0.0,0.0,9.57129001617,0.00980664975941,-0.176519691944,0.0,0.0,0.0,0.0,0.0,0.0,0.0,0.0,0.0
1575741000,469131,1644543958219372988,1,0.0,0.0,0.0,0.0,0.0,0.0,0.0,0.0,0.0,0.0,0.0,0.0,0.0,0.0,0.0,0.0,0.0,0.0,0.0,0.0,0.0,0.0,0.0,0.0,0.0,9.56148338318,0.0294199492782,-0.176519691944,0.0,0.0,0.0,0.0,0.0,0.0,0.0,0.0,0.0
1577702700,469132,1644543958221386909,1,0.0,0.0,0.0,0.0,0.0,0.0,0.0,0.0,0.0,0.0,0.0,0.0,0.0,0.0,0.0,0.0,0.0,0.0,0.0,0.0,0.0,0.0,0.0,0.0,0.0,9.58109664917,0.0,-0.176519691944,0.0,0.0,0.0,0.0,0.0,0.0,0.0,0.0,0.0
1579684900,469133,1644543958223398924,1,0.0,0.0,0.0,0.0,0.0,0.0,0.0,0.0,0.0,0.0,0.0,0.0,0.0,0.0,0.0,0.0,0.0,0.0,0.0,0.0,0.0,0.0,0.0,0.0,0.0,9.56148338318,0.0294199492782,-0.176519691944,0.0,0.0,0.0,0.0,0.0,0.0,0.0,0.0,0.0
1581629500,469134,1644543958225412846,1,0.0,0.0,0.0,0.0,0.0,0.0,0.0,0.0,0.0,0.0,0.0,0.0,0.0,0.0,0.0,0.0,0.0,0.0,0.0,0.0,0.0,0.0,0.0,0.0,0.0,9.56148338318,0.00980664975941,-0.176519691944,0.0,0.0,0.0,0.0,0.0,0.0,0.0,0.0,0.0
1583739300,469135,1644543958227424860,1,0.0,0.0,0.0,0.0,0.0,0.0,0.0,0.0,0.0,0.0,0.0,0.0,0.0,0.0,0.0,0.0,0.0,0.0,0.0,0.0,0.0,0.0,0.0,0.0,0.0,9.56148338318,0.0,-0.176519691944,0.0,0.0,0.0,0.0,0.0,0.0,0.0,0.0,0.0
1585614900,469136,1644543958229438782,1,0.0,0.0,0.0,0.0,0.0,0.0,0.0,0.0,0.0,0.0,0.0,0.0,0.0,0.0,0.0,0.0,0.0,0.0,0.0,0.0,0.0,0.0,0.0,0.0,0.0,9.57129001617,0.0,-0.166713044047,0.0,0.0,0.0,0.0,0.0,0.0,0.0,0.0,0.0
1587869400,469137,1644543958231452942,1,0.0,0.0,0.0,0.0,0.0,0.0,0.0,0.0,0.0,0.0,0.0,0.0,0.0,0.0,0.0,0.0,0.0,0.0,0.0,0.0,0.0,0.0,0.0,0.0,0.0,9.53206348419,-0.00980664975941,-0.176519691944,0.0,0.0,0.0,0.0,0.0,0.0,0.0,0.0,0.0
1589832700,469138,1644543958233466864,1,0.0,0.0,0.0,0.0,0.0,0.0,0.0,0.0,0.0,0.0,0.0,0.0,0.0,0.0,0.0,0.0,0.0,0.0,0.0,0.0,0.0,0.0,0.0,0.0,0.0,9.53206348419,-0.0294199492782,-0.196132987738,0.0,0.0,0.0,0.0,0.0,0.0,0.0,0.0,0.0
1591822000,469139,1644543958235480785,1,0.0,0.0,0.0,0.0,0.0,0.0,0.0,0.0,0.0,0.0,0.0,0.0,0.0,0.0,0.0,0.0,0.0,0.0,0.0,0.0,0.0,0.0,0.0,0.0,0.0,9.5222568512,-0.0294199492782,-0.176519691944,0.0,0.0,0.0,0.0,0.0,0.0,0.0,0.0,0.0
1593816000,469140,1644543958237492561,1,0.0,0.0,0.0,0.0,0.0,0.0,0.0,0.0,0.0,0.0,0.0,0.0,0.0,0.0,0.0,0.0,0.0,0.0,0.0,0.0,0.0,0.0,0.0,0.0,0.0,9.49283695221,-0.0294199492782,-0.196132987738,0.0,0.0,0.0,0.0,0.0,0.0,0.0,0.0,0.0
1595836500,469141,1644543958239506483,1,0.0,0.0,0.0,0.0,0.0,0.0,0.0,0.0,0.0,0.0,0.0,0.0,0.0,0.0,0.0,0.0,0.0,0.0,0.0,0.0,0.0,0.0,0.0,0.0,0.0,9.57129001617,-0.0686465501785,-0.176519691944,0.0,0.0,0.0,0.0,0.0,0.0,0.0,0.0,0.0
1597816400,469142,1644543958241520643,1,0.0,0.0,0.0,0.0,0.0,0.0,0.0,0.0,0.0,0.0,0.0,0.0,0.0,0.0,0.0,0.0,0.0,0.0,0.0,0.0,0.0,0.0,0.0,0.0,0.0,9.5222568512,-0.0686465501785,-0.166713044047,0.0,0.0,0.0,0.0,0.0,0.0,0.0,0.0,0.0
1599843800,469143,1644543958243532658,1,0.0,0.0,0.0,0.0,0.0,0.0,0.0,0.0,0.0,0.0,0.0,0.0,0.0,0.0,0.0,0.0,0.0,0.0,0.0,0.0,0.0,0.0,0.0,0.0,0.0,9.53206348419,-0.0392265990376,-0.176519691944,0.0,0.0,0.0,0.0,0.0,0.0,0.0,0.0,0.0
1602128800,469144,1644543958245546579,1,0.0,0.0,0.0,0.0,0.0,0.0,0.0,0.0,0.0,0.0,0.0,0.0,0.0,0.0,0.0,0.0,0.0,0.0,0.0,0.0,0.0,0.0,0.0,0.0,0.0,9.56148338318,-0.0686465501785,-0.176519691944,0.0,0.0,0.0,0.0,0.0,0.0,0.0,0.0,0.0
1604157100,469145,1644543958247560740,1,0.0,0.0,0.0,0.0,0.0,0.0,0.0,0.0,0.0,0.0,0.0,0.0,0.0,0.0,0.0,0.0,0.0,0.0,0.0,0.0,0.0,0.0,0.0,0.0,0.0,9.56148338318,-0.0784531980753,-0.196132987738,0.0,0.0,0.0,0.0,0.0,0.0,0.0,0.0,0.0
1606018500,469146,1644543958249574661,1,0.0,0.0,0.0,0.0,0.0,0.0,0.0,0.0,0.0,0.0,0.0,0.0,0.0,0.0,0.0,0.0,0.0,0.0,0.0,0.0,0.0,0.0,0.0,0.0,0.0,9.5222568512,-0.0784531980753,-0.196132987738,0.0,0.0,0.0,0.0,0.0,0.0,0.0,0.0,0.0
1607873600,469147,1644543958251586676,1,0.0,0.0,0.0,0.0,0.0,0.0,0.0,0.0,0.0,0.0,0.0,0.0,0.0,0.0,0.0,0.0,0.0,0.0,0.0,0.0,0.0,0.0,0.0,0.0,0.0,9.49283695221,-0.0784531980753,-0.196132987738,0.0,0.0,0.0,0.0,0.0,0.0,0.0,0.0,0.0
1609923600,469148,1644543958253600836,1,0.0,0.0,0.0,0.0,0.0,0.0,0.0,0.0,0.0,0.0,0.0,0.0,0.0,0.0,0.0,0.0,0.0,0.0,0.0,0.0,0.0,0.0,0.0,0.0,0.0,9.56148338318,-0.0980664938688,-0.166713044047,0.0,0.0,0.0,0.0,0.0,0.0,0.0,0.0,0.0
1611894900,469149,1644543958255614758,1,0.0,0.0,0.0,0.0,0.0,0.0,0.0,0.0,0.0,0.0,0.0,0.0,0.0,0.0,0.0,0.0,0.0,0.0,0.0,0.0,0.0,0.0,0.0,0.0,0.0,9.56148338318,-0.12748645246,-0.176519691944,0.0,0.0,0.0,0.0,0.0,0.0,0.0,0.0,0.0
1613880900,469150,1644543958257628679,1,0.0,0.0,0.0,0.0,0.0,0.0,0.0,0.0,0.0,0.0,0.0,0.0,0.0,0.0,0.0,0.0,0.0,0.0,0.0,0.0,0.0,0.0,0.0,0.0,0.0,9.53206348419,-0.0784531980753,-0.176519691944,0.0,0.0,0.0,0.0,0.0,0.0,0.0,0.0,0.0
1615883800,469151,1644543958259640694,1,0.0,0.0,0.0,0.0,0.0,0.0,0.0,0.0,0.0,0.0,0.0,0.0,0.0,0.0,0.0,0.0,0.0,0.0,0.0,0.0,0.0,0.0,0.0,0.0,0.0,9.53206348419,-0.12748645246,-0.196132987738,0.0,0.0,0.0,0.0,0.0,0.0,0.0,0.0,0.0
1617948500,469152,1644543958261654854,1,0.0,0.0,0.0,0.0,0.0,0.0,0.0,0.0,0.0,0.0,0.0,0.0,0.0,0.0,0.0,0.0,0.0,0.0,0.0,0.0,0.0,0.0,0.0,0.0,0.0,9.5222568512,-0.0980664938688,-0.166713044047,0.0,0.0,0.0,0.0,0.0,0.0,0.0,0.0,0.0
1619888800,469153,1644543958263668776,1,0.0,0.0,0.0,0.0,0.0,0.0,0.0,0.0,0.0,0.0,0.0,0.0,0.0,0.0,0.0,0.0,0.0,0.0,0.0,0.0,0.0,0.0,0.0,0.0,0.0,9.5222568512,-0.12748645246,-0.166713044047,0.0,0.0,0.0,0.0,0.0,0.0,0.0,0.0,0.0
1621821700,469154,1644543958265680552,1,0.0,0.0,0.0,0.0,0.0,0.0,0.0,0.0,0.0,0.0,0.0,0.0,0.0,0.0,0.0,0.0,0.0,0.0,0.0,0.0,0.0,0.0,0.0,0.0,0.0,9.53206348419,-0.12748645246,-0.196132987738,0.0,0.0,0.0,0.0,0.0,0.0,0.0,0.0,0.0
1623843600,469155,1644543958267694712,1,0.0,0.0,0.0,0.0,0.0,0.0,0.0,0.0,0.0,0.0,0.0,0.0,0.0,0.0,0.0,0.0,0.0,0.0,0.0,0.0,0.0,0.0,0.0,0.0,0.0,9.5222568512,-0.12748645246,-0.196132987738,0.0,0.0,0.0,0.0,0.0,0.0,0.0,0.0,0.0
1626103000,469156,1644543958269708633,1,0.0,0.0,0.0,0.0,0.0,0.0,0.0,0.0,0.0,0.0,0.0,0.0,0.0,0.0,0.0,0.0,0.0,0.0,0.0,0.0,0.0,0.0,0.0,0.0,0.0,9.49283695221,-0.137293100357,-0.176519691944,0.0,0.0,0.0,0.0,0.0,0.0,0.0,0.0,0.0
1628433600,469157,1644543958271720648,1,0.0,0.0,0.0,0.0,0.0,0.0,0.0,0.0,0.0,0.0,0.0,0.0,0.0,0.0,0.0,0.0,0.0,0.0,0.0,0.0,0.0,0.0,0.0,0.0,0.0,9.5222568512,-0.137293100357,-0.176519691944,0.0,0.0,0.0,0.0,0.0,0.0,0.0,0.0,0.0
1630348100,469158,1644543958273734808,1,0.0,0.0,0.0,0.0,0.0,0.0,0.0,0.0,0.0,0.0,0.0,0.0,0.0,0.0,0.0,0.0,0.0,0.0,0.0,0.0,0.0,0.0,0.0,0.0,0.0,9.5222568512,-0.0980664938688,-0.196132987738,0.0,0.0,0.0,0.0,0.0,0.0,0.0,0.0,0.0
1632395700,469159,1644543958275748730,1,0.0,0.0,0.0,0.0,0.0,0.0,0.0,0.0,0.0,0.0,0.0,0.0,0.0,0.0,0.0,0.0,0.0,0.0,0.0,0.0,0.0,0.0,0.0,0.0,0.0,9.5222568512,-0.137293100357,-0.176519691944,0.0,0.0,0.0,0.0,0.0,0.0,0.0,0.0,0.0
1634804000,469160,1644543958277762651,1,0.0,0.0,0.0,0.0,0.0,0.0,0.0,0.0,0.0,0.0,0.0,0.0,0.0,0.0,0.0,0.0,0.0,0.0,0.0,0.0,0.0,0.0,0.0,0.0,0.0,9.49283695221,-0.0784531980753,-0.176519691944,0.0,0.0,0.0,0.0,0.0,0.0,0.0,0.0,0.0
1636695700,469161,1644543958279774904,1,0.0,0.0,0.0,0.0,0.0,0.0,0.0,0.0,0.0,0.0,0.0,0.0,0.0,0.0,0.0,0.0,0.0,0.0,0.0,0.0,0.0,0.0,0.0,0.0,0.0,9.5222568512,-0.12748645246,-0.225552946329,0.0,0.0,0.0,0.0,0.0,0.0,0.0,0.0,0.0
1638657400,469162,1644543958281788826,1,0.0,0.0,0.0,0.0,0.0,0.0,0.0,0.0,0.0,0.0,0.0,0.0,0.0,0.0,0.0,0.0,0.0,0.0,0.0,0.0,0.0,0.0,0.0,0.0,0.0,9.49283695221,-0.137293100357,-0.176519691944,0.0,0.0,0.0,0.0,0.0,0.0,0.0,0.0,0.0
1640370100,469163,1644543958283802748,1,0.0,0.0,0.0,0.0,0.0,0.0,0.0,0.0,0.0,0.0,0.0,0.0,0.0,0.0,0.0,0.0,0.0,0.0,0.0,0.0,0.0,0.0,0.0,0.0,0.0,9.5222568512,-0.137293100357,-0.196132987738,0.0,0.0,0.0,0.0,0.0,0.0,0.0,0.0,0.0
1642421800,469164,1644543958285816908,1,0.0,0.0,0.0,0.0,0.0,0.0,0.0,0.0,0.0,0.0,0.0,0.0,0.0,0.0,0.0,0.0,0.0,0.0,0.0,0.0,0.0,0.0,0.0,0.0,0.0,9.5222568512,-0.137293100357,-0.176519691944,0.0,0.0,0.0,0.0,0.0,0.0,0.0,0.0,0.0
1644432300,469165,1644543958287828922,1,0.0,0.0,0.0,0.0,0.0,0.0,0.0,0.0,0.0,0.0,0.0,0.0,0.0,0.0,0.0,0.0,0.0,0.0,0.0,0.0,0.0,0.0,0.0,0.0,0.0,9.49283695221,-0.166713044047,-0.225552946329,0.0,0.0,0.0,0.0,0.0,0.0,0.0,0.0,0.0
1646334500,469166,1644543958289842844,1,0.0,0.0,0.0,0.0,0.0,0.0,0.0,0.0,0.0,0.0,0.0,0.0,0.0,0.0,0.0,0.0,0.0,0.0,0.0,0.0,0.0,0.0,0.0,0.0,0.0,9.5222568512,-0.137293100357,-0.225552946329,0.0,0.0,0.0,0.0,0.0,0.0,0.0,0.0,0.0
1648639000,469167,1644543958291854620,1,0.0,0.0,0.0,0.0,0.0,0.0,0.0,0.0,0.0,0.0,0.0,0.0,0.0,0.0,0.0,0.0,0.0,0.0,0.0,0.0,0.0,0.0,0.0,0.0,0.0,9.5222568512,-0.12748645246,-0.225552946329,0.0,0.0,0.0,0.0,0.0,0.0,0.0,0.0,0.0
1650427000,469168,1644543958293868780,1,0.0,0.0,0.0,0.0,0.0,0.0,0.0,0.0,0.0,0.0,0.0,0.0,0.0,0.0,0.0,0.0,0.0,0.0,0.0,0.0,0.0,0.0,0.0,0.0,0.0,9.49283695221,-0.12748645246,-0.264779537916,0.0,0.0,0.0,0.0,0.0,0.0,0.0,0.0,0.0
1652357200,469169,1644543958295882702,1,0.0,0.0,0.0,0.0,0.0,0.0,0.0,0.0,0.0,0.0,0.0,0.0,0.0,0.0,0.0,0.0,0.0,0.0,0.0,0.0,0.0,0.0,0.0,0.0,0.0,9.53206348419,-0.0980664938688,-0.196132987738,0.0,0.0,0.0,0.0,0.0,0.0,0.0,0.0,0.0
1654365200,469170,1644543958297894716,1,0.0,0.0,0.0,0.0,0.0,0.0,0.0,0.0,0.0,0.0,0.0,0.0,0.0,0.0,0.0,0.0,0.0,0.0,0.0,0.0,0.0,0.0,0.0,0.0,0.0,9.48303031921,-0.0392265990376,-0.176519691944,0.0,0.0,0.0,0.0,0.0,0.0,0.0,0.0,0.0
1656355100,469171,1644543958299908876,1,0.0,0.0,0.0,0.0,0.0,0.0,0.0,0.0,0.0,0.0,0.0,0.0,0.0,0.0,0.0,0.0,0.0,0.0,0.0,0.0,0.0,0.0,0.0,0.0,0.0,9.49283695221,-0.0784531980753,-0.196132987738,0.0,0.0,0.0,0.0,0.0,0.0,0.0,0.0,0.0
1658330600,469172,1644543958301922798,1,0.0,0.0,0.0,0.0,0.0,0.0,0.0,0.0,0.0,0.0,0.0,0.0,0.0,0.0,0.0,0.0,0.0,0.0,0.0,0.0,0.0,0.0,0.0,0.0,0.0,9.49283695221,-0.0784531980753,-0.245166242123,0.0,0.0,0.0,0.0,0.0,0.0,0.0,0.0,0.0
1660435200,469173,1644543958303934813,1,0.0,0.0,0.0,0.0,0.0,0.0,0.0,0.0,0.0,0.0,0.0,0.0,0.0,0.0,0.0,0.0,0.0,0.0,0.0,0.0,0.0,0.0,0.0,0.0,0.0,9.53206348419,-0.0980664938688,-0.225552946329,0.0,0.0,0.0,0.0,0.0,0.0,0.0,0.0,0.0
1662344100,469174,1644543958305948973,1,0.0,0.0,0.0,0.0,0.0,0.0,0.0,0.0,0.0,0.0,0.0,0.0,0.0,0.0,0.0,0.0,0.0,0.0,0.0,0.0,0.0,0.0,0.0,0.0,0.0,9.5222568512,-0.0686465501785,-0.176519691944,0.0,0.0,0.0,0.0,0.0,0.0,0.0,0.0,0.0
1664583200,469175,1644543958307962894,1,0.0,0.0,0.0,0.0,0.0,0.0,0.0,0.0,0.0,0.0,0.0,0.0,0.0,0.0,0.0,0.0,0.0,0.0,0.0,0.0,0.0,0.0,0.0,0.0,0.0,9.5222568512,-0.0784531980753,-0.225552946329,0.0,0.0,0.0,0.0,0.0,0.0,0.0,0.0,0.0
1667009500,469176,1644543958309974909,1,0.0,0.0,0.0,0.0,0.0,0.0,0.0,0.0,0.0,0.0,0.0,0.0,0.0,0.0,0.0,0.0,0.0,0.0,0.0,0.0,0.0,0.0,0.0,0.0,0.0,9.49283695221,-0.0686465501785,-0.225552946329,0.0,0.0,0.0,0.0,0.0,0.0,0.0,0.0,0.0
1668658500,469177,1644543958311989069,1,0.0,0.0,0.0,0.0,0.0,0.0,0.0,0.0,0.0,0.0,0.0,0.0,0.0,0.0,0.0,0.0,0.0,0.0,0.0,0.0,0.0,0.0,0.0,0.0,0.0,9.53206348419,-0.0784531980753,-0.225552946329,0.0,0.0,0.0,0.0,0.0,0.0,0.0,0.0,0.0
1670452900,469178,1644543958314002991,1,0.0,0.0,0.0,0.0,0.0,0.0,0.0,0.0,0.0,0.0,0.0,0.0,0.0,0.0,0.0,0.0,0.0,0.0,0.0,0.0,0.0,0.0,0.0,0.0,0.0,9.53206348419,-0.0784531980753,-0.196132987738,0.0,0.0,0.0,0.0,0.0,0.0,0.0,0.0,0.0
1672440700,469179,1644543958316015005,1,0.0,0.0,0.0,0.0,0.0,0.0,0.0,0.0,0.0,0.0,0.0,0.0,0.0,0.0,0.0,0.0,0.0,0.0,0.0,0.0,0.0,0.0,0.0,0.0,0.0,9.48303031921,-0.12748645246,-0.196132987738,0.0,0.0,0.0,0.0,0.0,0.0,0.0,0.0,0.0
1674490200,469180,1644543958318028927,1,0.0,0.0,0.0,0.0,0.0,0.0,0.0,0.0,0.0,0.0,0.0,0.0,0.0,0.0,0.0,0.0,0.0,0.0,0.0,0.0,0.0,0.0,0.0,0.0,0.0,9.48303031921,-0.0980664938688,-0.225552946329,0.0,0.0,0.0,0.0,0.0,0.0,0.0,0.0,0.0
1676490700,469181,1644543958320043087,1,0.0,0.0,0.0,0.0,0.0,0.0,0.0,0.0,0.0,0.0,0.0,0.0,0.0,0.0,0.0,0.0,0.0,0.0,0.0,0.0,0.0,0.0,0.0,0.0,0.0,9.49283695221,-0.12748645246,-0.176519691944,0.0,0.0,0.0,0.0,0.0,0.0,0.0,0.0,0.0
1678486100,469182,1644543958322056770,1,0.0,0.0,0.0,0.0,0.0,0.0,0.0,0.0,0.0,0.0,0.0,0.0,0.0,0.0,0.0,0.0,0.0,0.0,0.0,0.0,0.0,0.0,0.0,0.0,0.0,9.5222568512,-0.166713044047,-0.176519691944,0.0,0.0,0.0,0.0,0.0,0.0,0.0,0.0,0.0
1680462600,469183,1644543958324068785,1,0.0,0.0,0.0,0.0,0.0,0.0,0.0,0.0,0.0,0.0,0.0,0.0,0.0,0.0,0.0,0.0,0.0,0.0,0.0,0.0,0.0,0.0,0.0,0.0,0.0,9.48303031921,-0.12748645246,-0.176519691944,0.0,0.0,0.0,0.0,0.0,0.0,0.0,0.0,0.0
1682388700,469184,1644543958326082945,1,0.0,0.0,0.0,0.0,0.0,0.0,0.0,0.0,0.0,0.0,0.0,0.0,0.0,0.0,0.0,0.0,0.0,0.0,0.0,0.0,0.0,0.0,0.0,0.0,0.0,9.48303031921,-0.0980664938688,-0.176519691944,0.0,0.0,0.0,0.0,0.0,0.0,0.0,0.0,0.0
1684440200,469185,1644543958328094959,1,0.0,0.0,0.0,0.0,0.0,0.0,0.0,0.0,0.0,0.0,0.0,0.0,0.0,0.0,0.0,0.0,0.0,0.0,0.0,0.0,0.0,0.0,0.0,0.0,0.0,9.49283695221,-0.0980664938688,-0.176519691944,0.0,0.0,0.0,0.0,0.0,0.0,0.0,0.0,0.0
1686344300,469186,1644543958330108881,1,0.0,0.0,0.0,0.0,0.0,0.0,0.0,0.0,0.0,0.0,0.0,0.0,0.0,0.0,0.0,0.0,0.0,0.0,0.0,0.0,0.0,0.0,0.0,0.0,0.0,9.53206348419,-0.0980664938688,-0.176519691944,0.0,0.0,0.0,0.0,0.0,0.0,0.0,0.0,0.0
1688351200,469187,1644543958332121134,1,0.0,0.0,0.0,0.0,0.0,0.0,0.0,0.0,0.0,0.0,0.0,0.0,0.0,0.0,0.0,0.0,0.0,0.0,0.0,0.0,0.0,0.0,0.0,0.0,0.0,9.49283695221,-0.166713044047,-0.196132987738,0.0,0.0,0.0,0.0,0.0,0.0,0.0,0.0,0.0
1690334300,469188,1644543958334135056,1,0.0,0.0,0.0,0.0,0.0,0.0,0.0,0.0,0.0,0.0,0.0,0.0,0.0,0.0,0.0,0.0,0.0,0.0,0.0,0.0,0.0,0.0,0.0,0.0,0.0,9.48303031921,-0.12748645246,-0.176519691944,0.0,0.0,0.0,0.0,0.0,0.0,0.0,0.0,0.0
1692367500,469189,1644543958336147070,1,0.0,0.0,0.0,0.0,0.0,0.0,0.0,0.0,0.0,0.0,0.0,0.0,0.0,0.0,0.0,0.0,0.0,0.0,0.0,0.0,0.0,0.0,0.0,0.0,0.0,9.5222568512,-0.12748645246,-0.196132987738,0.0,0.0,0.0,0.0,0.0,0.0,0.0,0.0,0.0
1694445200,469190,1644543958338161230,1,0.0,0.0,0.0,0.0,0.0,0.0,0.0,0.0,0.0,0.0,0.0,0.0,0.0,0.0,0.0,0.0,0.0,0.0,0.0,0.0,0.0,0.0,0.0,0.0,0.0,9.53206348419,-0.0980664938688,-0.225552946329,0.0,0.0,0.0,0.0,0.0,0.0,0.0,0.0,0.0
1696626700,469191,1644543958340175152,1,0.0,0.0,0.0,0.0,0.0,0.0,0.0,0.0,0.0,0.0,0.0,0.0,0.0,0.0,0.0,0.0,0.0,0.0,0.0,0.0,0.0,0.0,0.0,0.0,0.0,9.56148338318,-0.0980664938688,-0.225552946329,0.0,0.0,0.0,0.0,0.0,0.0,0.0,0.0,0.0
1698579000,469192,1644543958342186928,1,0.0,0.0,0.0,0.0,0.0,0.0,0.0,0.0,0.0,0.0,0.0,0.0,0.0,0.0,0.0,0.0,0.0,0.0,0.0,0.0,0.0,0.0,0.0,0.0,0.0,9.49283695221,-0.0980664938688,-0.196132987738,0.0,0.0,0.0,0.0,0.0,0.0,0.0,0.0,0.0
1700760000,469193,1644543958344200850,1,0.0,0.0,0.0,0.0,0.0,0.0,0.0,0.0,0.0,0.0,0.0,0.0,0.0,0.0,0.0,0.0,0.0,0.0,0.0,0.0,0.0,0.0,0.0,0.0,0.0,9.5222568512,-0.12748645246,-0.225552946329,0.0,0.0,0.0,0.0,0.0,0.0,0.0,0.0,0.0
1702693600,469194,1644543958346215010,1,0.0,0.0,0.0,0.0,0.0,0.0,0.0,0.0,0.0,0.0,0.0,0.0,0.0,0.0,0.0,0.0,0.0,0.0,0.0,0.0,0.0,0.0,0.0,0.0,0.0,9.5222568512,-0.0784531980753,-0.196132987738,0.0,0.0,0.0,0.0,0.0,0.0,0.0,0.0,0.0
1704661300,469195,1644543958348228931,1,0.0,0.0,0.0,0.0,0.0,0.0,0.0,0.0,0.0,0.0,0.0,0.0,0.0,0.0,0.0,0.0,0.0,0.0,0.0,0.0,0.0,0.0,0.0,0.0,0.0,9.5222568512,-0.12748645246,-0.225552946329,0.0,0.0,0.0,0.0,0.0,0.0,0.0,0.0,0.0
1706697400,469196,1644543958350240946,1,0.0,0.0,0.0,0.0,0.0,0.0,0.0,0.0,0.0,0.0,0.0,0.0,0.0,0.0,0.0,0.0,0.0,0.0,0.0,0.0,0.0,0.0,0.0,0.0,0.0,9.45361042023,-0.0980664938688,-0.196132987738,0.0,0.0,0.0,0.0,0.0,0.0,0.0,0.0,0.0
1708638700,469197,1644543958352255106,1,0.0,0.0,0.0,0.0,0.0,0.0,0.0,0.0,0.0,0.0,0.0,0.0,0.0,0.0,0.0,0.0,0.0,0.0,0.0,0.0,0.0,0.0,0.0,0.0,0.0,9.48303031921,-0.0980664938688,-0.176519691944,0.0,0.0,0.0,0.0,0.0,0.0,0.0,0.0,0.0
1710627400,469198,1644543958354267120,1,0.0,0.0,0.0,0.0,0.0,0.0,0.0,0.0,0.0,0.0,0.0,0.0,0.0,0.0,0.0,0.0,0.0,0.0,0.0,0.0,0.0,0.0,0.0,0.0,0.0,9.5222568512,-0.137293100357,-0.176519691944,0.0,0.0,0.0,0.0,0.0,0.0,0.0,0.0,0.0
1712577500,469199,1644543958356281042,1,0.0,0.0,0.0,0.0,0.0,0.0,0.0,0.0,0.0,0.0,0.0,0.0,0.0,0.0,0.0,0.0,0.0,0.0,0.0,0.0,0.0,0.0,0.0,0.0,0.0,9.5222568512,-0.0980664938688,-0.166713044047,0.0,0.0,0.0,0.0,0.0,0.0,0.0,0.0,0.0
1714616300,469200,1644543958358295202,1,0.0,0.0,0.0,0.0,0.0,0.0,0.0,0.0,0.0,0.0,0.0,0.0,0.0,0.0,0.0,0.0,0.0,0.0,0.0,0.0,0.0,0.0,0.0,0.0,0.0,9.5222568512,-0.12748645246,-0.176519691944,0.0,0.0,0.0,0.0,0.0,0.0,0.0,0.0,0.0
1716779800,469201,1644543958360307217,1,0.0,0.0,0.0,0.0,0.0,0.0,0.0,0.0,0.0,0.0,0.0,0.0,0.0,0.0,0.0,0.0,0.0,0.0,0.0,0.0,0.0,0.0,0.0,0.0,0.0,9.49283695221,-0.0980664938688,-0.176519691944,0.0,0.0,0.0,0.0,0.0,0.0,0.0,0.0,0.0
1718584400,469202,1644543958362321138,1,0.0,0.0,0.0,0.0,0.0,0.0,0.0,0.0,0.0,0.0,0.0,0.0,0.0,0.0,0.0,0.0,0.0,0.0,0.0,0.0,0.0,0.0,0.0,0.0,0.0,9.5222568512,-0.166713044047,-0.176519691944,0.0,0.0,0.0,0.0,0.0,0.0,0.0,0.0,0.0
1720582500,469203,1644543958364333153,1,0.0,0.0,0.0,0.0,0.0,0.0,0.0,0.0,0.0,0.0,0.0,0.0,0.0,0.0,0.0,0.0,0.0,0.0,0.0,0.0,0.0,0.0,0.0,0.0,0.0,9.53206348419,-0.137293100357,-0.166713044047,0.0,0.0,0.0,0.0,0.0,0.0,0.0,0.0,0.0
1722549000,469204,1644543958366347075,1,0.0,0.0,0.0,0.0,0.0,0.0,0.0,0.0,0.0,0.0,0.0,0.0,0.0,0.0,0.0,0.0,0.0,0.0,0.0,0.0,0.0,0.0,0.0,0.0,0.0,9.45361042023,-0.137293100357,-0.166713044047,0.0,0.0,0.0,0.0,0.0,0.0,0.0,0.0,0.0
1724714000,469205,1644543958368360996,1,0.0,0.0,0.0,0.0,0.0,0.0,0.0,0.0,0.0,0.0,0.0,0.0,0.0,0.0,0.0,0.0,0.0,0.0,0.0,0.0,0.0,0.0,0.0,0.0,0.0,9.49283695221,-0.0980664938688,-0.176519691944,0.0,0.0,0.0,0.0,0.0,0.0,0.0,0.0,0.0
1727021200,469206,1644543958370373011,1,0.0,0.0,0.0,0.0,0.0,0.0,0.0,0.0,0.0,0.0,0.0,0.0,0.0,0.0,0.0,0.0,0.0,0.0,0.0,0.0,0.0,0.0,0.0,0.0,0.0,9.5222568512,-0.12748645246,-0.196132987738,0.0,0.0,0.0,0.0,0.0,0.0,0.0,0.0,0.0
1728678500,469207,1644543958372387171,1,0.0,0.0,0.0,0.0,0.0,0.0,0.0,0.0,0.0,0.0,0.0,0.0,0.0,0.0,0.0,0.0,0.0,0.0,0.0,0.0,0.0,0.0,0.0,0.0,0.0,9.5222568512,-0.0980664938688,-0.176519691944,0.0,0.0,0.0,0.0,0.0,0.0,0.0,0.0,0.0
1730555800,469208,1644543958374399185,1,0.0,0.0,0.0,0.0,0.0,0.0,0.0,0.0,0.0,0.0,0.0,0.0,0.0,0.0,0.0,0.0,0.0,0.0,0.0,0.0,0.0,0.0,0.0,0.0,0.0,9.5222568512,-0.0980664938688,-0.225552946329,0.0,0.0,0.0,0.0,0.0,0.0,0.0,0.0,0.0
1732597800,469209,1644543958376413107,1,0.0,0.0,0.0,0.0,0.0,0.0,0.0,0.0,0.0,0.0,0.0,0.0,0.0,0.0,0.0,0.0,0.0,0.0,0.0,0.0,0.0,0.0,0.0,0.0,0.0,9.5222568512,-0.0980664938688,-0.196132987738,0.0,0.0,0.0,0.0,0.0,0.0,0.0,0.0,0.0
1734651200,469210,1644543958378427267,1,0.0,0.0,0.0,0.0,0.0,0.0,0.0,0.0,0.0,0.0,0.0,0.0,0.0,0.0,0.0,0.0,0.0,0.0,0.0,0.0,0.0,0.0,0.0,0.0,0.0,9.53206348419,-0.0980664938688,-0.176519691944,0.0,0.0,0.0,0.0,0.0,0.0,0.0,0.0,0.0
1736610700,469211,1644543958380439281,1,0.0,0.0,0.0,0.0,0.0,0.0,0.0,0.0,0.0,0.0,0.0,0.0,0.0,0.0,0.0,0.0,0.0,0.0,0.0,0.0,0.0,0.0,0.0,0.0,0.0,9.48303031921,-0.0980664938688,-0.176519691944,0.0,0.0,0.0,0.0,0.0,0.0,0.0,0.0,0.0
1738711300,469212,1644543958382453203,1,0.0,0.0,0.0,0.0,0.0,0.0,0.0,0.0,0.0,0.0,0.0,0.0,0.0,0.0,0.0,0.0,0.0,0.0,0.0,0.0,0.0,0.0,0.0,0.0,0.0,9.5222568512,-0.0980664938688,-0.225552946329,0.0,0.0,0.0,0.0,0.0,0.0,0.0,0.0,0.0
1740934900,469213,1644543958384467363,1,0.0,0.0,0.0,0.0,0.0,0.0,0.0,0.0,0.0,0.0,0.0,0.0,0.0,0.0,0.0,0.0,0.0,0.0,0.0,0.0,0.0,0.0,0.0,0.0,0.0,9.49283695221,-0.12748645246,-0.176519691944,0.0,0.0,0.0,0.0,0.0,0.0,0.0,0.0,0.0
1742822200,469214,1644543958386479139,1,0.0,0.0,0.0,0.0,0.0,0.0,0.0,0.0,0.0,0.0,0.0,0.0,0.0,0.0,0.0,0.0,0.0,0.0,0.0,0.0,0.0,0.0,0.0,0.0,0.0,9.5222568512,-0.12748645246,-0.166713044047,0.0,0.0,0.0,0.0,0.0,0.0,0.0,0.0,0.0
1745413100,469215,1644543958388493061,1,0.0,0.0,0.0,0.0,0.0,0.0,0.0,0.0,0.0,0.0,0.0,0.0,0.0,0.0,0.0,0.0,0.0,0.0,0.0,0.0,0.0,0.0,0.0,0.0,0.0,9.56148338318,-0.0980664938688,-0.176519691944,0.0,0.0,0.0,0.0,0.0,0.0,0.0,0.0,0.0
1747515200,469216,1644543958390505314,1,0.0,0.0,0.0,0.0,0.0,0.0,0.0,0.0,0.0,0.0,0.0,0.0,0.0,0.0,0.0,0.0,0.0,0.0,0.0,0.0,0.0,0.0,0.0,0.0,0.0,9.53206348419,-0.12748645246,-0.245166242123,0.0,0.0,0.0,0.0,0.0,0.0,0.0,0.0,0.0
1748959500,469217,1644543958392519236,1,0.0,0.0,0.0,0.0,0.0,0.0,0.0,0.0,0.0,0.0,0.0,0.0,0.0,0.0,0.0,0.0,0.0,0.0,0.0,0.0,0.0,0.0,0.0,0.0,0.0,9.49283695221,-0.0686465501785,-0.196132987738,0.0,0.0,0.0,0.0,0.0,0.0,0.0,0.0,0.0
1751339300,469218,1644543958394533157,1,0.0,0.0,0.0,0.0,0.0,0.0,0.0,0.0,0.0,0.0,0.0,0.0,0.0,0.0,0.0,0.0,0.0,0.0,0.0,0.0,0.0,0.0,0.0,0.0,0.0,9.48303031921,-0.137293100357,-0.196132987738,0.0,0.0,0.0,0.0,0.0,0.0,0.0,0.0,0.0
1753230200,469219,1644543958396547318,1,0.0,0.0,0.0,0.0,0.0,0.0,0.0,0.0,0.0,0.0,0.0,0.0,0.0,0.0,0.0,0.0,0.0,0.0,0.0,0.0,0.0,0.0,0.0,0.0,0.0,9.49283695221,-0.12748645246,-0.196132987738,0.0,0.0,0.0,0.0,0.0,0.0,0.0,0.0,0.0
1755336000,469220,1644543958398559332,1,0.0,0.0,0.0,0.0,0.0,0.0,0.0,0.0,0.0,0.0,0.0,0.0,0.0,0.0,0.0,0.0,0.0,0.0,0.0,0.0,0.0,0.0,0.0,0.0,0.0,9.48303031921,-0.137293100357,-0.225552946329,0.0,0.0,0.0,0.0,0.0,0.0,0.0,0.0,0.0
1757154400,469221,1644543958400573254,1,0.0,0.0,0.0,0.0,0.0,0.0,0.0,0.0,0.0,0.0,0.0,0.0,0.0,0.0,0.0,0.0,0.0,0.0,0.0,0.0,0.0,0.0,0.0,0.0,0.0,9.5222568512,-0.0980664938688,-0.196132987738,0.0,0.0,0.0,0.0,0.0,0.0,0.0,0.0,0.0
1759130200,469222,1644543958402587414,1,0.0,0.0,0.0,0.0,0.0,0.0,0.0,0.0,0.0,0.0,0.0,0.0,0.0,0.0,0.0,0.0,0.0,0.0,0.0,0.0,0.0,0.0,0.0,0.0,0.0,9.56148338318,-0.0686465501785,-0.196132987738,0.0,0.0,0.0,0.0,0.0,0.0,0.0,0.0,0.0
1761107300,469223,1644543958404599428,1,0.0,0.0,0.0,0.0,0.0,0.0,0.0,0.0,0.0,0.0,0.0,0.0,0.0,0.0,0.0,0.0,0.0,0.0,0.0,0.0,0.0,0.0,0.0,0.0,0.0,9.5222568512,-0.12748645246,-0.225552946329,0.0,0.0,0.0,0.0,0.0,0.0,0.0,0.0,0.0
1763084600,469224,1644543958406613350,1,0.0,0.0,0.0,0.0,0.0,0.0,0.0,0.0,0.0,0.0,0.0,0.0,0.0,0.0,0.0,0.0,0.0,0.0,0.0,0.0,0.0,0.0,0.0,0.0,0.0,9.53206348419,-0.0686465501785,-0.176519691944,0.0,0.0,0.0,0.0,0.0,0.0,0.0,0.0,0.0
1765162700,469225,1644543958408627510,1,0.0,0.0,0.0,0.0,0.0,0.0,0.0,0.0,0.0,0.0,0.0,0.0,0.0,0.0,0.0,0.0,0.0,0.0,0.0,0.0,0.0,0.0,0.0,0.0,0.0,9.49283695221,-0.0686465501785,-0.196132987738,0.0,0.0,0.0,0.0,0.0,0.0,0.0,0.0,0.0
1767155900,469226,1644543958410639286,1,0.0,0.0,0.0,0.0,0.0,0.0,0.0,0.0,0.0,0.0,0.0,0.0,0.0,0.0,0.0,0.0,0.0,0.0,0.0,0.0,0.0,0.0,0.0,0.0,0.0,9.53206348419,-0.0686465501785,-0.176519691944,0.0,0.0,0.0,0.0,0.0,0.0,0.0,0.0,0.0
1769129800,469227,1644543958412653208,1,0.0,0.0,0.0,0.0,0.0,0.0,0.0,0.0,0.0,0.0,0.0,0.0,0.0,0.0,0.0,0.0,0.0,0.0,0.0,0.0,0.0,0.0,0.0,0.0,0.0,9.5222568512,-0.137293100357,-0.196132987738,0.0,0.0,0.0,0.0,0.0,0.0,0.0,0.0,0.0
1771181700,469228,1644543958414667368,1,0.0,0.0,0.0,0.0,0.0,0.0,0.0,0.0,0.0,0.0,0.0,0.0,0.0,0.0,0.0,0.0,0.0,0.0,0.0,0.0,0.0,0.0,0.0,0.0,0.0,9.53206348419,-0.0784531980753,-0.196132987738,0.0,0.0,0.0,0.0,0.0,0.0,0.0,0.0,0.0
1773095400,469229,1644543958416679382,1,0.0,0.0,0.0,0.0,0.0,0.0,0.0,0.0,0.0,0.0,0.0,0.0,0.0,0.0,0.0,0.0,0.0,0.0,0.0,0.0,0.0,0.0,0.0,0.0,0.0,9.53206348419,-0.0686465501785,-0.196132987738,0.0,0.0,0.0,0.0,0.0,0.0,0.0,0.0,0.0
1775143600,469230,1644543958418693304,1,0.0,0.0,0.0,0.0,0.0,0.0,0.0,0.0,0.0,0.0,0.0,0.0,0.0,0.0,0.0,0.0,0.0,0.0,0.0,0.0,0.0,0.0,0.0,0.0,0.0,9.48303031921,-0.0784531980753,-0.196132987738,0.0,0.0,0.0,0.0,0.0,0.0,0.0,0.0,0.0
1777397000,469231,1644543958420707464,1,0.0,0.0,0.0,0.0,0.0,0.0,0.0,0.0,0.0,0.0,0.0,0.0,0.0,0.0,0.0,0.0,0.0,0.0,0.0,0.0,0.0,0.0,0.0,0.0,0.0,9.49283695221,-0.0392265990376,-0.225552946329,0.0,0.0,0.0,0.0,0.0,0.0,0.0,0.0,0.0
1779218500,469232,1644543958422721386,1,0.0,0.0,0.0,0.0,0.0,0.0,0.0,0.0,0.0,0.0,0.0,0.0,0.0,0.0,0.0,0.0,0.0,0.0,0.0,0.0,0.0,0.0,0.0,0.0,0.0,9.53206348419,-0.0784531980753,-0.245166242123,0.0,0.0,0.0,0.0,0.0,0.0,0.0,0.0,0.0
1781168900,469233,1644543958424733400,1,0.0,0.0,0.0,0.0,0.0,0.0,0.0,0.0,0.0,0.0,0.0,0.0,0.0,0.0,0.0,0.0,0.0,0.0,0.0,0.0,0.0,0.0,0.0,0.0,0.0,9.5222568512,-0.0686465501785,-0.166713044047,0.0,0.0,0.0,0.0,0.0,0.0,0.0,0.0,0.0
1783210200,469234,1644543958426747561,1,0.0,0.0,0.0,0.0,0.0,0.0,0.0,0.0,0.0,0.0,0.0,0.0,0.0,0.0,0.0,0.0,0.0,0.0,0.0,0.0,0.0,0.0,0.0,0.0,0.0,9.53206348419,-0.00980664975941,-0.176519691944,0.0,0.0,0.0,0.0,0.0,0.0,0.0,0.0,0.0
1785159500,469235,1644543958428759575,1,0.0,0.0,0.0,0.0,0.0,0.0,0.0,0.0,0.0,0.0,0.0,0.0,0.0,0.0,0.0,0.0,0.0,0.0,0.0,0.0,0.0,0.0,0.0,0.0,0.0,9.5222568512,-0.0294199492782,-0.166713044047,0.0,0.0,0.0,0.0,0.0,0.0,0.0,0.0,0.0
1787418100,469236,1644543958430773497,1,0.0,0.0,0.0,0.0,0.0,0.0,0.0,0.0,0.0,0.0,0.0,0.0,0.0,0.0,0.0,0.0,0.0,0.0,0.0,0.0,0.0,0.0,0.0,0.0,0.0,9.53206348419,-0.00980664975941,-0.176519691944,0.0,0.0,0.0,0.0,0.0,0.0,0.0,0.0,0.0
1789101800,469237,1644543958432787657,1,0.0,0.0,0.0,0.0,0.0,0.0,0.0,0.0,0.0,0.0,0.0,0.0,0.0,0.0,0.0,0.0,0.0,0.0,0.0,0.0,0.0,0.0,0.0,0.0,0.0,9.53206348419,-0.0392265990376,-0.176519691944,0.0,0.0,0.0,0.0,0.0,0.0,0.0,0.0,0.0
1791125700,469238,1644543958434799671,1,0.0,0.0,0.0,0.0,0.0,0.0,0.0,0.0,0.0,0.0,0.0,0.0,0.0,0.0,0.0,0.0,0.0,0.0,0.0,0.0,0.0,0.0,0.0,0.0,0.0,9.56148338318,-0.0392265990376,-0.196132987738,0.0,0.0,0.0,0.0,0.0,0.0,0.0,0.0,0.0
1793110300,469239,1644543958436813593,1,0.0,0.0,0.0,0.0,0.0,0.0,0.0,0.0,0.0,0.0,0.0,0.0,0.0,0.0,0.0,0.0,0.0,0.0,0.0,0.0,0.0,0.0,0.0,0.0,0.0,9.53206348419,-0.0294199492782,-0.196132987738,0.0,0.0,0.0,0.0,0.0,0.0,0.0,0.0,0.0
1795127400,469240,1644543958438827753,1,0.0,0.0,0.0,0.0,0.0,0.0,0.0,0.0,0.0,0.0,0.0,0.0,0.0,0.0,0.0,0.0,0.0,0.0,0.0,0.0,0.0,0.0,0.0,0.0,0.0,9.58109664917,-0.0392265990376,-0.176519691944,0.0,0.0,0.0,0.0,0.0,0.0,0.0,0.0,0.0
1797119300,469241,1644543958440839529,1,0.0,0.0,0.0,0.0,0.0,0.0,0.0,0.0,0.0,0.0,0.0,0.0,0.0,0.0,0.0,0.0,0.0,0.0,0.0,0.0,0.0,0.0,0.0,0.0,0.0,9.53206348419,-0.0294199492782,-0.196132987738,0.0,0.0,0.0,0.0,0.0,0.0,0.0,0.0,0.0
1799134900,469242,1644543958442853451,1,0.0,0.0,0.0,0.0,0.0,0.0,0.0,0.0,0.0,0.0,0.0,0.0,0.0,0.0,0.0,0.0,0.0,0.0,0.0,0.0,0.0,0.0,0.0,0.0,0.0,9.49283695221,-0.0294199492782,-0.196132987738,0.0,0.0,0.0,0.0,0.0,0.0,0.0,0.0,0.0
1801355800,469243,1644543958444867611,1,0.0,0.0,0.0,0.0,0.0,0.0,0.0,0.0,0.0,0.0,0.0,0.0,0.0,0.0,0.0,0.0,0.0,0.0,0.0,0.0,0.0,0.0,0.0,0.0,0.0,9.56148338318,-0.0294199492782,-0.166713044047,0.0,0.0,0.0,0.0,0.0,0.0,0.0,0.0,0.0
1803141700,469244,1644543958446879625,1,0.0,0.0,0.0,0.0,0.0,0.0,0.0,0.0,0.0,0.0,0.0,0.0,0.0,0.0,0.0,0.0,0.0,0.0,0.0,0.0,0.0,0.0,0.0,0.0,0.0,9.56148338318,0.0,-0.176519691944,0.0,0.0,0.0,0.0,0.0,0.0,0.0,0.0,0.0
1805113300,469245,1644543958448893547,1,0.0,0.0,0.0,0.0,0.0,0.0,0.0,0.0,0.0,0.0,0.0,0.0,0.0,0.0,0.0,0.0,0.0,0.0,0.0,0.0,0.0,0.0,0.0,0.0,0.0,9.53206348419,-0.00980664975941,-0.176519691944,0.0,0.0,0.0,0.0,0.0,0.0,0.0,0.0,0.0
