%time,field.header.seq,field.header.stamp,field.header.frame_id,field.orientation.x,field.orientation.y,field.orientation.z,field.orientation.w,field.orientation_covariance0,field.orientation_covariance1,field.orientation_covariance2,field.orientation_covariance3,field.orientation_covariance4,field.orientation_covariance5,field.orientation_covariance6,field.orientation_covariance7,field.orientation_covariance8,field.angular_velocity.x,field.angular_velocity.y,field.angular_velocity.z,field.angular_velocity_covariance0,field.angular_velocity_covariance1,field.angular_velocity_covariance2,field.angular_velocity_covariance3,field.angular_velocity_covariance4,field.angular_velocity_covariance5,field.angular_velocity_covariance6,field.angular_velocity_covariance7,field.angular_velocity_covariance8,field.linear_acceleration.x,field.linear_acceleration.y,field.linear_acceleration.z,field.linear_acceleration_covariance0,field.linear_acceleration_covariance1,field.linear_acceleration_covariance2,field.linear_acceleration_covariance3,field.linear_acceleration_covariance4,field.linear_acceleration_covariance5,field.linear_acceleration_covariance6,field.linear_acceleration_covariance7,field.linear_acceleration_covariance8
1461500,501629,1644544023646176815,1,0.0,0.0,0.0,0.0,0.0,0.0,0.0,0.0,0.0,0.0,0.0,0.0,0.0,0.0,0.0,0.0,0.0,0.0,0.0,0.0,0.0,0.0,0.0,0.0,0.0,-0.0392265990376,-0.0294199492782,9.81645679474,0.0,0.0,0.0,0.0,0.0,0.0,0.0,0.0,0.0
2934300,501630,1644544023648190975,1,0.0,0.0,0.0,0.0,0.0,0.0,0.0,0.0,0.0,0.0,0.0,0.0,0.0,0.0,0.0,0.0,0.0,0.0,0.0,0.0,0.0,0.0,0.0,0.0,0.0,-0.0294199492782,-0.0784531980753,9.88510322571,0.0,0.0,0.0,0.0,0.0,0.0,0.0,0.0,0.0
4713000,501631,1644544023650203228,1,0.0,0.0,0.0,0.0,0.0,0.0,0.0,0.0,0.0,0.0,0.0,0.0,0.0,0.0,0.0,0.0,0.0,0.0,0.0,0.0,0.0,0.0,0.0,0.0,0.0,-0.0392265990376,-0.0784531980753,9.88510322571,0.0,0.0,0.0,0.0,0.0,0.0,0.0,0.0,0.0
7360500,501632,1644544023652217388,1,0.0,0.0,0.0,0.0,0.0,0.0,0.0,0.0,0.0,0.0,0.0,0.0,0.0,0.0,0.0,0.0,0.0,0.0,0.0,0.0,0.0,0.0,0.0,0.0,0.0,-0.0784531980753,-0.0392265990376,9.91452312469,0.0,0.0,0.0,0.0,0.0,0.0,0.0,0.0,0.0
9354200,501633,1644544023654231548,1,0.0,0.0,0.0,0.0,0.0,0.0,0.0,0.0,0.0,0.0,0.0,0.0,0.0,0.0,0.0,0.0,0.0,0.0,0.0,0.0,0.0,0.0,0.0,0.0,0.0,-0.0980664938688,-0.0392265990376,9.91452312469,0.0,0.0,0.0,0.0,0.0,0.0,0.0,0.0,0.0
10940600,501634,1644544023656243563,1,0.0,0.0,0.0,0.0,0.0,0.0,0.0,0.0,0.0,0.0,0.0,0.0,0.0,0.0,0.0,0.0,0.0,0.0,0.0,0.0,0.0,0.0,0.0,0.0,0.0,-0.0392265990376,-0.0392265990376,9.8949098587,0.0,0.0,0.0,0.0,0.0,0.0,0.0,0.0,0.0
13211800,501635,1644544023658257723,1,0.0,0.0,0.0,0.0,0.0,0.0,0.0,0.0,0.0,0.0,0.0,0.0,0.0,0.0,0.0,0.0,0.0,0.0,0.0,0.0,0.0,0.0,0.0,0.0,0.0,-0.0784531980753,-0.0686465501785,9.91452312469,0.0,0.0,0.0,0.0,0.0,0.0,0.0,0.0,0.0
14851000,501636,1644544023660269976,1,0.0,0.0,0.0,0.0,0.0,0.0,0.0,0.0,0.0,0.0,0.0,0.0,0.0,0.0,0.0,0.0,0.0,0.0,0.0,0.0,0.0,0.0,0.0,0.0,0.0,-0.0686465501785,-0.0294199492782,9.94394302368,0.0,0.0,0.0,0.0,0.0,0.0,0.0,0.0,0.0
16823400,501637,1644544023662284136,1,0.0,0.0,0.0,0.0,0.0,0.0,0.0,0.0,0.0,0.0,0.0,0.0,0.0,0.0,0.0,0.0,0.0,0.0,0.0,0.0,0.0,0.0,0.0,0.0,0.0,-0.0784531980753,-0.00980664975941,9.8949098587,0.0,0.0,0.0,0.0,0.0,0.0,0.0,0.0,0.0
18758500,501638,1644544023664296389,1,0.0,0.0,0.0,0.0,0.0,0.0,0.0,0.0,0.0,0.0,0.0,0.0,0.0,0.0,0.0,0.0,0.0,0.0,0.0,0.0,0.0,0.0,0.0,0.0,0.0,-0.0294199492782,-0.0294199492782,9.96355628967,0.0,0.0,0.0,0.0,0.0,0.0,0.0,0.0,0.0
20793400,501639,1644544023666310787,1,0.0,0.0,0.0,0.0,0.0,0.0,0.0,0.0,0.0,0.0,0.0,0.0,0.0,0.0,0.0,0.0,0.0,0.0,0.0,0.0,0.0,0.0,0.0,0.0,0.0,-0.0294199492782,-0.0294199492782,9.99297618866,0.0,0.0,0.0,0.0,0.0,0.0,0.0,0.0,0.0
22741300,501640,1644544023668324947,1,0.0,0.0,0.0,0.0,0.0,0.0,0.0,0.0,0.0,0.0,0.0,0.0,0.0,0.0,0.0,0.0,0.0,0.0,0.0,0.0,0.0,0.0,0.0,0.0,0.0,-0.0392265990376,-0.0686465501785,9.94394302368,0.0,0.0,0.0,0.0,0.0,0.0,0.0,0.0,0.0
24761300,501641,1644544023670337200,1,0.0,0.0,0.0,0.0,0.0,0.0,0.0,0.0,0.0,0.0,0.0,0.0,0.0,0.0,0.0,0.0,0.0,0.0,0.0,0.0,0.0,0.0,0.0,0.0,0.0,-0.0294199492782,-0.0294199492782,9.91452312469,0.0,0.0,0.0,0.0,0.0,0.0,0.0,0.0,0.0
26817300,501642,1644544023672351360,1,0.0,0.0,0.0,0.0,0.0,0.0,0.0,0.0,0.0,0.0,0.0,0.0,0.0,0.0,0.0,0.0,0.0,0.0,0.0,0.0,0.0,0.0,0.0,0.0,0.0,-0.0392265990376,0.0,9.96355628967,0.0,0.0,0.0,0.0,0.0,0.0,0.0,0.0,0.0
28853000,501643,1644544023674365520,1,0.0,0.0,0.0,0.0,0.0,0.0,0.0,0.0,0.0,0.0,0.0,0.0,0.0,0.0,0.0,0.0,0.0,0.0,0.0,0.0,0.0,0.0,0.0,0.0,0.0,-0.0294199492782,-0.00980664975941,9.91452312469,0.0,0.0,0.0,0.0,0.0,0.0,0.0,0.0,0.0
30854200,501644,1644544023676377773,1,0.0,0.0,0.0,0.0,0.0,0.0,0.0,0.0,0.0,0.0,0.0,0.0,0.0,0.0,0.0,0.0,0.0,0.0,0.0,0.0,0.0,0.0,0.0,0.0,0.0,-0.0392265990376,-0.00980664975941,9.91452312469,0.0,0.0,0.0,0.0,0.0,0.0,0.0,0.0,0.0
757501100,502005,1644544024403189659,1,0.0,0.0,0.0,0.0,0.0,0.0,0.0,0.0,0.0,0.0,0.0,0.0,0.0,0.0,0.0,0.0,0.0,0.0,0.0,0.0,0.0,0.0,0.0,0.0,0.0,-0.0686465501785,0.00980664975941,9.8949098587,0.0,0.0,0.0,0.0,0.0,0.0,0.0,0.0,0.0
759801700,502006,1644544024405201674,1,0.0,0.0,0.0,0.0,0.0,0.0,0.0,0.0,0.0,0.0,0.0,0.0,0.0,0.0,0.0,0.0,0.0,0.0,0.0,0.0,0.0,0.0,0.0,0.0,0.0,-0.0392265990376,0.0392265990376,9.8949098587,0.0,0.0,0.0,0.0,0.0,0.0,0.0,0.0,0.0
761567600,502007,1644544024407215595,1,0.0,0.0,0.0,0.0,0.0,0.0,0.0,0.0,0.0,0.0,0.0,0.0,0.0,0.0,0.0,0.0,0.0,0.0,0.0,0.0,0.0,0.0,0.0,0.0,0.0,-0.0294199492782,0.00980664975941,9.88510322571,0.0,0.0,0.0,0.0,0.0,0.0,0.0,0.0,0.0
763613100,502008,1644544024409229517,1,0.0,0.0,0.0,0.0,0.0,0.0,0.0,0.0,0.0,0.0,0.0,0.0,0.0,0.0,0.0,0.0,0.0,0.0,0.0,0.0,0.0,0.0,0.0,0.0,0.0,-0.0686465501785,-0.00980664975941,9.8949098587,0.0,0.0,0.0,0.0,0.0,0.0,0.0,0.0,0.0
765622600,502009,1644544024411241531,1,0.0,0.0,0.0,0.0,0.0,0.0,0.0,0.0,0.0,0.0,0.0,0.0,0.0,0.0,0.0,0.0,0.0,0.0,0.0,0.0,0.0,0.0,0.0,0.0,0.0,-0.0392265990376,0.00980664975941,9.98316955566,0.0,0.0,0.0,0.0,0.0,0.0,0.0,0.0,0.0
767477800,502010,1644544024413255453,1,0.0,0.0,0.0,0.0,0.0,0.0,0.0,0.0,0.0,0.0,0.0,0.0,0.0,0.0,0.0,0.0,0.0,0.0,0.0,0.0,0.0,0.0,0.0,0.0,0.0,-0.0686465501785,0.0392265990376,9.8949098587,0.0,0.0,0.0,0.0,0.0,0.0,0.0,0.0,0.0
769496300,502011,1644544024415267229,1,0.0,0.0,0.0,0.0,0.0,0.0,0.0,0.0,0.0,0.0,0.0,0.0,0.0,0.0,0.0,0.0,0.0,0.0,0.0,0.0,0.0,0.0,0.0,0.0,0.0,-0.0392265990376,0.0,9.91452312469,0.0,0.0,0.0,0.0,0.0,0.0,0.0,0.0,0.0
771511400,502012,1644544024417283535,1,0.0,0.0,0.0,0.0,0.0,0.0,0.0,0.0,0.0,0.0,0.0,0.0,0.0,0.0,0.0,0.0,0.0,0.0,0.0,0.0,0.0,0.0,0.0,0.0,0.0,-0.0784531980753,-0.0392265990376,9.88510322571,0.0,0.0,0.0,0.0,0.0,0.0,0.0,0.0,0.0
773502900,502013,1644544024419295073,1,0.0,0.0,0.0,0.0,0.0,0.0,0.0,0.0,0.0,0.0,0.0,0.0,0.0,0.0,0.0,0.0,0.0,0.0,0.0,0.0,0.0,0.0,0.0,0.0,0.0,-0.0392265990376,0.00980664975941,9.91452312469,0.0,0.0,0.0,0.0,0.0,0.0,0.0,0.0,0.0
775511200,502014,1644544024421307087,1,0.0,0.0,0.0,0.0,0.0,0.0,0.0,0.0,0.0,0.0,0.0,0.0,0.0,0.0,0.0,0.0,0.0,0.0,0.0,0.0,0.0,0.0,0.0,0.0,0.0,-0.0392265990376,0.0294199492782,9.96355628967,0.0,0.0,0.0,0.0,0.0,0.0,0.0,0.0,0.0
778046100,502015,1644544024423321009,1,0.0,0.0,0.0,0.0,0.0,0.0,0.0,0.0,0.0,0.0,0.0,0.0,0.0,0.0,0.0,0.0,0.0,0.0,0.0,0.0,0.0,0.0,0.0,0.0,0.0,-0.0294199492782,0.0,9.91452312469,0.0,0.0,0.0,0.0,0.0,0.0,0.0,0.0,0.0
779586800,502016,1644544024425335169,1,0.0,0.0,0.0,0.0,0.0,0.0,0.0,0.0,0.0,0.0,0.0,0.0,0.0,0.0,0.0,0.0,0.0,0.0,0.0,0.0,0.0,0.0,0.0,0.0,0.0,-0.0392265990376,0.0,9.8949098587,0.0,0.0,0.0,0.0,0.0,0.0,0.0,0.0,0.0
781482400,502017,1644544024427349091,1,0.0,0.0,0.0,0.0,0.0,0.0,0.0,0.0,0.0,0.0,0.0,0.0,0.0,0.0,0.0,0.0,0.0,0.0,0.0,0.0,0.0,0.0,0.0,0.0,0.0,-0.0392265990376,0.00980664975941,9.96355628967,0.0,0.0,0.0,0.0,0.0,0.0,0.0,0.0,0.0
783537400,502018,1644544024429361105,1,0.0,0.0,0.0,0.0,0.0,0.0,0.0,0.0,0.0,0.0,0.0,0.0,0.0,0.0,0.0,0.0,0.0,0.0,0.0,0.0,0.0,0.0,0.0,0.0,0.0,-0.0686465501785,0.0294199492782,9.86548995972,0.0,0.0,0.0,0.0,0.0,0.0,0.0,0.0,0.0
785478400,502019,1644544024431375027,1,0.0,0.0,0.0,0.0,0.0,0.0,0.0,0.0,0.0,0.0,0.0,0.0,0.0,0.0,0.0,0.0,0.0,0.0,0.0,0.0,0.0,0.0,0.0,0.0,0.0,-0.0784531980753,0.00980664975941,9.91452312469,0.0,0.0,0.0,0.0,0.0,0.0,0.0,0.0,0.0
787454300,502020,1644544024433388948,1,0.0,0.0,0.0,0.0,0.0,0.0,0.0,0.0,0.0,0.0,0.0,0.0,0.0,0.0,0.0,0.0,0.0,0.0,0.0,0.0,0.0,0.0,0.0,0.0,0.0,-0.0686465501785,0.0,9.88510322571,0.0,0.0,0.0,0.0,0.0,0.0,0.0,0.0,0.0
789455000,502021,1644544024435400963,1,0.0,0.0,0.0,0.0,0.0,0.0,0.0,0.0,0.0,0.0,0.0,0.0,0.0,0.0,0.0,0.0,0.0,0.0,0.0,0.0,0.0,0.0,0.0,0.0,0.0,-0.0784531980753,0.0,9.88510322571,0.0,0.0,0.0,0.0,0.0,0.0,0.0,0.0,0.0
792113900,502022,1644544024437414885,1,0.0,0.0,0.0,0.0,0.0,0.0,0.0,0.0,0.0,0.0,0.0,0.0,0.0,0.0,0.0,0.0,0.0,0.0,0.0,0.0,0.0,0.0,0.0,0.0,0.0,-0.0392265990376,0.0392265990376,9.96355628967,0.0,0.0,0.0,0.0,0.0,0.0,0.0,0.0,0.0
793747100,502023,1644544024439428806,1,0.0,0.0,0.0,0.0,0.0,0.0,0.0,0.0,0.0,0.0,0.0,0.0,0.0,0.0,0.0,0.0,0.0,0.0,0.0,0.0,0.0,0.0,0.0,0.0,0.0,-0.0686465501785,0.00980664975941,9.8949098587,0.0,0.0,0.0,0.0,0.0,0.0,0.0,0.0,0.0
795706300,502024,1644544024441442728,1,0.0,0.0,0.0,0.0,0.0,0.0,0.0,0.0,0.0,0.0,0.0,0.0,0.0,0.0,0.0,0.0,0.0,0.0,0.0,0.0,0.0,0.0,0.0,0.0,0.0,-0.0686465501785,0.0,9.94394302368,0.0,0.0,0.0,0.0,0.0,0.0,0.0,0.0,0.0
797743700,502025,1644544024443454504,1,0.0,0.0,0.0,0.0,0.0,0.0,0.0,0.0,0.0,0.0,0.0,0.0,0.0,0.0,0.0,0.0,0.0,0.0,0.0,0.0,0.0,0.0,0.0,0.0,0.0,-0.0784531980753,0.00980664975941,9.91452312469,0.0,0.0,0.0,0.0,0.0,0.0,0.0,0.0,0.0
799749900,502026,1644544024445468426,1,0.0,0.0,0.0,0.0,0.0,0.0,0.0,0.0,0.0,0.0,0.0,0.0,0.0,0.0,0.0,0.0,0.0,0.0,0.0,0.0,0.0,0.0,0.0,0.0,0.0,-0.0392265990376,0.0294199492782,9.88510322571,0.0,0.0,0.0,0.0,0.0,0.0,0.0,0.0,0.0
801708800,502027,1644544024447480440,1,0.0,0.0,0.0,0.0,0.0,0.0,0.0,0.0,0.0,0.0,0.0,0.0,0.0,0.0,0.0,0.0,0.0,0.0,0.0,0.0,0.0,0.0,0.0,0.0,0.0,-0.0784531980753,0.00980664975941,9.8949098587,0.0,0.0,0.0,0.0,0.0,0.0,0.0,0.0,0.0
803722700,502028,1644544024449494362,1,0.0,0.0,0.0,0.0,0.0,0.0,0.0,0.0,0.0,0.0,0.0,0.0,0.0,0.0,0.0,0.0,0.0,0.0,0.0,0.0,0.0,0.0,0.0,0.0,0.0,-0.0392265990376,0.00980664975941,9.8949098587,0.0,0.0,0.0,0.0,0.0,0.0,0.0,0.0,0.0
805712700,502029,1644544024451508284,1,0.0,0.0,0.0,0.0,0.0,0.0,0.0,0.0,0.0,0.0,0.0,0.0,0.0,0.0,0.0,0.0,0.0,0.0,0.0,0.0,0.0,0.0,0.0,0.0,0.0,-0.0686465501785,0.0392265990376,9.94394302368,0.0,0.0,0.0,0.0,0.0,0.0,0.0,0.0,0.0
807826500,502030,1644544024453520298,1,0.0,0.0,0.0,0.0,0.0,0.0,0.0,0.0,0.0,0.0,0.0,0.0,0.0,0.0,0.0,0.0,0.0,0.0,0.0,0.0,0.0,0.0,0.0,0.0,0.0,-0.0686465501785,0.00980664975941,9.88510322571,0.0,0.0,0.0,0.0,0.0,0.0,0.0,0.0,0.0
809707400,502031,1644544024455534220,1,0.0,0.0,0.0,0.0,0.0,0.0,0.0,0.0,0.0,0.0,0.0,0.0,0.0,0.0,0.0,0.0,0.0,0.0,0.0,0.0,0.0,0.0,0.0,0.0,0.0,-0.0686465501785,0.0294199492782,9.96355628967,0.0,0.0,0.0,0.0,0.0,0.0,0.0,0.0,0.0
811689800,502032,1644544024457548141,1,0.0,0.0,0.0,0.0,0.0,0.0,0.0,0.0,0.0,0.0,0.0,0.0,0.0,0.0,0.0,0.0,0.0,0.0,0.0,0.0,0.0,0.0,0.0,0.0,0.0,-0.0392265990376,0.00980664975941,9.96355628967,0.0,0.0,0.0,0.0,0.0,0.0,0.0,0.0,0.0
813760700,502033,1644544024459562063,1,0.0,0.0,0.0,0.0,0.0,0.0,0.0,0.0,0.0,0.0,0.0,0.0,0.0,0.0,0.0,0.0,0.0,0.0,0.0,0.0,0.0,0.0,0.0,0.0,0.0,-0.0392265990376,0.0,9.96355628967,0.0,0.0,0.0,0.0,0.0,0.0,0.0,0.0,0.0
815693000,502034,1644544024461574078,1,0.0,0.0,0.0,0.0,0.0,0.0,0.0,0.0,0.0,0.0,0.0,0.0,0.0,0.0,0.0,0.0,0.0,0.0,0.0,0.0,0.0,0.0,0.0,0.0,0.0,-0.0686465501785,0.0,9.94394302368,0.0,0.0,0.0,0.0,0.0,0.0,0.0,0.0,0.0
817688800,502035,1644544024463587999,1,0.0,0.0,0.0,0.0,0.0,0.0,0.0,0.0,0.0,0.0,0.0,0.0,0.0,0.0,0.0,0.0,0.0,0.0,0.0,0.0,0.0,0.0,0.0,0.0,0.0,-0.0392265990376,0.0686465501785,9.94394302368,0.0,0.0,0.0,0.0,0.0,0.0,0.0,0.0,0.0
819682100,502036,1644544024465601921,1,0.0,0.0,0.0,0.0,0.0,0.0,0.0,0.0,0.0,0.0,0.0,0.0,0.0,0.0,0.0,0.0,0.0,0.0,0.0,0.0,0.0,0.0,0.0,0.0,0.0,-0.0294199492782,0.00980664975941,9.99297618866,0.0,0.0,0.0,0.0,0.0,0.0,0.0,0.0,0.0
821684000,502037,1644544024467613697,1,0.0,0.0,0.0,0.0,0.0,0.0,0.0,0.0,0.0,0.0,0.0,0.0,0.0,0.0,0.0,0.0,0.0,0.0,0.0,0.0,0.0,0.0,0.0,0.0,0.0,-0.0980664938688,0.00980664975941,9.8949098587,0.0,0.0,0.0,0.0,0.0,0.0,0.0,0.0,0.0
823845400,502038,1644544024469627619,1,0.0,0.0,0.0,0.0,0.0,0.0,0.0,0.0,0.0,0.0,0.0,0.0,0.0,0.0,0.0,0.0,0.0,0.0,0.0,0.0,0.0,0.0,0.0,0.0,0.0,-0.0294199492782,0.00980664975941,9.88510322571,0.0,0.0,0.0,0.0,0.0,0.0,0.0,0.0,0.0
825965100,502039,1644544024471639633,1,0.0,0.0,0.0,0.0,0.0,0.0,0.0,0.0,0.0,0.0,0.0,0.0,0.0,0.0,0.0,0.0,0.0,0.0,0.0,0.0,0.0,0.0,0.0,0.0,0.0,-0.0686465501785,0.00980664975941,9.91452312469,0.0,0.0,0.0,0.0,0.0,0.0,0.0,0.0,0.0
828201900,502040,1644544024473653555,1,0.0,0.0,0.0,0.0,0.0,0.0,0.0,0.0,0.0,0.0,0.0,0.0,0.0,0.0,0.0,0.0,0.0,0.0,0.0,0.0,0.0,0.0,0.0,0.0,0.0,-0.0392265990376,0.00980664975941,9.94394302368,0.0,0.0,0.0,0.0,0.0,0.0,0.0,0.0,0.0
829996400,502041,1644544024475667477,1,0.0,0.0,0.0,0.0,0.0,0.0,0.0,0.0,0.0,0.0,0.0,0.0,0.0,0.0,0.0,0.0,0.0,0.0,0.0,0.0,0.0,0.0,0.0,0.0,0.0,-0.0294199492782,0.0294199492782,9.94394302368,0.0,0.0,0.0,0.0,0.0,0.0,0.0,0.0,0.0
832246900,502042,1644544024477681637,1,0.0,0.0,0.0,0.0,0.0,0.0,0.0,0.0,0.0,0.0,0.0,0.0,0.0,0.0,0.0,0.0,0.0,0.0,0.0,0.0,0.0,0.0,0.0,0.0,0.0,-0.0294199492782,0.0,9.96355628967,0.0,0.0,0.0,0.0,0.0,0.0,0.0,0.0,0.0
833989200,502043,1644544024479693413,1,0.0,0.0,0.0,0.0,0.0,0.0,0.0,0.0,0.0,0.0,0.0,0.0,0.0,0.0,0.0,0.0,0.0,0.0,0.0,0.0,0.0,0.0,0.0,0.0,0.0,-0.0686465501785,0.0392265990376,9.91452312469,0.0,0.0,0.0,0.0,0.0,0.0,0.0,0.0,0.0
835942700,502044,1644544024481707573,1,0.0,0.0,0.0,0.0,0.0,0.0,0.0,0.0,0.0,0.0,0.0,0.0,0.0,0.0,0.0,0.0,0.0,0.0,0.0,0.0,0.0,0.0,0.0,0.0,0.0,-0.0686465501785,0.00980664975941,9.88510322571,0.0,0.0,0.0,0.0,0.0,0.0,0.0,0.0,0.0
838530800,502045,1644544024483719587,1,0.0,0.0,0.0,0.0,0.0,0.0,0.0,0.0,0.0,0.0,0.0,0.0,0.0,0.0,0.0,0.0,0.0,0.0,0.0,0.0,0.0,0.0,0.0,0.0,0.0,-0.0294199492782,0.0,9.8949098587,0.0,0.0,0.0,0.0,0.0,0.0,0.0,0.0,0.0
840481300,502046,1644544024485733509,1,0.0,0.0,0.0,0.0,0.0,0.0,0.0,0.0,0.0,0.0,0.0,0.0,0.0,0.0,0.0,0.0,0.0,0.0,0.0,0.0,0.0,0.0,0.0,0.0,0.0,-0.0294199492782,0.00980664975941,9.8949098587,0.0,0.0,0.0,0.0,0.0,0.0,0.0,0.0,0.0
842363800,502047,1644544024487747431,1,0.0,0.0,0.0,0.0,0.0,0.0,0.0,0.0,0.0,0.0,0.0,0.0,0.0,0.0,0.0,0.0,0.0,0.0,0.0,0.0,0.0,0.0,0.0,0.0,0.0,-0.0294199492782,0.0686465501785,9.94394302368,0.0,0.0,0.0,0.0,0.0,0.0,0.0,0.0,0.0
844276600,502048,1644544024489759207,1,0.0,0.0,0.0,0.0,0.0,0.0,0.0,0.0,0.0,0.0,0.0,0.0,0.0,0.0,0.0,0.0,0.0,0.0,0.0,0.0,0.0,0.0,0.0,0.0,0.0,-0.0294199492782,0.00980664975941,9.94394302368,0.0,0.0,0.0,0.0,0.0,0.0,0.0,0.0,0.0
846310900,502049,1644544024491773129,1,0.0,0.0,0.0,0.0,0.0,0.0,0.0,0.0,0.0,0.0,0.0,0.0,0.0,0.0,0.0,0.0,0.0,0.0,0.0,0.0,0.0,0.0,0.0,0.0,0.0,-0.0392265990376,0.0294199492782,9.91452312469,0.0,0.0,0.0,0.0,0.0,0.0,0.0,0.0,0.0
848261900,502050,1644544024493787050,1,0.0,0.0,0.0,0.0,0.0,0.0,0.0,0.0,0.0,0.0,0.0,0.0,0.0,0.0,0.0,0.0,0.0,0.0,0.0,0.0,0.0,0.0,0.0,0.0,0.0,-0.0294199492782,0.0,9.91452312469,0.0,0.0,0.0,0.0,0.0,0.0,0.0,0.0,0.0
850263900,502051,1644544024495799065,1,0.0,0.0,0.0,0.0,0.0,0.0,0.0,0.0,0.0,0.0,0.0,0.0,0.0,0.0,0.0,0.0,0.0,0.0,0.0,0.0,0.0,0.0,0.0,0.0,0.0,-0.0686465501785,0.00980664975941,9.96355628967,0.0,0.0,0.0,0.0,0.0,0.0,0.0,0.0,0.0
852312400,502052,1644544024497812986,1,0.0,0.0,0.0,0.0,0.0,0.0,0.0,0.0,0.0,0.0,0.0,0.0,0.0,0.0,0.0,0.0,0.0,0.0,0.0,0.0,0.0,0.0,0.0,0.0,0.0,-0.0294199492782,0.00980664975941,9.99297618866,0.0,0.0,0.0,0.0,0.0,0.0,0.0,0.0,0.0
854466500,502053,1644544024499825001,1,0.0,0.0,0.0,0.0,0.0,0.0,0.0,0.0,0.0,0.0,0.0,0.0,0.0,0.0,0.0,0.0,0.0,0.0,0.0,0.0,0.0,0.0,0.0,0.0,0.0,-0.0294199492782,0.0,9.99297618866,0.0,0.0,0.0,0.0,0.0,0.0,0.0,0.0,0.0
856228800,502054,1644544024501838923,1,0.0,0.0,0.0,0.0,0.0,0.0,0.0,0.0,0.0,0.0,0.0,0.0,0.0,0.0,0.0,0.0,0.0,0.0,0.0,0.0,0.0,0.0,0.0,0.0,0.0,-0.0392265990376,0.0,9.94394302368,0.0,0.0,0.0,0.0,0.0,0.0,0.0,0.0,0.0
858239300,502055,1644544024503852844,1,0.0,0.0,0.0,0.0,0.0,0.0,0.0,0.0,0.0,0.0,0.0,0.0,0.0,0.0,0.0,0.0,0.0,0.0,0.0,0.0,0.0,0.0,0.0,0.0,0.0,-0.0392265990376,0.0294199492782,9.96355628967,0.0,0.0,0.0,0.0,0.0,0.0,0.0,0.0,0.0
860233600,502056,1644544024505864859,1,0.0,0.0,0.0,0.0,0.0,0.0,0.0,0.0,0.0,0.0,0.0,0.0,0.0,0.0,0.0,0.0,0.0,0.0,0.0,0.0,0.0,0.0,0.0,0.0,0.0,-0.0392265990376,0.0,9.98316955566,0.0,0.0,0.0,0.0,0.0,0.0,0.0,0.0,0.0
862234000,502057,1644544024507878780,1,0.0,0.0,0.0,0.0,0.0,0.0,0.0,0.0,0.0,0.0,0.0,0.0,0.0,0.0,0.0,0.0,0.0,0.0,0.0,0.0,0.0,0.0,0.0,0.0,0.0,-0.00980664975941,0.00980664975941,9.8949098587,0.0,0.0,0.0,0.0,0.0,0.0,0.0,0.0,0.0
864253600,502058,1644544024509890556,1,0.0,0.0,0.0,0.0,0.0,0.0,0.0,0.0,0.0,0.0,0.0,0.0,0.0,0.0,0.0,0.0,0.0,0.0,0.0,0.0,0.0,0.0,0.0,0.0,0.0,-0.0294199492782,0.00980664975941,9.91452312469,0.0,0.0,0.0,0.0,0.0,0.0,0.0,0.0,0.0
866237800,502059,1644544024511904478,1,0.0,0.0,0.0,0.0,0.0,0.0,0.0,0.0,0.0,0.0,0.0,0.0,0.0,0.0,0.0,0.0,0.0,0.0,0.0,0.0,0.0,0.0,0.0,0.0,0.0,-0.0392265990376,0.0,9.98316955566,0.0,0.0,0.0,0.0,0.0,0.0,0.0,0.0,0.0
868244400,502060,1644544024513916492,1,0.0,0.0,0.0,0.0,0.0,0.0,0.0,0.0,0.0,0.0,0.0,0.0,0.0,0.0,0.0,0.0,0.0,0.0,0.0,0.0,0.0,0.0,0.0,0.0,0.0,-0.0686465501785,0.0392265990376,9.96355628967,0.0,0.0,0.0,0.0,0.0,0.0,0.0,0.0,0.0
870264600,502061,1644544024515928507,1,0.0,0.0,0.0,0.0,0.0,0.0,0.0,0.0,0.0,0.0,0.0,0.0,0.0,0.0,0.0,0.0,0.0,0.0,0.0,0.0,0.0,0.0,0.0,0.0,0.0,-0.0294199492782,0.0,9.94394302368,0.0,0.0,0.0,0.0,0.0,0.0,0.0,0.0,0.0
872236600,502062,1644544024517942429,1,0.0,0.0,0.0,0.0,0.0,0.0,0.0,0.0,0.0,0.0,0.0,0.0,0.0,0.0,0.0,0.0,0.0,0.0,0.0,0.0,0.0,0.0,0.0,0.0,0.0,-0.0392265990376,0.0,9.96355628967,0.0,0.0,0.0,0.0,0.0,0.0,0.0,0.0,0.0
874236100,502063,1644544024519956350,1,0.0,0.0,0.0,0.0,0.0,0.0,0.0,0.0,0.0,0.0,0.0,0.0,0.0,0.0,0.0,0.0,0.0,0.0,0.0,0.0,0.0,0.0,0.0,0.0,0.0,-0.0686465501785,0.0,9.8949098587,0.0,0.0,0.0,0.0,0.0,0.0,0.0,0.0,0.0
876238700,502064,1644544024521968365,1,0.0,0.0,0.0,0.0,0.0,0.0,0.0,0.0,0.0,0.0,0.0,0.0,0.0,0.0,0.0,0.0,0.0,0.0,0.0,0.0,0.0,0.0,0.0,0.0,0.0,-0.0784531980753,0.0294199492782,9.91452312469,0.0,0.0,0.0,0.0,0.0,0.0,0.0,0.0,0.0
878314700,502065,1644544024523980141,1,0.0,0.0,0.0,0.0,0.0,0.0,0.0,0.0,0.0,0.0,0.0,0.0,0.0,0.0,0.0,0.0,0.0,0.0,0.0,0.0,0.0,0.0,0.0,0.0,0.0,-0.0392265990376,0.00980664975941,9.94394302368,0.0,0.0,0.0,0.0,0.0,0.0,0.0,0.0,0.0
880292000,502066,1644544024525994062,1,0.0,0.0,0.0,0.0,0.0,0.0,0.0,0.0,0.0,0.0,0.0,0.0,0.0,0.0,0.0,0.0,0.0,0.0,0.0,0.0,0.0,0.0,0.0,0.0,0.0,-0.0686465501785,0.0294199492782,9.8949098587,0.0,0.0,0.0,0.0,0.0,0.0,0.0,0.0,0.0
882322500,502067,1644544024528006077,1,0.0,0.0,0.0,0.0,0.0,0.0,0.0,0.0,0.0,0.0,0.0,0.0,0.0,0.0,0.0,0.0,0.0,0.0,0.0,0.0,0.0,0.0,0.0,0.0,0.0,-0.0980664938688,0.0,9.98316955566,0.0,0.0,0.0,0.0,0.0,0.0,0.0,0.0,0.0
884354200,502068,1644544024530019999,1,0.0,0.0,0.0,0.0,0.0,0.0,0.0,0.0,0.0,0.0,0.0,0.0,0.0,0.0,0.0,0.0,0.0,0.0,0.0,0.0,0.0,0.0,0.0,0.0,0.0,-0.0294199492782,0.0392265990376,9.91452312469,0.0,0.0,0.0,0.0,0.0,0.0,0.0,0.0,0.0
886232100,502069,1644544024532032013,1,0.0,0.0,0.0,0.0,0.0,0.0,0.0,0.0,0.0,0.0,0.0,0.0,0.0,0.0,0.0,0.0,0.0,0.0,0.0,0.0,0.0,0.0,0.0,0.0,0.0,-0.0686465501785,0.0294199492782,9.94394302368,0.0,0.0,0.0,0.0,0.0,0.0,0.0,0.0,0.0
888288200,502070,1644544024534045935,1,0.0,0.0,0.0,0.0,0.0,0.0,0.0,0.0,0.0,0.0,0.0,0.0,0.0,0.0,0.0,0.0,0.0,0.0,0.0,0.0,0.0,0.0,0.0,0.0,0.0,-0.0686465501785,0.00980664975941,9.96355628967,0.0,0.0,0.0,0.0,0.0,0.0,0.0,0.0,0.0
890367900,502071,1644544024536057949,1,0.0,0.0,0.0,0.0,0.0,0.0,0.0,0.0,0.0,0.0,0.0,0.0,0.0,0.0,0.0,0.0,0.0,0.0,0.0,0.0,0.0,0.0,0.0,0.0,0.0,-0.0392265990376,0.00980664975941,9.91452312469,0.0,0.0,0.0,0.0,0.0,0.0,0.0,0.0,0.0
892327200,502072,1644544024538071871,1,0.0,0.0,0.0,0.0,0.0,0.0,0.0,0.0,0.0,0.0,0.0,0.0,0.0,0.0,0.0,0.0,0.0,0.0,0.0,0.0,0.0,0.0,0.0,0.0,0.0,-0.0392265990376,0.0294199492782,9.91452312469,0.0,0.0,0.0,0.0,0.0,0.0,0.0,0.0,0.0
894281600,502073,1644544024540085793,1,0.0,0.0,0.0,0.0,0.0,0.0,0.0,0.0,0.0,0.0,0.0,0.0,0.0,0.0,0.0,0.0,0.0,0.0,0.0,0.0,0.0,0.0,0.0,0.0,0.0,-0.0686465501785,0.00980664975941,9.91452312469,0.0,0.0,0.0,0.0,0.0,0.0,0.0,0.0,0.0
896380100,502074,1644544024542097569,1,0.0,0.0,0.0,0.0,0.0,0.0,0.0,0.0,0.0,0.0,0.0,0.0,0.0,0.0,0.0,0.0,0.0,0.0,0.0,0.0,0.0,0.0,0.0,0.0,0.0,-0.0784531980753,0.00980664975941,9.99297618866,0.0,0.0,0.0,0.0,0.0,0.0,0.0,0.0,0.0
898429700,502075,1644544024544109583,1,0.0,0.0,0.0,0.0,0.0,0.0,0.0,0.0,0.0,0.0,0.0,0.0,0.0,0.0,0.0,0.0,0.0,0.0,0.0,0.0,0.0,0.0,0.0,0.0,0.0,-0.0686465501785,0.0,9.94394302368,0.0,0.0,0.0,0.0,0.0,0.0,0.0,0.0,0.0
900289200,502076,1644544024546123505,1,0.0,0.0,0.0,0.0,0.0,0.0,0.0,0.0,0.0,0.0,0.0,0.0,0.0,0.0,0.0,0.0,0.0,0.0,0.0,0.0,0.0,0.0,0.0,0.0,0.0,-0.0784531980753,0.00980664975941,9.91452312469,0.0,0.0,0.0,0.0,0.0,0.0,0.0,0.0,0.0
902330800,502077,1644544024548135519,1,0.0,0.0,0.0,0.0,0.0,0.0,0.0,0.0,0.0,0.0,0.0,0.0,0.0,0.0,0.0,0.0,0.0,0.0,0.0,0.0,0.0,0.0,0.0,0.0,0.0,-0.0686465501785,0.0294199492782,9.8949098587,0.0,0.0,0.0,0.0,0.0,0.0,0.0,0.0,0.0
904299400,502078,1644544024550149441,1,0.0,0.0,0.0,0.0,0.0,0.0,0.0,0.0,0.0,0.0,0.0,0.0,0.0,0.0,0.0,0.0,0.0,0.0,0.0,0.0,0.0,0.0,0.0,0.0,0.0,-0.00980664975941,0.0294199492782,9.99297618866,0.0,0.0,0.0,0.0,0.0,0.0,0.0,0.0,0.0
906272600,502079,1644544024552161455,1,0.0,0.0,0.0,0.0,0.0,0.0,0.0,0.0,0.0,0.0,0.0,0.0,0.0,0.0,0.0,0.0,0.0,0.0,0.0,0.0,0.0,0.0,0.0,0.0,0.0,-0.0980664938688,0.00980664975941,9.8949098587,0.0,0.0,0.0,0.0,0.0,0.0,0.0,0.0,0.0
908513000,502080,1644544024554175377,1,0.0,0.0,0.0,0.0,0.0,0.0,0.0,0.0,0.0,0.0,0.0,0.0,0.0,0.0,0.0,0.0,0.0,0.0,0.0,0.0,0.0,0.0,0.0,0.0,0.0,-0.0392265990376,0.0294199492782,9.8949098587,0.0,0.0,0.0,0.0,0.0,0.0,0.0,0.0,0.0
910483300,502081,1644544024556187153,1,0.0,0.0,0.0,0.0,0.0,0.0,0.0,0.0,0.0,0.0,0.0,0.0,0.0,0.0,0.0,0.0,0.0,0.0,0.0,0.0,0.0,0.0,0.0,0.0,0.0,-0.0784531980753,0.0294199492782,9.88510322571,0.0,0.0,0.0,0.0,0.0,0.0,0.0,0.0,0.0
912542800,502082,1644544024558199167,1,0.0,0.0,0.0,0.0,0.0,0.0,0.0,0.0,0.0,0.0,0.0,0.0,0.0,0.0,0.0,0.0,0.0,0.0,0.0,0.0,0.0,0.0,0.0,0.0,0.0,-0.0392265990376,0.00980664975941,9.88510322571,0.0,0.0,0.0,0.0,0.0,0.0,0.0,0.0,0.0
914544100,502083,1644544024560213089,1,0.0,0.0,0.0,0.0,0.0,0.0,0.0,0.0,0.0,0.0,0.0,0.0,0.0,0.0,0.0,0.0,0.0,0.0,0.0,0.0,0.0,0.0,0.0,0.0,0.0,-0.0980664938688,0.0294199492782,9.8949098587,0.0,0.0,0.0,0.0,0.0,0.0,0.0,0.0,0.0
916573300,502084,1644544024562225103,1,0.0,0.0,0.0,0.0,0.0,0.0,0.0,0.0,0.0,0.0,0.0,0.0,0.0,0.0,0.0,0.0,0.0,0.0,0.0,0.0,0.0,0.0,0.0,0.0,0.0,-0.0686465501785,0.00980664975941,9.96355628967,0.0,0.0,0.0,0.0,0.0,0.0,0.0,0.0,0.0
918496600,502085,1644544024564239025,1,0.0,0.0,0.0,0.0,0.0,0.0,0.0,0.0,0.0,0.0,0.0,0.0,0.0,0.0,0.0,0.0,0.0,0.0,0.0,0.0,0.0,0.0,0.0,0.0,0.0,-0.0294199492782,0.0294199492782,9.88510322571,0.0,0.0,0.0,0.0,0.0,0.0,0.0,0.0,0.0
920487300,502086,1644544024566251040,1,0.0,0.0,0.0,0.0,0.0,0.0,0.0,0.0,0.0,0.0,0.0,0.0,0.0,0.0,0.0,0.0,0.0,0.0,0.0,0.0,0.0,0.0,0.0,0.0,0.0,-0.0294199492782,0.0392265990376,9.8949098587,0.0,0.0,0.0,0.0,0.0,0.0,0.0,0.0,0.0
922515800,502087,1644544024568264961,1,0.0,0.0,0.0,0.0,0.0,0.0,0.0,0.0,0.0,0.0,0.0,0.0,0.0,0.0,0.0,0.0,0.0,0.0,0.0,0.0,0.0,0.0,0.0,0.0,0.0,-0.0784531980753,0.0686465501785,9.91452312469,0.0,0.0,0.0,0.0,0.0,0.0,0.0,0.0,0.0
924480700,502088,1644544024570276737,1,0.0,0.0,0.0,0.0,0.0,0.0,0.0,0.0,0.0,0.0,0.0,0.0,0.0,0.0,0.0,0.0,0.0,0.0,0.0,0.0,0.0,0.0,0.0,0.0,0.0,-0.0784531980753,0.0686465501785,9.8949098587,0.0,0.0,0.0,0.0,0.0,0.0,0.0,0.0,0.0
926607400,502089,1644544024572290659,1,0.0,0.0,0.0,0.0,0.0,0.0,0.0,0.0,0.0,0.0,0.0,0.0,0.0,0.0,0.0,0.0,0.0,0.0,0.0,0.0,0.0,0.0,0.0,0.0,0.0,-0.0784531980753,0.00980664975941,9.91452312469,0.0,0.0,0.0,0.0,0.0,0.0,0.0,0.0,0.0
928525700,502090,1644544024574302673,1,0.0,0.0,0.0,0.0,0.0,0.0,0.0,0.0,0.0,0.0,0.0,0.0,0.0,0.0,0.0,0.0,0.0,0.0,0.0,0.0,0.0,0.0,0.0,0.0,0.0,-0.0980664938688,0.0294199492782,9.91452312469,0.0,0.0,0.0,0.0,0.0,0.0,0.0,0.0,0.0
930628400,502091,1644544024576316595,1,0.0,0.0,0.0,0.0,0.0,0.0,0.0,0.0,0.0,0.0,0.0,0.0,0.0,0.0,0.0,0.0,0.0,0.0,0.0,0.0,0.0,0.0,0.0,0.0,0.0,-0.0392265990376,0.0392265990376,9.8949098587,0.0,0.0,0.0,0.0,0.0,0.0,0.0,0.0,0.0
932597800,502092,1644544024578328609,1,0.0,0.0,0.0,0.0,0.0,0.0,0.0,0.0,0.0,0.0,0.0,0.0,0.0,0.0,0.0,0.0,0.0,0.0,0.0,0.0,0.0,0.0,0.0,0.0,0.0,-0.0392265990376,0.00980664975941,9.8949098587,0.0,0.0,0.0,0.0,0.0,0.0,0.0,0.0,0.0
934449300,502093,1644544024580342770,1,0.0,0.0,0.0,0.0,0.0,0.0,0.0,0.0,0.0,0.0,0.0,0.0,0.0,0.0,0.0,0.0,0.0,0.0,0.0,0.0,0.0,0.0,0.0,0.0,0.0,-0.0784531980753,0.00980664975941,9.94394302368,0.0,0.0,0.0,0.0,0.0,0.0,0.0,0.0,0.0
936497100,502094,1644544024582354546,1,0.0,0.0,0.0,0.0,0.0,0.0,0.0,0.0,0.0,0.0,0.0,0.0,0.0,0.0,0.0,0.0,0.0,0.0,0.0,0.0,0.0,0.0,0.0,0.0,0.0,-0.0980664938688,0.0294199492782,9.94394302368,0.0,0.0,0.0,0.0,0.0,0.0,0.0,0.0,0.0
938437900,502095,1644544024584368706,1,0.0,0.0,0.0,0.0,0.0,0.0,0.0,0.0,0.0,0.0,0.0,0.0,0.0,0.0,0.0,0.0,0.0,0.0,0.0,0.0,0.0,0.0,0.0,0.0,0.0,-0.0686465501785,0.00980664975941,9.88510322571,0.0,0.0,0.0,0.0,0.0,0.0,0.0,0.0,0.0
940446900,502096,1644544024586380482,1,0.0,0.0,0.0,0.0,0.0,0.0,0.0,0.0,0.0,0.0,0.0,0.0,0.0,0.0,0.0,0.0,0.0,0.0,0.0,0.0,0.0,0.0,0.0,0.0,0.0,-0.00980664975941,0.0294199492782,9.8949098587,0.0,0.0,0.0,0.0,0.0,0.0,0.0,0.0,0.0
942523100,502097,1644544024588394642,1,0.0,0.0,0.0,0.0,0.0,0.0,0.0,0.0,0.0,0.0,0.0,0.0,0.0,0.0,0.0,0.0,0.0,0.0,0.0,0.0,0.0,0.0,0.0,0.0,0.0,-0.0392265990376,-0.00980664975941,9.94394302368,0.0,0.0,0.0,0.0,0.0,0.0,0.0,0.0,0.0
944665000,502098,1644544024590406418,1,0.0,0.0,0.0,0.0,0.0,0.0,0.0,0.0,0.0,0.0,0.0,0.0,0.0,0.0,0.0,0.0,0.0,0.0,0.0,0.0,0.0,0.0,0.0,0.0,0.0,-0.0784531980753,0.0,9.94394302368,0.0,0.0,0.0,0.0,0.0,0.0,0.0,0.0,0.0
946899400,502099,1644544024592420340,1,0.0,0.0,0.0,0.0,0.0,0.0,0.0,0.0,0.0,0.0,0.0,0.0,0.0,0.0,0.0,0.0,0.0,0.0,0.0,0.0,0.0,0.0,0.0,0.0,0.0,-0.0294199492782,0.0,9.94394302368,0.0,0.0,0.0,0.0,0.0,0.0,0.0,0.0,0.0
948779700,502100,1644544024594432354,1,0.0,0.0,0.0,0.0,0.0,0.0,0.0,0.0,0.0,0.0,0.0,0.0,0.0,0.0,0.0,0.0,0.0,0.0,0.0,0.0,0.0,0.0,0.0,0.0,0.0,-0.0686465501785,0.0,9.8949098587,0.0,0.0,0.0,0.0,0.0,0.0,0.0,0.0,0.0
951073300,502101,1644544024596446276,1,0.0,0.0,0.0,0.0,0.0,0.0,0.0,0.0,0.0,0.0,0.0,0.0,0.0,0.0,0.0,0.0,0.0,0.0,0.0,0.0,0.0,0.0,0.0,0.0,0.0,-0.0686465501785,-0.00980664975941,9.94394302368,0.0,0.0,0.0,0.0,0.0,0.0,0.0,0.0,0.0
953064500,502102,1644544024598458290,1,0.0,0.0,0.0,0.0,0.0,0.0,0.0,0.0,0.0,0.0,0.0,0.0,0.0,0.0,0.0,0.0,0.0,0.0,0.0,0.0,0.0,0.0,0.0,0.0,0.0,-0.0392265990376,0.0294199492782,9.91452312469,0.0,0.0,0.0,0.0,0.0,0.0,0.0,0.0,0.0
955000200,502103,1644544024600472212,1,0.0,0.0,0.0,0.0,0.0,0.0,0.0,0.0,0.0,0.0,0.0,0.0,0.0,0.0,0.0,0.0,0.0,0.0,0.0,0.0,0.0,0.0,0.0,0.0,0.0,-0.0392265990376,0.00980664975941,9.91452312469,0.0,0.0,0.0,0.0,0.0,0.0,0.0,0.0,0.0
957051300,502104,1644544024602484226,1,0.0,0.0,0.0,0.0,0.0,0.0,0.0,0.0,0.0,0.0,0.0,0.0,0.0,0.0,0.0,0.0,0.0,0.0,0.0,0.0,0.0,0.0,0.0,0.0,0.0,-0.0392265990376,0.0,9.91452312469,0.0,0.0,0.0,0.0,0.0,0.0,0.0,0.0,0.0
958707800,502105,1644544024604498148,1,0.0,0.0,0.0,0.0,0.0,0.0,0.0,0.0,0.0,0.0,0.0,0.0,0.0,0.0,0.0,0.0,0.0,0.0,0.0,0.0,0.0,0.0,0.0,0.0,0.0,-0.0294199492782,0.0294199492782,9.88510322571,0.0,0.0,0.0,0.0,0.0,0.0,0.0,0.0,0.0
961090900,502106,1644544024606509924,1,0.0,0.0,0.0,0.0,0.0,0.0,0.0,0.0,0.0,0.0,0.0,0.0,0.0,0.0,0.0,0.0,0.0,0.0,0.0,0.0,0.0,0.0,0.0,0.0,0.0,-0.00980664975941,0.00980664975941,9.96355628967,0.0,0.0,0.0,0.0,0.0,0.0,0.0,0.0,0.0
963256600,502107,1644544024608523846,1,0.0,0.0,0.0,0.0,0.0,0.0,0.0,0.0,0.0,0.0,0.0,0.0,0.0,0.0,0.0,0.0,0.0,0.0,0.0,0.0,0.0,0.0,0.0,0.0,0.0,-0.0686465501785,0.0,9.8949098587,0.0,0.0,0.0,0.0,0.0,0.0,0.0,0.0,0.0
965017100,502108,1644544024610535860,1,0.0,0.0,0.0,0.0,0.0,0.0,0.0,0.0,0.0,0.0,0.0,0.0,0.0,0.0,0.0,0.0,0.0,0.0,0.0,0.0,0.0,0.0,0.0,0.0,0.0,-0.0784531980753,0.0294199492782,9.8949098587,0.0,0.0,0.0,0.0,0.0,0.0,0.0,0.0,0.0
967006300,502109,1644544024612547874,1,0.0,0.0,0.0,0.0,0.0,0.0,0.0,0.0,0.0,0.0,0.0,0.0,0.0,0.0,0.0,0.0,0.0,0.0,0.0,0.0,0.0,0.0,0.0,0.0,0.0,-0.00980664975941,0.00980664975941,9.8949098587,0.0,0.0,0.0,0.0,0.0,0.0,0.0,0.0,0.0
969078300,502110,1644544024614561796,1,0.0,0.0,0.0,0.0,0.0,0.0,0.0,0.0,0.0,0.0,0.0,0.0,0.0,0.0,0.0,0.0,0.0,0.0,0.0,0.0,0.0,0.0,0.0,0.0,0.0,-0.0392265990376,0.00980664975941,9.91452312469,0.0,0.0,0.0,0.0,0.0,0.0,0.0,0.0,0.0
971029300,502111,1644544024616575718,1,0.0,0.0,0.0,0.0,0.0,0.0,0.0,0.0,0.0,0.0,0.0,0.0,0.0,0.0,0.0,0.0,0.0,0.0,0.0,0.0,0.0,0.0,0.0,0.0,0.0,-0.0686465501785,0.00980664975941,9.94394302368,0.0,0.0,0.0,0.0,0.0,0.0,0.0,0.0,0.0
973072200,502112,1644544024618587732,1,0.0,0.0,0.0,0.0,0.0,0.0,0.0,0.0,0.0,0.0,0.0,0.0,0.0,0.0,0.0,0.0,0.0,0.0,0.0,0.0,0.0,0.0,0.0,0.0,0.0,-0.0686465501785,0.0294199492782,9.8949098587,0.0,0.0,0.0,0.0,0.0,0.0,0.0,0.0,0.0
975054400,502113,1644544024620599508,1,0.0,0.0,0.0,0.0,0.0,0.0,0.0,0.0,0.0,0.0,0.0,0.0,0.0,0.0,0.0,0.0,0.0,0.0,0.0,0.0,0.0,0.0,0.0,0.0,0.0,-0.00980664975941,0.00980664975941,9.94394302368,0.0,0.0,0.0,0.0,0.0,0.0,0.0,0.0,0.0
977287900,502114,1644544024622613430,1,0.0,0.0,0.0,0.0,0.0,0.0,0.0,0.0,0.0,0.0,0.0,0.0,0.0,0.0,0.0,0.0,0.0,0.0,0.0,0.0,0.0,0.0,0.0,0.0,0.0,-0.00980664975941,-0.00980664975941,9.96355628967,0.0,0.0,0.0,0.0,0.0,0.0,0.0,0.0,0.0
979226000,502115,1644544024624625444,1,0.0,0.0,0.0,0.0,0.0,0.0,0.0,0.0,0.0,0.0,0.0,0.0,0.0,0.0,0.0,0.0,0.0,0.0,0.0,0.0,0.0,0.0,0.0,0.0,0.0,-0.00980664975941,0.0686465501785,9.86548995972,0.0,0.0,0.0,0.0,0.0,0.0,0.0,0.0,0.0
981045800,502116,1644544024626639366,1,0.0,0.0,0.0,0.0,0.0,0.0,0.0,0.0,0.0,0.0,0.0,0.0,0.0,0.0,0.0,0.0,0.0,0.0,0.0,0.0,0.0,0.0,0.0,0.0,0.0,-0.0686465501785,0.0294199492782,9.88510322571,0.0,0.0,0.0,0.0,0.0,0.0,0.0,0.0,0.0
983048300,502117,1644544024628651381,1,0.0,0.0,0.0,0.0,0.0,0.0,0.0,0.0,0.0,0.0,0.0,0.0,0.0,0.0,0.0,0.0,0.0,0.0,0.0,0.0,0.0,0.0,0.0,0.0,0.0,-0.0294199492782,0.0392265990376,9.96355628967,0.0,0.0,0.0,0.0,0.0,0.0,0.0,0.0,0.0
985007000,502118,1644544024630665302,1,0.0,0.0,0.0,0.0,0.0,0.0,0.0,0.0,0.0,0.0,0.0,0.0,0.0,0.0,0.0,0.0,0.0,0.0,0.0,0.0,0.0,0.0,0.0,0.0,0.0,-0.0686465501785,0.0392265990376,9.91452312469,0.0,0.0,0.0,0.0,0.0,0.0,0.0,0.0,0.0
987008700,502119,1644544024632679224,1,0.0,0.0,0.0,0.0,0.0,0.0,0.0,0.0,0.0,0.0,0.0,0.0,0.0,0.0,0.0,0.0,0.0,0.0,0.0,0.0,0.0,0.0,0.0,0.0,0.0,-0.00980664975941,0.0294199492782,9.96355628967,0.0,0.0,0.0,0.0,0.0,0.0,0.0,0.0,0.0
989006500,502120,1644544024634691238,1,0.0,0.0,0.0,0.0,0.0,0.0,0.0,0.0,0.0,0.0,0.0,0.0,0.0,0.0,0.0,0.0,0.0,0.0,0.0,0.0,0.0,0.0,0.0,0.0,0.0,-0.00980664975941,0.0392265990376,9.94394302368,0.0,0.0,0.0,0.0,0.0,0.0,0.0,0.0,0.0
990966500,502121,1644544024636705160,1,0.0,0.0,0.0,0.0,0.0,0.0,0.0,0.0,0.0,0.0,0.0,0.0,0.0,0.0,0.0,0.0,0.0,0.0,0.0,0.0,0.0,0.0,0.0,0.0,0.0,-0.0294199492782,-0.00980664975941,9.91452312469,0.0,0.0,0.0,0.0,0.0,0.0,0.0,0.0,0.0
993023500,502122,1644544024638716936,1,0.0,0.0,0.0,0.0,0.0,0.0,0.0,0.0,0.0,0.0,0.0,0.0,0.0,0.0,0.0,0.0,0.0,0.0,0.0,0.0,0.0,0.0,0.0,0.0,0.0,-0.00980664975941,0.0294199492782,9.94394302368,0.0,0.0,0.0,0.0,0.0,0.0,0.0,0.0,0.0
995034900,502123,1644544024640728951,1,0.0,0.0,0.0,0.0,0.0,0.0,0.0,0.0,0.0,0.0,0.0,0.0,0.0,0.0,0.0,0.0,0.0,0.0,0.0,0.0,0.0,0.0,0.0,0.0,0.0,-0.0392265990376,0.0392265990376,9.91452312469,0.0,0.0,0.0,0.0,0.0,0.0,0.0,0.0,0.0
997025300,502124,1644544024642742872,1,0.0,0.0,0.0,0.0,0.0,0.0,0.0,0.0,0.0,0.0,0.0,0.0,0.0,0.0,0.0,0.0,0.0,0.0,0.0,0.0,0.0,0.0,0.0,0.0,0.0,-0.0392265990376,0.00980664975941,9.91452312469,0.0,0.0,0.0,0.0,0.0,0.0,0.0,0.0,0.0
999073200,502125,1644544024644754887,1,0.0,0.0,0.0,0.0,0.0,0.0,0.0,0.0,0.0,0.0,0.0,0.0,0.0,0.0,0.0,0.0,0.0,0.0,0.0,0.0,0.0,0.0,0.0,0.0,0.0,-0.0686465501785,0.0784531980753,9.88510322571,0.0,0.0,0.0,0.0,0.0,0.0,0.0,0.0,0.0
1001212000,502126,1644544024646768808,1,0.0,0.0,0.0,0.0,0.0,0.0,0.0,0.0,0.0,0.0,0.0,0.0,0.0,0.0,0.0,0.0,0.0,0.0,0.0,0.0,0.0,0.0,0.0,0.0,0.0,-0.0294199492782,0.0980664938688,9.99297618866,0.0,0.0,0.0,0.0,0.0,0.0,0.0,0.0,0.0
1003101000,502127,1644544024648780823,1,0.0,0.0,0.0,0.0,0.0,0.0,0.0,0.0,0.0,0.0,0.0,0.0,0.0,0.0,0.0,0.0,0.0,0.0,0.0,0.0,0.0,0.0,0.0,0.0,0.0,-0.0392265990376,0.0294199492782,9.8949098587,0.0,0.0,0.0,0.0,0.0,0.0,0.0,0.0,0.0
1005136500,502128,1644544024650794983,1,0.0,0.0,0.0,0.0,0.0,0.0,0.0,0.0,0.0,0.0,0.0,0.0,0.0,0.0,0.0,0.0,0.0,0.0,0.0,0.0,0.0,0.0,0.0,0.0,0.0,-0.0294199492782,0.0392265990376,9.94394302368,0.0,0.0,0.0,0.0,0.0,0.0,0.0,0.0,0.0
1007102000,502129,1644544024652806759,1,0.0,0.0,0.0,0.0,0.0,0.0,0.0,0.0,0.0,0.0,0.0,0.0,0.0,0.0,0.0,0.0,0.0,0.0,0.0,0.0,0.0,0.0,0.0,0.0,0.0,-0.0294199492782,0.0784531980753,9.91452312469,0.0,0.0,0.0,0.0,0.0,0.0,0.0,0.0,0.0
1009077500,502130,1644544024654820919,1,0.0,0.0,0.0,0.0,0.0,0.0,0.0,0.0,0.0,0.0,0.0,0.0,0.0,0.0,0.0,0.0,0.0,0.0,0.0,0.0,0.0,0.0,0.0,0.0,0.0,-0.0294199492782,0.0784531980753,9.8949098587,0.0,0.0,0.0,0.0,0.0,0.0,0.0,0.0,0.0
1011035400,502131,1644544024656832695,1,0.0,0.0,0.0,0.0,0.0,0.0,0.0,0.0,0.0,0.0,0.0,0.0,0.0,0.0,0.0,0.0,0.0,0.0,0.0,0.0,0.0,0.0,0.0,0.0,0.0,-0.0686465501785,0.0686465501785,9.94394302368,0.0,0.0,0.0,0.0,0.0,0.0,0.0,0.0,0.0
1013078800,502132,1644544024658846617,1,0.0,0.0,0.0,0.0,0.0,0.0,0.0,0.0,0.0,0.0,0.0,0.0,0.0,0.0,0.0,0.0,0.0,0.0,0.0,0.0,0.0,0.0,0.0,0.0,0.0,-0.00980664975941,0.0392265990376,9.96355628967,0.0,0.0,0.0,0.0,0.0,0.0,0.0,0.0,0.0
1015022400,502133,1644544024660858631,1,0.0,0.0,0.0,0.0,0.0,0.0,0.0,0.0,0.0,0.0,0.0,0.0,0.0,0.0,0.0,0.0,0.0,0.0,0.0,0.0,0.0,0.0,0.0,0.0,0.0,-0.0392265990376,0.0686465501785,9.91452312469,0.0,0.0,0.0,0.0,0.0,0.0,0.0,0.0,0.0
1017007100,502134,1644544024662872553,1,0.0,0.0,0.0,0.0,0.0,0.0,0.0,0.0,0.0,0.0,0.0,0.0,0.0,0.0,0.0,0.0,0.0,0.0,0.0,0.0,0.0,0.0,0.0,0.0,0.0,-0.0686465501785,0.0686465501785,9.91452312469,0.0,0.0,0.0,0.0,0.0,0.0,0.0,0.0,0.0
1019012500,502135,1644544024664884567,1,0.0,0.0,0.0,0.0,0.0,0.0,0.0,0.0,0.0,0.0,0.0,0.0,0.0,0.0,0.0,0.0,0.0,0.0,0.0,0.0,0.0,0.0,0.0,0.0,0.0,-0.0686465501785,0.0980664938688,9.96355628967,0.0,0.0,0.0,0.0,0.0,0.0,0.0,0.0,0.0
1021058300,502136,1644544024666898489,1,0.0,0.0,0.0,0.0,0.0,0.0,0.0,0.0,0.0,0.0,0.0,0.0,0.0,0.0,0.0,0.0,0.0,0.0,0.0,0.0,0.0,0.0,0.0,0.0,0.0,-0.0686465501785,0.0784531980753,9.91452312469,0.0,0.0,0.0,0.0,0.0,0.0,0.0,0.0,0.0
1023222400,502137,1644544024668910503,1,0.0,0.0,0.0,0.0,0.0,0.0,0.0,0.0,0.0,0.0,0.0,0.0,0.0,0.0,0.0,0.0,0.0,0.0,0.0,0.0,0.0,0.0,0.0,0.0,0.0,-0.0294199492782,0.0980664938688,9.8949098587,0.0,0.0,0.0,0.0,0.0,0.0,0.0,0.0,0.0
1025231700,502138,1644544024670924425,1,0.0,0.0,0.0,0.0,0.0,0.0,0.0,0.0,0.0,0.0,0.0,0.0,0.0,0.0,0.0,0.0,0.0,0.0,0.0,0.0,0.0,0.0,0.0,0.0,0.0,-0.0784531980753,0.0392265990376,9.96355628967,0.0,0.0,0.0,0.0,0.0,0.0,0.0,0.0,0.0
1027197000,502139,1644544024672936201,1,0.0,0.0,0.0,0.0,0.0,0.0,0.0,0.0,0.0,0.0,0.0,0.0,0.0,0.0,0.0,0.0,0.0,0.0,0.0,0.0,0.0,0.0,0.0,0.0,0.0,-0.0294199492782,0.0392265990376,9.96355628967,0.0,0.0,0.0,0.0,0.0,0.0,0.0,0.0,0.0
1029331800,502140,1644544024674950123,1,0.0,0.0,0.0,0.0,0.0,0.0,0.0,0.0,0.0,0.0,0.0,0.0,0.0,0.0,0.0,0.0,0.0,0.0,0.0,0.0,0.0,0.0,0.0,0.0,0.0,-0.0392265990376,0.0784531980753,9.8949098587,0.0,0.0,0.0,0.0,0.0,0.0,0.0,0.0,0.0
1031199300,502141,1644544024676962137,1,0.0,0.0,0.0,0.0,0.0,0.0,0.0,0.0,0.0,0.0,0.0,0.0,0.0,0.0,0.0,0.0,0.0,0.0,0.0,0.0,0.0,0.0,0.0,0.0,0.0,-0.0980664938688,0.0980664938688,9.94394302368,0.0,0.0,0.0,0.0,0.0,0.0,0.0,0.0,0.0
1033193600,502142,1644544024678976059,1,0.0,0.0,0.0,0.0,0.0,0.0,0.0,0.0,0.0,0.0,0.0,0.0,0.0,0.0,0.0,0.0,0.0,0.0,0.0,0.0,0.0,0.0,0.0,0.0,0.0,-0.0294199492782,0.0686465501785,9.94394302368,0.0,0.0,0.0,0.0,0.0,0.0,0.0,0.0,0.0
1035191300,502143,1644544024680988073,1,0.0,0.0,0.0,0.0,0.0,0.0,0.0,0.0,0.0,0.0,0.0,0.0,0.0,0.0,0.0,0.0,0.0,0.0,0.0,0.0,0.0,0.0,0.0,0.0,0.0,-0.0686465501785,0.0392265990376,9.98316955566,0.0,0.0,0.0,0.0,0.0,0.0,0.0,0.0,0.0
1037281000,502144,1644544024683001995,1,0.0,0.0,0.0,0.0,0.0,0.0,0.0,0.0,0.0,0.0,0.0,0.0,0.0,0.0,0.0,0.0,0.0,0.0,0.0,0.0,0.0,0.0,0.0,0.0,0.0,-0.0784531980753,0.0784531980753,9.96355628967,0.0,0.0,0.0,0.0,0.0,0.0,0.0,0.0,0.0
1039312000,502145,1644544024685014009,1,0.0,0.0,0.0,0.0,0.0,0.0,0.0,0.0,0.0,0.0,0.0,0.0,0.0,0.0,0.0,0.0,0.0,0.0,0.0,0.0,0.0,0.0,0.0,0.0,0.0,-0.0294199492782,0.0294199492782,9.98316955566,0.0,0.0,0.0,0.0,0.0,0.0,0.0,0.0,0.0
1041191700,502146,1644544024687027931,1,0.0,0.0,0.0,0.0,0.0,0.0,0.0,0.0,0.0,0.0,0.0,0.0,0.0,0.0,0.0,0.0,0.0,0.0,0.0,0.0,0.0,0.0,0.0,0.0,0.0,-0.0784531980753,0.0686465501785,9.98316955566,0.0,0.0,0.0,0.0,0.0,0.0,0.0,0.0,0.0
1043244400,502147,1644544024689039707,1,0.0,0.0,0.0,0.0,0.0,0.0,0.0,0.0,0.0,0.0,0.0,0.0,0.0,0.0,0.0,0.0,0.0,0.0,0.0,0.0,0.0,0.0,0.0,0.0,0.0,-0.0686465501785,0.0686465501785,9.98316955566,0.0,0.0,0.0,0.0,0.0,0.0,0.0,0.0,0.0
1045248500,502148,1644544024691053629,1,0.0,0.0,0.0,0.0,0.0,0.0,0.0,0.0,0.0,0.0,0.0,0.0,0.0,0.0,0.0,0.0,0.0,0.0,0.0,0.0,0.0,0.0,0.0,0.0,0.0,-0.0784531980753,0.0784531980753,10.0125894547,0.0,0.0,0.0,0.0,0.0,0.0,0.0,0.0,0.0
1047703900,502149,1644544024693065643,1,0.0,0.0,0.0,0.0,0.0,0.0,0.0,0.0,0.0,0.0,0.0,0.0,0.0,0.0,0.0,0.0,0.0,0.0,0.0,0.0,0.0,0.0,0.0,0.0,0.0,-0.0784531980753,0.0392265990376,9.99297618866,0.0,0.0,0.0,0.0,0.0,0.0,0.0,0.0,0.0
1049264600,502150,1644544024695079565,1,0.0,0.0,0.0,0.0,0.0,0.0,0.0,0.0,0.0,0.0,0.0,0.0,0.0,0.0,0.0,0.0,0.0,0.0,0.0,0.0,0.0,0.0,0.0,0.0,0.0,-0.0784531980753,0.0686465501785,9.91452312469,0.0,0.0,0.0,0.0,0.0,0.0,0.0,0.0,0.0
1051283900,502151,1644544024697093725,1,0.0,0.0,0.0,0.0,0.0,0.0,0.0,0.0,0.0,0.0,0.0,0.0,0.0,0.0,0.0,0.0,0.0,0.0,0.0,0.0,0.0,0.0,0.0,0.0,0.0,-0.0784531980753,0.00980664975941,9.91452312469,0.0,0.0,0.0,0.0,0.0,0.0,0.0,0.0,0.0
1053320200,502152,1644544024699105740,1,0.0,0.0,0.0,0.0,0.0,0.0,0.0,0.0,0.0,0.0,0.0,0.0,0.0,0.0,0.0,0.0,0.0,0.0,0.0,0.0,0.0,0.0,0.0,0.0,0.0,-0.0784531980753,0.0294199492782,9.8949098587,0.0,0.0,0.0,0.0,0.0,0.0,0.0,0.0,0.0
1055282000,502153,1644544024701119661,1,0.0,0.0,0.0,0.0,0.0,0.0,0.0,0.0,0.0,0.0,0.0,0.0,0.0,0.0,0.0,0.0,0.0,0.0,0.0,0.0,0.0,0.0,0.0,0.0,0.0,-0.0686465501785,0.0294199492782,9.94394302368,0.0,0.0,0.0,0.0,0.0,0.0,0.0,0.0,0.0
1057256100,502154,1644544024703131676,1,0.0,0.0,0.0,0.0,0.0,0.0,0.0,0.0,0.0,0.0,0.0,0.0,0.0,0.0,0.0,0.0,0.0,0.0,0.0,0.0,0.0,0.0,0.0,0.0,0.0,-0.0784531980753,0.0686465501785,9.94394302368,0.0,0.0,0.0,0.0,0.0,0.0,0.0,0.0,0.0
1059258300,502155,1644544024705145597,1,0.0,0.0,0.0,0.0,0.0,0.0,0.0,0.0,0.0,0.0,0.0,0.0,0.0,0.0,0.0,0.0,0.0,0.0,0.0,0.0,0.0,0.0,0.0,0.0,0.0,-0.0686465501785,0.0294199492782,9.98316955566,0.0,0.0,0.0,0.0,0.0,0.0,0.0,0.0,0.0
1061263900,502156,1644544024707157373,1,0.0,0.0,0.0,0.0,0.0,0.0,0.0,0.0,0.0,0.0,0.0,0.0,0.0,0.0,0.0,0.0,0.0,0.0,0.0,0.0,0.0,0.0,0.0,0.0,0.0,-0.0980664938688,0.0294199492782,9.8949098587,0.0,0.0,0.0,0.0,0.0,0.0,0.0,0.0,0.0
1063291900,502157,1644544024709171295,1,0.0,0.0,0.0,0.0,0.0,0.0,0.0,0.0,0.0,0.0,0.0,0.0,0.0,0.0,0.0,0.0,0.0,0.0,0.0,0.0,0.0,0.0,0.0,0.0,0.0,-0.0686465501785,0.00980664975941,9.94394302368,0.0,0.0,0.0,0.0,0.0,0.0,0.0,0.0,0.0
1065513700,502158,1644544024711183310,1,0.0,0.0,0.0,0.0,0.0,0.0,0.0,0.0,0.0,0.0,0.0,0.0,0.0,0.0,0.0,0.0,0.0,0.0,0.0,0.0,0.0,0.0,0.0,0.0,0.0,-0.0392265990376,0.0294199492782,9.96355628967,0.0,0.0,0.0,0.0,0.0,0.0,0.0,0.0,0.0
1067496700,502159,1644544024713197231,1,0.0,0.0,0.0,0.0,0.0,0.0,0.0,0.0,0.0,0.0,0.0,0.0,0.0,0.0,0.0,0.0,0.0,0.0,0.0,0.0,0.0,0.0,0.0,0.0,0.0,-0.0294199492782,0.0294199492782,9.98316955566,0.0,0.0,0.0,0.0,0.0,0.0,0.0,0.0,0.0
1069444600,502160,1644544024715209246,1,0.0,0.0,0.0,0.0,0.0,0.0,0.0,0.0,0.0,0.0,0.0,0.0,0.0,0.0,0.0,0.0,0.0,0.0,0.0,0.0,0.0,0.0,0.0,0.0,0.0,-0.0294199492782,0.0294199492782,9.8949098587,0.0,0.0,0.0,0.0,0.0,0.0,0.0,0.0,0.0
1071447600,502161,1644544024717223167,1,0.0,0.0,0.0,0.0,0.0,0.0,0.0,0.0,0.0,0.0,0.0,0.0,0.0,0.0,0.0,0.0,0.0,0.0,0.0,0.0,0.0,0.0,0.0,0.0,0.0,-0.0392265990376,0.0294199492782,9.91452312469,0.0,0.0,0.0,0.0,0.0,0.0,0.0,0.0,0.0
1073741300,502162,1644544024719235182,1,0.0,0.0,0.0,0.0,0.0,0.0,0.0,0.0,0.0,0.0,0.0,0.0,0.0,0.0,0.0,0.0,0.0,0.0,0.0,0.0,0.0,0.0,0.0,0.0,0.0,-0.0784531980753,0.00980664975941,9.8949098587,0.0,0.0,0.0,0.0,0.0,0.0,0.0,0.0,0.0
1075737100,502163,1644544024721249104,1,0.0,0.0,0.0,0.0,0.0,0.0,0.0,0.0,0.0,0.0,0.0,0.0,0.0,0.0,0.0,0.0,0.0,0.0,0.0,0.0,0.0,0.0,0.0,0.0,0.0,-0.0392265990376,0.00980664975941,9.91452312469,0.0,0.0,0.0,0.0,0.0,0.0,0.0,0.0,0.0
1077784000,502164,1644544024723263025,1,0.0,0.0,0.0,0.0,0.0,0.0,0.0,0.0,0.0,0.0,0.0,0.0,0.0,0.0,0.0,0.0,0.0,0.0,0.0,0.0,0.0,0.0,0.0,0.0,0.0,-0.0686465501785,0.00980664975941,9.91452312469,0.0,0.0,0.0,0.0,0.0,0.0,0.0,0.0,0.0
1079774100,502165,1644544024725274801,1,0.0,0.0,0.0,0.0,0.0,0.0,0.0,0.0,0.0,0.0,0.0,0.0,0.0,0.0,0.0,0.0,0.0,0.0,0.0,0.0,0.0,0.0,0.0,0.0,0.0,-0.0784531980753,0.0294199492782,9.91452312469,0.0,0.0,0.0,0.0,0.0,0.0,0.0,0.0,0.0
1081714700,502166,1644544024727288723,1,0.0,0.0,0.0,0.0,0.0,0.0,0.0,0.0,0.0,0.0,0.0,0.0,0.0,0.0,0.0,0.0,0.0,0.0,0.0,0.0,0.0,0.0,0.0,0.0,0.0,-0.0392265990376,0.00980664975941,9.94394302368,0.0,0.0,0.0,0.0,0.0,0.0,0.0,0.0,0.0
1083822400,502167,1644544024729300737,1,0.0,0.0,0.0,0.0,0.0,0.0,0.0,0.0,0.0,0.0,0.0,0.0,0.0,0.0,0.0,0.0,0.0,0.0,0.0,0.0,0.0,0.0,0.0,0.0,0.0,-0.0392265990376,0.00980664975941,9.88510322571,0.0,0.0,0.0,0.0,0.0,0.0,0.0,0.0,0.0
1085751200,502168,1644544024731314659,1,0.0,0.0,0.0,0.0,0.0,0.0,0.0,0.0,0.0,0.0,0.0,0.0,0.0,0.0,0.0,0.0,0.0,0.0,0.0,0.0,0.0,0.0,0.0,0.0,0.0,-0.0392265990376,0.00980664975941,9.91452312469,0.0,0.0,0.0,0.0,0.0,0.0,0.0,0.0,0.0
1087720700,502169,1644544024733326674,1,0.0,0.0,0.0,0.0,0.0,0.0,0.0,0.0,0.0,0.0,0.0,0.0,0.0,0.0,0.0,0.0,0.0,0.0,0.0,0.0,0.0,0.0,0.0,0.0,0.0,-0.0392265990376,0.0,9.8949098587,0.0,0.0,0.0,0.0,0.0,0.0,0.0,0.0,0.0
1089742900,502170,1644544024735340834,1,0.0,0.0,0.0,0.0,0.0,0.0,0.0,0.0,0.0,0.0,0.0,0.0,0.0,0.0,0.0,0.0,0.0,0.0,0.0,0.0,0.0,0.0,0.0,0.0,0.0,-0.0392265990376,0.00980664975941,9.91452312469,0.0,0.0,0.0,0.0,0.0,0.0,0.0,0.0,0.0
1091765200,502171,1644544024737354755,1,0.0,0.0,0.0,0.0,0.0,0.0,0.0,0.0,0.0,0.0,0.0,0.0,0.0,0.0,0.0,0.0,0.0,0.0,0.0,0.0,0.0,0.0,0.0,0.0,0.0,-0.0392265990376,0.0686465501785,9.91452312469,0.0,0.0,0.0,0.0,0.0,0.0,0.0,0.0,0.0
1093729200,502172,1644544024739366770,1,0.0,0.0,0.0,0.0,0.0,0.0,0.0,0.0,0.0,0.0,0.0,0.0,0.0,0.0,0.0,0.0,0.0,0.0,0.0,0.0,0.0,0.0,0.0,0.0,0.0,-0.00980664975941,0.00980664975941,9.94394302368,0.0,0.0,0.0,0.0,0.0,0.0,0.0,0.0,0.0
1096393100,502173,1644544024741380692,1,0.0,0.0,0.0,0.0,0.0,0.0,0.0,0.0,0.0,0.0,0.0,0.0,0.0,0.0,0.0,0.0,0.0,0.0,0.0,0.0,0.0,0.0,0.0,0.0,0.0,-0.0392265990376,0.0294199492782,9.98316955566,0.0,0.0,0.0,0.0,0.0,0.0,0.0,0.0,0.0
1098282900,502174,1644544024743394613,1,0.0,0.0,0.0,0.0,0.0,0.0,0.0,0.0,0.0,0.0,0.0,0.0,0.0,0.0,0.0,0.0,0.0,0.0,0.0,0.0,0.0,0.0,0.0,0.0,0.0,-0.0294199492782,0.0,9.8949098587,0.0,0.0,0.0,0.0,0.0,0.0,0.0,0.0,0.0
1099847900,502175,1644544024745406389,1,0.0,0.0,0.0,0.0,0.0,0.0,0.0,0.0,0.0,0.0,0.0,0.0,0.0,0.0,0.0,0.0,0.0,0.0,0.0,0.0,0.0,0.0,0.0,0.0,0.0,-0.0392265990376,0.0294199492782,9.88510322571,0.0,0.0,0.0,0.0,0.0,0.0,0.0,0.0,0.0
1101763000,502176,1644544024747420311,1,0.0,0.0,0.0,0.0,0.0,0.0,0.0,0.0,0.0,0.0,0.0,0.0,0.0,0.0,0.0,0.0,0.0,0.0,0.0,0.0,0.0,0.0,0.0,0.0,0.0,-0.0784531980753,-0.00980664975941,9.86548995972,0.0,0.0,0.0,0.0,0.0,0.0,0.0,0.0,0.0
1103778000,502177,1644544024749432325,1,0.0,0.0,0.0,0.0,0.0,0.0,0.0,0.0,0.0,0.0,0.0,0.0,0.0,0.0,0.0,0.0,0.0,0.0,0.0,0.0,0.0,0.0,0.0,0.0,0.0,-0.0686465501785,0.00980664975941,9.91452312469,0.0,0.0,0.0,0.0,0.0,0.0,0.0,0.0,0.0
1105754100,502178,1644544024751446247,1,0.0,0.0,0.0,0.0,0.0,0.0,0.0,0.0,0.0,0.0,0.0,0.0,0.0,0.0,0.0,0.0,0.0,0.0,0.0,0.0,0.0,0.0,0.0,0.0,0.0,-0.0686465501785,-0.0294199492782,9.8949098587,0.0,0.0,0.0,0.0,0.0,0.0,0.0,0.0,0.0
1107740500,502179,1644544024753458261,1,0.0,0.0,0.0,0.0,0.0,0.0,0.0,0.0,0.0,0.0,0.0,0.0,0.0,0.0,0.0,0.0,0.0,0.0,0.0,0.0,0.0,0.0,0.0,0.0,0.0,-0.0686465501785,0.00980664975941,9.88510322571,0.0,0.0,0.0,0.0,0.0,0.0,0.0,0.0,0.0
1109741400,502180,1644544024755472183,1,0.0,0.0,0.0,0.0,0.0,0.0,0.0,0.0,0.0,0.0,0.0,0.0,0.0,0.0,0.0,0.0,0.0,0.0,0.0,0.0,0.0,0.0,0.0,0.0,0.0,-0.0686465501785,-0.00980664975941,9.94394302368,0.0,0.0,0.0,0.0,0.0,0.0,0.0,0.0,0.0
1111853000,502181,1644544024757484198,1,0.0,0.0,0.0,0.0,0.0,0.0,0.0,0.0,0.0,0.0,0.0,0.0,0.0,0.0,0.0,0.0,0.0,0.0,0.0,0.0,0.0,0.0,0.0,0.0,0.0,-0.0784531980753,0.0294199492782,9.88510322571,0.0,0.0,0.0,0.0,0.0,0.0,0.0,0.0,0.0
1113991500,502182,1644544024759498119,1,0.0,0.0,0.0,0.0,0.0,0.0,0.0,0.0,0.0,0.0,0.0,0.0,0.0,0.0,0.0,0.0,0.0,0.0,0.0,0.0,0.0,0.0,0.0,0.0,0.0,-0.0686465501785,0.00980664975941,9.91452312469,0.0,0.0,0.0,0.0,0.0,0.0,0.0,0.0,0.0
1115776800,502183,1644544024761512280,1,0.0,0.0,0.0,0.0,0.0,0.0,0.0,0.0,0.0,0.0,0.0,0.0,0.0,0.0,0.0,0.0,0.0,0.0,0.0,0.0,0.0,0.0,0.0,0.0,0.0,-0.0686465501785,-0.0294199492782,9.94394302368,0.0,0.0,0.0,0.0,0.0,0.0,0.0,0.0,0.0
1117741500,502184,1644544024763524055,1,0.0,0.0,0.0,0.0,0.0,0.0,0.0,0.0,0.0,0.0,0.0,0.0,0.0,0.0,0.0,0.0,0.0,0.0,0.0,0.0,0.0,0.0,0.0,0.0,0.0,-0.0784531980753,-0.00980664975941,9.96355628967,0.0,0.0,0.0,0.0,0.0,0.0,0.0,0.0,0.0
1119736100,502185,1644544024765535831,1,0.0,0.0,0.0,0.0,0.0,0.0,0.0,0.0,0.0,0.0,0.0,0.0,0.0,0.0,0.0,0.0,0.0,0.0,0.0,0.0,0.0,0.0,0.0,0.0,0.0,-0.0294199492782,0.0,9.91452312469,0.0,0.0,0.0,0.0,0.0,0.0,0.0,0.0,0.0
1121736900,502186,1644544024767549992,1,0.0,0.0,0.0,0.0,0.0,0.0,0.0,0.0,0.0,0.0,0.0,0.0,0.0,0.0,0.0,0.0,0.0,0.0,0.0,0.0,0.0,0.0,0.0,0.0,0.0,-0.0392265990376,0.00980664975941,9.88510322571,0.0,0.0,0.0,0.0,0.0,0.0,0.0,0.0,0.0
1123728600,502187,1644544024769562006,1,0.0,0.0,0.0,0.0,0.0,0.0,0.0,0.0,0.0,0.0,0.0,0.0,0.0,0.0,0.0,0.0,0.0,0.0,0.0,0.0,0.0,0.0,0.0,0.0,0.0,-0.0784531980753,0.0294199492782,9.91452312469,0.0,0.0,0.0,0.0,0.0,0.0,0.0,0.0,0.0
1125733300,502188,1644544024771575928,1,0.0,0.0,0.0,0.0,0.0,0.0,0.0,0.0,0.0,0.0,0.0,0.0,0.0,0.0,0.0,0.0,0.0,0.0,0.0,0.0,0.0,0.0,0.0,0.0,0.0,-0.0294199492782,0.00980664975941,9.98316955566,0.0,0.0,0.0,0.0,0.0,0.0,0.0,0.0,0.0
1128308800,502189,1644544024773587942,1,0.0,0.0,0.0,0.0,0.0,0.0,0.0,0.0,0.0,0.0,0.0,0.0,0.0,0.0,0.0,0.0,0.0,0.0,0.0,0.0,0.0,0.0,0.0,0.0,0.0,-0.0392265990376,0.0392265990376,9.94394302368,0.0,0.0,0.0,0.0,0.0,0.0,0.0,0.0,0.0
1130351000,502190,1644544024775601864,1,0.0,0.0,0.0,0.0,0.0,0.0,0.0,0.0,0.0,0.0,0.0,0.0,0.0,0.0,0.0,0.0,0.0,0.0,0.0,0.0,0.0,0.0,0.0,0.0,0.0,-0.0784531980753,0.00980664975941,9.8949098587,0.0,0.0,0.0,0.0,0.0,0.0,0.0,0.0,0.0
1132280900,502191,1644544024777613878,1,0.0,0.0,0.0,0.0,0.0,0.0,0.0,0.0,0.0,0.0,0.0,0.0,0.0,0.0,0.0,0.0,0.0,0.0,0.0,0.0,0.0,0.0,0.0,0.0,0.0,-0.0294199492782,0.0,9.88510322571,0.0,0.0,0.0,0.0,0.0,0.0,0.0,0.0,0.0
1133892100,502192,1644544024779627800,1,0.0,0.0,0.0,0.0,0.0,0.0,0.0,0.0,0.0,0.0,0.0,0.0,0.0,0.0,0.0,0.0,0.0,0.0,0.0,0.0,0.0,0.0,0.0,0.0,0.0,-0.0392265990376,0.0294199492782,9.8949098587,0.0,0.0,0.0,0.0,0.0,0.0,0.0,0.0,0.0
1135900600,502193,1644544024781639576,1,0.0,0.0,0.0,0.0,0.0,0.0,0.0,0.0,0.0,0.0,0.0,0.0,0.0,0.0,0.0,0.0,0.0,0.0,0.0,0.0,0.0,0.0,0.0,0.0,0.0,-0.0392265990376,0.00980664975941,9.8949098587,0.0,0.0,0.0,0.0,0.0,0.0,0.0,0.0,0.0
1137861000,502194,1644544024783653498,1,0.0,0.0,0.0,0.0,0.0,0.0,0.0,0.0,0.0,0.0,0.0,0.0,0.0,0.0,0.0,0.0,0.0,0.0,0.0,0.0,0.0,0.0,0.0,0.0,0.0,-0.0294199492782,0.00980664975941,9.94394302368,0.0,0.0,0.0,0.0,0.0,0.0,0.0,0.0,0.0
1140008500,502195,1644544024785667419,1,0.0,0.0,0.0,0.0,0.0,0.0,0.0,0.0,0.0,0.0,0.0,0.0,0.0,0.0,0.0,0.0,0.0,0.0,0.0,0.0,0.0,0.0,0.0,0.0,0.0,-0.0392265990376,0.0,9.88510322571,0.0,0.0,0.0,0.0,0.0,0.0,0.0,0.0,0.0
1142261500,502196,1644544024787679434,1,0.0,0.0,0.0,0.0,0.0,0.0,0.0,0.0,0.0,0.0,0.0,0.0,0.0,0.0,0.0,0.0,0.0,0.0,0.0,0.0,0.0,0.0,0.0,0.0,0.0,-0.0392265990376,0.0294199492782,9.91452312469,0.0,0.0,0.0,0.0,0.0,0.0,0.0,0.0,0.0
1144100400,502197,1644544024789693356,1,0.0,0.0,0.0,0.0,0.0,0.0,0.0,0.0,0.0,0.0,0.0,0.0,0.0,0.0,0.0,0.0,0.0,0.0,0.0,0.0,0.0,0.0,0.0,0.0,0.0,-0.0686465501785,-0.00980664975941,9.91452312469,0.0,0.0,0.0,0.0,0.0,0.0,0.0,0.0,0.0
1146338000,502198,1644544024791705370,1,0.0,0.0,0.0,0.0,0.0,0.0,0.0,0.0,0.0,0.0,0.0,0.0,0.0,0.0,0.0,0.0,0.0,0.0,0.0,0.0,0.0,0.0,0.0,0.0,0.0,-0.0294199492782,0.0294199492782,9.8949098587,0.0,0.0,0.0,0.0,0.0,0.0,0.0,0.0,0.0
1148098900,502199,1644544024793719530,1,0.0,0.0,0.0,0.0,0.0,0.0,0.0,0.0,0.0,0.0,0.0,0.0,0.0,0.0,0.0,0.0,0.0,0.0,0.0,0.0,0.0,0.0,0.0,0.0,0.0,-0.0784531980753,-0.00980664975941,9.96355628967,0.0,0.0,0.0,0.0,0.0,0.0,0.0,0.0,0.0
1150320400,502200,1644544024795731306,1,0.0,0.0,0.0,0.0,0.0,0.0,0.0,0.0,0.0,0.0,0.0,0.0,0.0,0.0,0.0,0.0,0.0,0.0,0.0,0.0,0.0,0.0,0.0,0.0,0.0,-0.0294199492782,0.0294199492782,9.8949098587,0.0,0.0,0.0,0.0,0.0,0.0,0.0,0.0,0.0
1152110900,502201,1644544024797743082,1,0.0,0.0,0.0,0.0,0.0,0.0,0.0,0.0,0.0,0.0,0.0,0.0,0.0,0.0,0.0,0.0,0.0,0.0,0.0,0.0,0.0,0.0,0.0,0.0,0.0,-0.00980664975941,0.0,9.94394302368,0.0,0.0,0.0,0.0,0.0,0.0,0.0,0.0,0.0
1154098700,502202,1644544024799757242,1,0.0,0.0,0.0,0.0,0.0,0.0,0.0,0.0,0.0,0.0,0.0,0.0,0.0,0.0,0.0,0.0,0.0,0.0,0.0,0.0,0.0,0.0,0.0,0.0,0.0,-0.0294199492782,0.0294199492782,9.91452312469,0.0,0.0,0.0,0.0,0.0,0.0,0.0,0.0,0.0
1155964900,502203,1644544024801771164,1,0.0,0.0,0.0,0.0,0.0,0.0,0.0,0.0,0.0,0.0,0.0,0.0,0.0,0.0,0.0,0.0,0.0,0.0,0.0,0.0,0.0,0.0,0.0,0.0,0.0,-0.0784531980753,-0.00980664975941,9.91452312469,0.0,0.0,0.0,0.0,0.0,0.0,0.0,0.0,0.0
1158108000,502204,1644544024803783178,1,0.0,0.0,0.0,0.0,0.0,0.0,0.0,0.0,0.0,0.0,0.0,0.0,0.0,0.0,0.0,0.0,0.0,0.0,0.0,0.0,0.0,0.0,0.0,0.0,0.0,-0.0294199492782,0.0294199492782,9.8949098587,0.0,0.0,0.0,0.0,0.0,0.0,0.0,0.0,0.0
1160964500,502205,1644544024805797100,1,0.0,0.0,0.0,0.0,0.0,0.0,0.0,0.0,0.0,0.0,0.0,0.0,0.0,0.0,0.0,0.0,0.0,0.0,0.0,0.0,0.0,0.0,0.0,0.0,0.0,0.0,-0.00980664975941,9.8949098587,0.0,0.0,0.0,0.0,0.0,0.0,0.0,0.0,0.0
1162122400,502206,1644544024807809114,1,0.0,0.0,0.0,0.0,0.0,0.0,0.0,0.0,0.0,0.0,0.0,0.0,0.0,0.0,0.0,0.0,0.0,0.0,0.0,0.0,0.0,0.0,0.0,0.0,0.0,-0.00980664975941,0.00980664975941,9.8949098587,0.0,0.0,0.0,0.0,0.0,0.0,0.0,0.0,0.0
1164048700,502207,1644544024809823036,1,0.0,0.0,0.0,0.0,0.0,0.0,0.0,0.0,0.0,0.0,0.0,0.0,0.0,0.0,0.0,0.0,0.0,0.0,0.0,0.0,0.0,0.0,0.0,0.0,0.0,-0.00980664975941,0.0,9.91452312469,0.0,0.0,0.0,0.0,0.0,0.0,0.0,0.0,0.0
1166009600,502208,1644544024811836958,1,0.0,0.0,0.0,0.0,0.0,0.0,0.0,0.0,0.0,0.0,0.0,0.0,0.0,0.0,0.0,0.0,0.0,0.0,0.0,0.0,0.0,0.0,0.0,0.0,0.0,-0.0294199492782,0.00980664975941,9.91452312469,0.0,0.0,0.0,0.0,0.0,0.0,0.0,0.0,0.0
1167992500,502209,1644544024813848972,1,0.0,0.0,0.0,0.0,0.0,0.0,0.0,0.0,0.0,0.0,0.0,0.0,0.0,0.0,0.0,0.0,0.0,0.0,0.0,0.0,0.0,0.0,0.0,0.0,0.0,-0.0392265990376,0.00980664975941,9.96355628967,0.0,0.0,0.0,0.0,0.0,0.0,0.0,0.0,0.0
1169991500,502210,1644544024815862894,1,0.0,0.0,0.0,0.0,0.0,0.0,0.0,0.0,0.0,0.0,0.0,0.0,0.0,0.0,0.0,0.0,0.0,0.0,0.0,0.0,0.0,0.0,0.0,0.0,0.0,-0.0686465501785,-0.00980664975941,9.94394302368,0.0,0.0,0.0,0.0,0.0,0.0,0.0,0.0,0.0
1171991100,502211,1644544024817874670,1,0.0,0.0,0.0,0.0,0.0,0.0,0.0,0.0,0.0,0.0,0.0,0.0,0.0,0.0,0.0,0.0,0.0,0.0,0.0,0.0,0.0,0.0,0.0,0.0,0.0,-0.0784531980753,0.0,9.88510322571,0.0,0.0,0.0,0.0,0.0,0.0,0.0,0.0,0.0
1174013100,502212,1644544024819888592,1,0.0,0.0,0.0,0.0,0.0,0.0,0.0,0.0,0.0,0.0,0.0,0.0,0.0,0.0,0.0,0.0,0.0,0.0,0.0,0.0,0.0,0.0,0.0,0.0,0.0,-0.0392265990376,-0.00980664975941,9.98316955566,0.0,0.0,0.0,0.0,0.0,0.0,0.0,0.0,0.0
1176378700,502213,1644544024821900606,1,0.0,0.0,0.0,0.0,0.0,0.0,0.0,0.0,0.0,0.0,0.0,0.0,0.0,0.0,0.0,0.0,0.0,0.0,0.0,0.0,0.0,0.0,0.0,0.0,0.0,-0.0294199492782,0.00980664975941,9.88510322571,0.0,0.0,0.0,0.0,0.0,0.0,0.0,0.0,0.0
1178208700,502214,1644544024823914766,1,0.0,0.0,0.0,0.0,0.0,0.0,0.0,0.0,0.0,0.0,0.0,0.0,0.0,0.0,0.0,0.0,0.0,0.0,0.0,0.0,0.0,0.0,0.0,0.0,0.0,-0.0784531980753,0.00980664975941,9.8949098587,0.0,0.0,0.0,0.0,0.0,0.0,0.0,0.0,0.0
1180093700,502215,1644544024825928688,1,0.0,0.0,0.0,0.0,0.0,0.0,0.0,0.0,0.0,0.0,0.0,0.0,0.0,0.0,0.0,0.0,0.0,0.0,0.0,0.0,0.0,0.0,0.0,0.0,0.0,-0.0686465501785,-0.0294199492782,9.98316955566,0.0,0.0,0.0,0.0,0.0,0.0,0.0,0.0,0.0
1182275900,502216,1644544024827940702,1,0.0,0.0,0.0,0.0,0.0,0.0,0.0,0.0,0.0,0.0,0.0,0.0,0.0,0.0,0.0,0.0,0.0,0.0,0.0,0.0,0.0,0.0,0.0,0.0,0.0,-0.0686465501785,-0.00980664975941,9.91452312469,0.0,0.0,0.0,0.0,0.0,0.0,0.0,0.0,0.0
1184283200,502217,1644544024829952717,1,0.0,0.0,0.0,0.0,0.0,0.0,0.0,0.0,0.0,0.0,0.0,0.0,0.0,0.0,0.0,0.0,0.0,0.0,0.0,0.0,0.0,0.0,0.0,0.0,0.0,-0.0980664938688,0.0,9.8949098587,0.0,0.0,0.0,0.0,0.0,0.0,0.0,0.0,0.0
1186328100,502218,1644544024831966639,1,0.0,0.0,0.0,0.0,0.0,0.0,0.0,0.0,0.0,0.0,0.0,0.0,0.0,0.0,0.0,0.0,0.0,0.0,0.0,0.0,0.0,0.0,0.0,0.0,0.0,-0.00980664975941,0.00980664975941,9.8949098587,0.0,0.0,0.0,0.0,0.0,0.0,0.0,0.0,0.0
1188219500,502219,1644544024833978415,1,0.0,0.0,0.0,0.0,0.0,0.0,0.0,0.0,0.0,0.0,0.0,0.0,0.0,0.0,0.0,0.0,0.0,0.0,0.0,0.0,0.0,0.0,0.0,0.0,0.0,-0.0784531980753,0.00980664975941,9.8949098587,0.0,0.0,0.0,0.0,0.0,0.0,0.0,0.0,0.0
1190303500,502220,1644544024835992336,1,0.0,0.0,0.0,0.0,0.0,0.0,0.0,0.0,0.0,0.0,0.0,0.0,0.0,0.0,0.0,0.0,0.0,0.0,0.0,0.0,0.0,0.0,0.0,0.0,0.0,-0.0784531980753,-0.0294199492782,9.94394302368,0.0,0.0,0.0,0.0,0.0,0.0,0.0,0.0,0.0
1192226000,502221,1644544024838006258,1,0.0,0.0,0.0,0.0,0.0,0.0,0.0,0.0,0.0,0.0,0.0,0.0,0.0,0.0,0.0,0.0,0.0,0.0,0.0,0.0,0.0,0.0,0.0,0.0,0.0,-0.0686465501785,-0.00980664975941,9.8949098587,0.0,0.0,0.0,0.0,0.0,0.0,0.0,0.0,0.0
1194199000,502222,1644544024840018272,1,0.0,0.0,0.0,0.0,0.0,0.0,0.0,0.0,0.0,0.0,0.0,0.0,0.0,0.0,0.0,0.0,0.0,0.0,0.0,0.0,0.0,0.0,0.0,0.0,0.0,-0.0980664938688,0.0,9.88510322571,0.0,0.0,0.0,0.0,0.0,0.0,0.0,0.0,0.0
1196518800,502223,1644544024842032194,1,0.0,0.0,0.0,0.0,0.0,0.0,0.0,0.0,0.0,0.0,0.0,0.0,0.0,0.0,0.0,0.0,0.0,0.0,0.0,0.0,0.0,0.0,0.0,0.0,0.0,-0.0686465501785,-0.0392265990376,9.94394302368,0.0,0.0,0.0,0.0,0.0,0.0,0.0,0.0,0.0
1198525600,502224,1644544024844046116,1,0.0,0.0,0.0,0.0,0.0,0.0,0.0,0.0,0.0,0.0,0.0,0.0,0.0,0.0,0.0,0.0,0.0,0.0,0.0,0.0,0.0,0.0,0.0,0.0,0.0,-0.0686465501785,-0.0294199492782,9.91452312469,0.0,0.0,0.0,0.0,0.0,0.0,0.0,0.0,0.0
1200517600,502225,1644544024846058130,1,0.0,0.0,0.0,0.0,0.0,0.0,0.0,0.0,0.0,0.0,0.0,0.0,0.0,0.0,0.0,0.0,0.0,0.0,0.0,0.0,0.0,0.0,0.0,0.0,0.0,-0.0686465501785,-0.0294199492782,9.8949098587,0.0,0.0,0.0,0.0,0.0,0.0,0.0,0.0,0.0
1202556100,502226,1644544024848072290,1,0.0,0.0,0.0,0.0,0.0,0.0,0.0,0.0,0.0,0.0,0.0,0.0,0.0,0.0,0.0,0.0,0.0,0.0,0.0,0.0,0.0,0.0,0.0,0.0,0.0,-0.0686465501785,-0.0294199492782,9.94394302368,0.0,0.0,0.0,0.0,0.0,0.0,0.0,0.0,0.0
1204227200,502227,1644544024850084305,1,0.0,0.0,0.0,0.0,0.0,0.0,0.0,0.0,0.0,0.0,0.0,0.0,0.0,0.0,0.0,0.0,0.0,0.0,0.0,0.0,0.0,0.0,0.0,0.0,0.0,-0.0392265990376,-0.00980664975941,9.94394302368,0.0,0.0,0.0,0.0,0.0,0.0,0.0,0.0,0.0
1206558200,502228,1644544024852098227,1,0.0,0.0,0.0,0.0,0.0,0.0,0.0,0.0,0.0,0.0,0.0,0.0,0.0,0.0,0.0,0.0,0.0,0.0,0.0,0.0,0.0,0.0,0.0,0.0,0.0,-0.0784531980753,-0.0686465501785,9.96355628967,0.0,0.0,0.0,0.0,0.0,0.0,0.0,0.0,0.0
1208508800,502229,1644544024854110003,1,0.0,0.0,0.0,0.0,0.0,0.0,0.0,0.0,0.0,0.0,0.0,0.0,0.0,0.0,0.0,0.0,0.0,0.0,0.0,0.0,0.0,0.0,0.0,0.0,0.0,-0.0784531980753,-0.0392265990376,9.88510322571,0.0,0.0,0.0,0.0,0.0,0.0,0.0,0.0,0.0
1210617100,502230,1644544024856123924,1,0.0,0.0,0.0,0.0,0.0,0.0,0.0,0.0,0.0,0.0,0.0,0.0,0.0,0.0,0.0,0.0,0.0,0.0,0.0,0.0,0.0,0.0,0.0,0.0,0.0,-0.0784531980753,-0.0294199492782,9.91452312469,0.0,0.0,0.0,0.0,0.0,0.0,0.0,0.0,0.0
1212631400,502231,1644544024858137846,1,0.0,0.0,0.0,0.0,0.0,0.0,0.0,0.0,0.0,0.0,0.0,0.0,0.0,0.0,0.0,0.0,0.0,0.0,0.0,0.0,0.0,0.0,0.0,0.0,0.0,-0.0784531980753,-0.00980664975941,9.98316955566,0.0,0.0,0.0,0.0,0.0,0.0,0.0,0.0,0.0
1214609900,502232,1644544024860151768,1,0.0,0.0,0.0,0.0,0.0,0.0,0.0,0.0,0.0,0.0,0.0,0.0,0.0,0.0,0.0,0.0,0.0,0.0,0.0,0.0,0.0,0.0,0.0,0.0,0.0,-0.0980664938688,-0.0392265990376,9.88510322571,0.0,0.0,0.0,0.0,0.0,0.0,0.0,0.0,0.0
1216602800,502233,1644544024862163782,1,0.0,0.0,0.0,0.0,0.0,0.0,0.0,0.0,0.0,0.0,0.0,0.0,0.0,0.0,0.0,0.0,0.0,0.0,0.0,0.0,0.0,0.0,0.0,0.0,0.0,-0.0392265990376,-0.0392265990376,9.96355628967,0.0,0.0,0.0,0.0,0.0,0.0,0.0,0.0,0.0
1218569500,502234,1644544024864175797,1,0.0,0.0,0.0,0.0,0.0,0.0,0.0,0.0,0.0,0.0,0.0,0.0,0.0,0.0,0.0,0.0,0.0,0.0,0.0,0.0,0.0,0.0,0.0,0.0,0.0,-0.0392265990376,-0.00980664975941,9.96355628967,0.0,0.0,0.0,0.0,0.0,0.0,0.0,0.0,0.0
1220617200,502235,1644544024866189718,1,0.0,0.0,0.0,0.0,0.0,0.0,0.0,0.0,0.0,0.0,0.0,0.0,0.0,0.0,0.0,0.0,0.0,0.0,0.0,0.0,0.0,0.0,0.0,0.0,0.0,-0.0686465501785,0.0,9.88510322571,0.0,0.0,0.0,0.0,0.0,0.0,0.0,0.0,0.0
1222549700,502236,1644544024868203878,1,0.0,0.0,0.0,0.0,0.0,0.0,0.0,0.0,0.0,0.0,0.0,0.0,0.0,0.0,0.0,0.0,0.0,0.0,0.0,0.0,0.0,0.0,0.0,0.0,0.0,-0.0686465501785,-0.00980664975941,9.96355628967,0.0,0.0,0.0,0.0,0.0,0.0,0.0,0.0,0.0
1224488300,502237,1644544024870215893,1,0.0,0.0,0.0,0.0,0.0,0.0,0.0,0.0,0.0,0.0,0.0,0.0,0.0,0.0,0.0,0.0,0.0,0.0,0.0,0.0,0.0,0.0,0.0,0.0,0.0,-0.12748645246,-0.00980664975941,9.96355628967,0.0,0.0,0.0,0.0,0.0,0.0,0.0,0.0,0.0
1226479300,502238,1644544024872229815,1,0.0,0.0,0.0,0.0,0.0,0.0,0.0,0.0,0.0,0.0,0.0,0.0,0.0,0.0,0.0,0.0,0.0,0.0,0.0,0.0,0.0,0.0,0.0,0.0,0.0,-0.0784531980753,-0.0294199492782,9.83607006073,0.0,0.0,0.0,0.0,0.0,0.0,0.0,0.0,0.0
1228543300,502239,1644544024874241590,1,0.0,0.0,0.0,0.0,0.0,0.0,0.0,0.0,0.0,0.0,0.0,0.0,0.0,0.0,0.0,0.0,0.0,0.0,0.0,0.0,0.0,0.0,0.0,0.0,0.0,-0.0686465501785,-0.00980664975941,9.8949098587,0.0,0.0,0.0,0.0,0.0,0.0,0.0,0.0,0.0
1230510700,502240,1644544024876255512,1,0.0,0.0,0.0,0.0,0.0,0.0,0.0,0.0,0.0,0.0,0.0,0.0,0.0,0.0,0.0,0.0,0.0,0.0,0.0,0.0,0.0,0.0,0.0,0.0,0.0,-0.0294199492782,-0.0294199492782,9.96355628967,0.0,0.0,0.0,0.0,0.0,0.0,0.0,0.0,0.0
1232499100,502241,1644544024878269434,1,0.0,0.0,0.0,0.0,0.0,0.0,0.0,0.0,0.0,0.0,0.0,0.0,0.0,0.0,0.0,0.0,0.0,0.0,0.0,0.0,0.0,0.0,0.0,0.0,0.0,-0.0784531980753,-0.0294199492782,9.91452312469,0.0,0.0,0.0,0.0,0.0,0.0,0.0,0.0,0.0
1234553700,502242,1644544024880281448,1,0.0,0.0,0.0,0.0,0.0,0.0,0.0,0.0,0.0,0.0,0.0,0.0,0.0,0.0,0.0,0.0,0.0,0.0,0.0,0.0,0.0,0.0,0.0,0.0,0.0,-0.0686465501785,0.0,9.8949098587,0.0,0.0,0.0,0.0,0.0,0.0,0.0,0.0,0.0
1236578000,502243,1644544024882295370,1,0.0,0.0,0.0,0.0,0.0,0.0,0.0,0.0,0.0,0.0,0.0,0.0,0.0,0.0,0.0,0.0,0.0,0.0,0.0,0.0,0.0,0.0,0.0,0.0,0.0,-0.0294199492782,-0.00980664975941,9.91452312469,0.0,0.0,0.0,0.0,0.0,0.0,0.0,0.0,0.0
1238502200,502244,1644544024884307384,1,0.0,0.0,0.0,0.0,0.0,0.0,0.0,0.0,0.0,0.0,0.0,0.0,0.0,0.0,0.0,0.0,0.0,0.0,0.0,0.0,0.0,0.0,0.0,0.0,0.0,-0.0294199492782,0.00980664975941,9.83607006073,0.0,0.0,0.0,0.0,0.0,0.0,0.0,0.0,0.0
1240494400,502245,1644544024886321306,1,0.0,0.0,0.0,0.0,0.0,0.0,0.0,0.0,0.0,0.0,0.0,0.0,0.0,0.0,0.0,0.0,0.0,0.0,0.0,0.0,0.0,0.0,0.0,0.0,0.0,-0.0392265990376,-0.00980664975941,9.8949098587,0.0,0.0,0.0,0.0,0.0,0.0,0.0,0.0,0.0
1242571900,502246,1644544024888335228,1,0.0,0.0,0.0,0.0,0.0,0.0,0.0,0.0,0.0,0.0,0.0,0.0,0.0,0.0,0.0,0.0,0.0,0.0,0.0,0.0,0.0,0.0,0.0,0.0,0.0,-0.0392265990376,-0.00980664975941,9.96355628967,0.0,0.0,0.0,0.0,0.0,0.0,0.0,0.0,0.0
1244787200,502247,1644544024890347242,1,0.0,0.0,0.0,0.0,0.0,0.0,0.0,0.0,0.0,0.0,0.0,0.0,0.0,0.0,0.0,0.0,0.0,0.0,0.0,0.0,0.0,0.0,0.0,0.0,0.0,-0.0686465501785,0.0,9.86548995972,0.0,0.0,0.0,0.0,0.0,0.0,0.0,0.0,0.0
1246569900,502248,1644544024892361403,1,0.0,0.0,0.0,0.0,0.0,0.0,0.0,0.0,0.0,0.0,0.0,0.0,0.0,0.0,0.0,0.0,0.0,0.0,0.0,0.0,0.0,0.0,0.0,0.0,0.0,-0.0686465501785,-0.00980664975941,9.94394302368,0.0,0.0,0.0,0.0,0.0,0.0,0.0,0.0,0.0
1248538500,502249,1644544024894375324,1,0.0,0.0,0.0,0.0,0.0,0.0,0.0,0.0,0.0,0.0,0.0,0.0,0.0,0.0,0.0,0.0,0.0,0.0,0.0,0.0,0.0,0.0,0.0,0.0,0.0,-0.0392265990376,-0.0294199492782,9.8949098587,0.0,0.0,0.0,0.0,0.0,0.0,0.0,0.0,0.0
1250587300,502250,1644544024896387100,1,0.0,0.0,0.0,0.0,0.0,0.0,0.0,0.0,0.0,0.0,0.0,0.0,0.0,0.0,0.0,0.0,0.0,0.0,0.0,0.0,0.0,0.0,0.0,0.0,0.0,-0.0392265990376,-0.00980664975941,9.8949098587,0.0,0.0,0.0,0.0,0.0,0.0,0.0,0.0,0.0
1252603000,502251,1644544024898401022,1,0.0,0.0,0.0,0.0,0.0,0.0,0.0,0.0,0.0,0.0,0.0,0.0,0.0,0.0,0.0,0.0,0.0,0.0,0.0,0.0,0.0,0.0,0.0,0.0,0.0,-0.0392265990376,-0.00980664975941,9.88510322571,0.0,0.0,0.0,0.0,0.0,0.0,0.0,0.0,0.0
1254777700,502252,1644544024900414944,1,0.0,0.0,0.0,0.0,0.0,0.0,0.0,0.0,0.0,0.0,0.0,0.0,0.0,0.0,0.0,0.0,0.0,0.0,0.0,0.0,0.0,0.0,0.0,0.0,0.0,-0.0686465501785,-0.00980664975941,9.91452312469,0.0,0.0,0.0,0.0,0.0,0.0,0.0,0.0,0.0
1256565200,502253,1644544024902426958,1,0.0,0.0,0.0,0.0,0.0,0.0,0.0,0.0,0.0,0.0,0.0,0.0,0.0,0.0,0.0,0.0,0.0,0.0,0.0,0.0,0.0,0.0,0.0,0.0,0.0,-0.0686465501785,0.0,9.91452312469,0.0,0.0,0.0,0.0,0.0,0.0,0.0,0.0,0.0
1258843600,502254,1644544024904440880,1,0.0,0.0,0.0,0.0,0.0,0.0,0.0,0.0,0.0,0.0,0.0,0.0,0.0,0.0,0.0,0.0,0.0,0.0,0.0,0.0,0.0,0.0,0.0,0.0,0.0,-0.0294199492782,-0.0294199492782,9.8949098587,0.0,0.0,0.0,0.0,0.0,0.0,0.0,0.0,0.0
1260815100,502255,1644544024906454802,1,0.0,0.0,0.0,0.0,0.0,0.0,0.0,0.0,0.0,0.0,0.0,0.0,0.0,0.0,0.0,0.0,0.0,0.0,0.0,0.0,0.0,0.0,0.0,0.0,0.0,-0.0686465501785,-0.0294199492782,9.91452312469,0.0,0.0,0.0,0.0,0.0,0.0,0.0,0.0,0.0
1262894500,502256,1644544024908466816,1,0.0,0.0,0.0,0.0,0.0,0.0,0.0,0.0,0.0,0.0,0.0,0.0,0.0,0.0,0.0,0.0,0.0,0.0,0.0,0.0,0.0,0.0,0.0,0.0,0.0,-0.00980664975941,-0.0294199492782,9.8949098587,0.0,0.0,0.0,0.0,0.0,0.0,0.0,0.0,0.0
1264864700,502257,1644544024910480976,1,0.0,0.0,0.0,0.0,0.0,0.0,0.0,0.0,0.0,0.0,0.0,0.0,0.0,0.0,0.0,0.0,0.0,0.0,0.0,0.0,0.0,0.0,0.0,0.0,0.0,-0.0392265990376,-0.00980664975941,9.86548995972,0.0,0.0,0.0,0.0,0.0,0.0,0.0,0.0,0.0
1266854400,502258,1644544024912492990,1,0.0,0.0,0.0,0.0,0.0,0.0,0.0,0.0,0.0,0.0,0.0,0.0,0.0,0.0,0.0,0.0,0.0,0.0,0.0,0.0,0.0,0.0,0.0,0.0,0.0,-0.0392265990376,-0.0294199492782,9.94394302368,0.0,0.0,0.0,0.0,0.0,0.0,0.0,0.0,0.0
1268792200,502259,1644544024914506912,1,0.0,0.0,0.0,0.0,0.0,0.0,0.0,0.0,0.0,0.0,0.0,0.0,0.0,0.0,0.0,0.0,0.0,0.0,0.0,0.0,0.0,0.0,0.0,0.0,0.0,-0.0392265990376,0.0,9.91452312469,0.0,0.0,0.0,0.0,0.0,0.0,0.0,0.0,0.0
1270739500,502260,1644544024916520834,1,0.0,0.0,0.0,0.0,0.0,0.0,0.0,0.0,0.0,0.0,0.0,0.0,0.0,0.0,0.0,0.0,0.0,0.0,0.0,0.0,0.0,0.0,0.0,0.0,0.0,-0.0294199492782,-0.00980664975941,9.94394302368,0.0,0.0,0.0,0.0,0.0,0.0,0.0,0.0,0.0
1272754300,502261,1644544024918532610,1,0.0,0.0,0.0,0.0,0.0,0.0,0.0,0.0,0.0,0.0,0.0,0.0,0.0,0.0,0.0,0.0,0.0,0.0,0.0,0.0,0.0,0.0,0.0,0.0,0.0,-0.0686465501785,-0.00980664975941,9.94394302368,0.0,0.0,0.0,0.0,0.0,0.0,0.0,0.0,0.0
1274744500,502262,1644544024920546532,1,0.0,0.0,0.0,0.0,0.0,0.0,0.0,0.0,0.0,0.0,0.0,0.0,0.0,0.0,0.0,0.0,0.0,0.0,0.0,0.0,0.0,0.0,0.0,0.0,0.0,-0.0392265990376,-0.0294199492782,9.94394302368,0.0,0.0,0.0,0.0,0.0,0.0,0.0,0.0,0.0
1276743000,502263,1644544024922558546,1,0.0,0.0,0.0,0.0,0.0,0.0,0.0,0.0,0.0,0.0,0.0,0.0,0.0,0.0,0.0,0.0,0.0,0.0,0.0,0.0,0.0,0.0,0.0,0.0,0.0,-0.0294199492782,0.0,9.91452312469,0.0,0.0,0.0,0.0,0.0,0.0,0.0,0.0,0.0
1278792700,502264,1644544024924570560,1,0.0,0.0,0.0,0.0,0.0,0.0,0.0,0.0,0.0,0.0,0.0,0.0,0.0,0.0,0.0,0.0,0.0,0.0,0.0,0.0,0.0,0.0,0.0,0.0,0.0,-0.0294199492782,0.0,9.8949098587,0.0,0.0,0.0,0.0,0.0,0.0,0.0,0.0,0.0
1280949100,502265,1644544024926584482,1,0.0,0.0,0.0,0.0,0.0,0.0,0.0,0.0,0.0,0.0,0.0,0.0,0.0,0.0,0.0,0.0,0.0,0.0,0.0,0.0,0.0,0.0,0.0,0.0,0.0,-0.0294199492782,0.00980664975941,9.96355628967,0.0,0.0,0.0,0.0,0.0,0.0,0.0,0.0,0.0
1283152900,502266,1644544024928598642,1,0.0,0.0,0.0,0.0,0.0,0.0,0.0,0.0,0.0,0.0,0.0,0.0,0.0,0.0,0.0,0.0,0.0,0.0,0.0,0.0,0.0,0.0,0.0,0.0,0.0,-0.0686465501785,-0.00980664975941,9.91452312469,0.0,0.0,0.0,0.0,0.0,0.0,0.0,0.0,0.0
1284788900,502267,1644544024930610657,1,0.0,0.0,0.0,0.0,0.0,0.0,0.0,0.0,0.0,0.0,0.0,0.0,0.0,0.0,0.0,0.0,0.0,0.0,0.0,0.0,0.0,0.0,0.0,0.0,0.0,-0.0294199492782,-0.00980664975941,9.98316955566,0.0,0.0,0.0,0.0,0.0,0.0,0.0,0.0,0.0
1286763400,502268,1644544024932624578,1,0.0,0.0,0.0,0.0,0.0,0.0,0.0,0.0,0.0,0.0,0.0,0.0,0.0,0.0,0.0,0.0,0.0,0.0,0.0,0.0,0.0,0.0,0.0,0.0,0.0,-0.00980664975941,-0.00980664975941,9.94394302368,0.0,0.0,0.0,0.0,0.0,0.0,0.0,0.0,0.0
1288795600,502269,1644544024934636593,1,0.0,0.0,0.0,0.0,0.0,0.0,0.0,0.0,0.0,0.0,0.0,0.0,0.0,0.0,0.0,0.0,0.0,0.0,0.0,0.0,0.0,0.0,0.0,0.0,0.0,-0.0294199492782,0.0,9.8949098587,0.0,0.0,0.0,0.0,0.0,0.0,0.0,0.0,0.0
1290754500,502270,1644544024936650276,1,0.0,0.0,0.0,0.0,0.0,0.0,0.0,0.0,0.0,0.0,0.0,0.0,0.0,0.0,0.0,0.0,0.0,0.0,0.0,0.0,0.0,0.0,0.0,0.0,0.0,-0.00980664975941,-0.00980664975941,9.94394302368,0.0,0.0,0.0,0.0,0.0,0.0,0.0,0.0,0.0
1292761600,502271,1644544024938664198,1,0.0,0.0,0.0,0.0,0.0,0.0,0.0,0.0,0.0,0.0,0.0,0.0,0.0,0.0,0.0,0.0,0.0,0.0,0.0,0.0,0.0,0.0,0.0,0.0,0.0,-0.0294199492782,-0.0686465501785,9.94394302368,0.0,0.0,0.0,0.0,0.0,0.0,0.0,0.0,0.0
1294737200,502272,1644544024940676212,1,0.0,0.0,0.0,0.0,0.0,0.0,0.0,0.0,0.0,0.0,0.0,0.0,0.0,0.0,0.0,0.0,0.0,0.0,0.0,0.0,0.0,0.0,0.0,0.0,0.0,-0.00980664975941,-0.00980664975941,9.8949098587,0.0,0.0,0.0,0.0,0.0,0.0,0.0,0.0,0.0
1297093800,502273,1644544024942688227,1,0.0,0.0,0.0,0.0,0.0,0.0,0.0,0.0,0.0,0.0,0.0,0.0,0.0,0.0,0.0,0.0,0.0,0.0,0.0,0.0,0.0,0.0,0.0,0.0,0.0,-0.0294199492782,0.0,9.91452312469,0.0,0.0,0.0,0.0,0.0,0.0,0.0,0.0,0.0
1299190100,502274,1644544024944704056,1,0.0,0.0,0.0,0.0,0.0,0.0,0.0,0.0,0.0,0.0,0.0,0.0,0.0,0.0,0.0,0.0,0.0,0.0,0.0,0.0,0.0,0.0,0.0,0.0,0.0,-0.0294199492782,-0.0294199492782,9.94394302368,0.0,0.0,0.0,0.0,0.0,0.0,0.0,0.0,0.0
1300960500,502275,1644544024946714163,1,0.0,0.0,0.0,0.0,0.0,0.0,0.0,0.0,0.0,0.0,0.0,0.0,0.0,0.0,0.0,0.0,0.0,0.0,0.0,0.0,0.0,0.0,0.0,0.0,0.0,-0.00980664975941,0.0,9.8949098587,0.0,0.0,0.0,0.0,0.0,0.0,0.0,0.0,0.0
1303091400,502276,1644544024948728085,1,0.0,0.0,0.0,0.0,0.0,0.0,0.0,0.0,0.0,0.0,0.0,0.0,0.0,0.0,0.0,0.0,0.0,0.0,0.0,0.0,0.0,0.0,0.0,0.0,0.0,-0.0294199492782,0.00980664975941,9.91452312469,0.0,0.0,0.0,0.0,0.0,0.0,0.0,0.0,0.0
1305083100,502277,1644544024950742245,1,0.0,0.0,0.0,0.0,0.0,0.0,0.0,0.0,0.0,0.0,0.0,0.0,0.0,0.0,0.0,0.0,0.0,0.0,0.0,0.0,0.0,0.0,0.0,0.0,0.0,-0.0686465501785,-0.00980664975941,9.96355628967,0.0,0.0,0.0,0.0,0.0,0.0,0.0,0.0,0.0
1307040500,502278,1644544024952754259,1,0.0,0.0,0.0,0.0,0.0,0.0,0.0,0.0,0.0,0.0,0.0,0.0,0.0,0.0,0.0,0.0,0.0,0.0,0.0,0.0,0.0,0.0,0.0,0.0,0.0,-0.0392265990376,-0.00980664975941,9.91452312469,0.0,0.0,0.0,0.0,0.0,0.0,0.0,0.0,0.0
1308984100,502279,1644544024954768181,1,0.0,0.0,0.0,0.0,0.0,0.0,0.0,0.0,0.0,0.0,0.0,0.0,0.0,0.0,0.0,0.0,0.0,0.0,0.0,0.0,0.0,0.0,0.0,0.0,0.0,-0.0686465501785,-0.00980664975941,9.8949098587,0.0,0.0,0.0,0.0,0.0,0.0,0.0,0.0,0.0
1311174200,502280,1644544024956779957,1,0.0,0.0,0.0,0.0,0.0,0.0,0.0,0.0,0.0,0.0,0.0,0.0,0.0,0.0,0.0,0.0,0.0,0.0,0.0,0.0,0.0,0.0,0.0,0.0,0.0,-0.0392265990376,0.0,9.8949098587,0.0,0.0,0.0,0.0,0.0,0.0,0.0,0.0,0.0
1313256000,502281,1644544024958793879,1,0.0,0.0,0.0,0.0,0.0,0.0,0.0,0.0,0.0,0.0,0.0,0.0,0.0,0.0,0.0,0.0,0.0,0.0,0.0,0.0,0.0,0.0,0.0,0.0,0.0,-0.0294199492782,-0.00980664975941,9.94394302368,0.0,0.0,0.0,0.0,0.0,0.0,0.0,0.0,0.0
1315597100,502282,1644544024960807800,1,0.0,0.0,0.0,0.0,0.0,0.0,0.0,0.0,0.0,0.0,0.0,0.0,0.0,0.0,0.0,0.0,0.0,0.0,0.0,0.0,0.0,0.0,0.0,0.0,0.0,-0.0784531980753,-0.0392265990376,9.94394302368,0.0,0.0,0.0,0.0,0.0,0.0,0.0,0.0,0.0
1316990200,502283,1644544024962819815,1,0.0,0.0,0.0,0.0,0.0,0.0,0.0,0.0,0.0,0.0,0.0,0.0,0.0,0.0,0.0,0.0,0.0,0.0,0.0,0.0,0.0,0.0,0.0,0.0,0.0,-0.0686465501785,0.00980664975941,9.91452312469,0.0,0.0,0.0,0.0,0.0,0.0,0.0,0.0,0.0
1319250100,502284,1644544024964831829,1,0.0,0.0,0.0,0.0,0.0,0.0,0.0,0.0,0.0,0.0,0.0,0.0,0.0,0.0,0.0,0.0,0.0,0.0,0.0,0.0,0.0,0.0,0.0,0.0,0.0,-0.0686465501785,0.00980664975941,9.96355628967,0.0,0.0,0.0,0.0,0.0,0.0,0.0,0.0,0.0
1321231900,502285,1644544024966845751,1,0.0,0.0,0.0,0.0,0.0,0.0,0.0,0.0,0.0,0.0,0.0,0.0,0.0,0.0,0.0,0.0,0.0,0.0,0.0,0.0,0.0,0.0,0.0,0.0,0.0,-0.0686465501785,-0.00980664975941,9.94394302368,0.0,0.0,0.0,0.0,0.0,0.0,0.0,0.0,0.0
1323256400,502286,1644544024968859673,1,0.0,0.0,0.0,0.0,0.0,0.0,0.0,0.0,0.0,0.0,0.0,0.0,0.0,0.0,0.0,0.0,0.0,0.0,0.0,0.0,0.0,0.0,0.0,0.0,0.0,-0.0686465501785,-0.00980664975941,9.98316955566,0.0,0.0,0.0,0.0,0.0,0.0,0.0,0.0,0.0
1325284600,502287,1644544024970871687,1,0.0,0.0,0.0,0.0,0.0,0.0,0.0,0.0,0.0,0.0,0.0,0.0,0.0,0.0,0.0,0.0,0.0,0.0,0.0,0.0,0.0,0.0,0.0,0.0,0.0,-0.0686465501785,0.00980664975941,9.94394302368,0.0,0.0,0.0,0.0,0.0,0.0,0.0,0.0,0.0
1327309400,502288,1644544024972885847,1,0.0,0.0,0.0,0.0,0.0,0.0,0.0,0.0,0.0,0.0,0.0,0.0,0.0,0.0,0.0,0.0,0.0,0.0,0.0,0.0,0.0,0.0,0.0,0.0,0.0,-0.0294199492782,0.0,9.94394302368,0.0,0.0,0.0,0.0,0.0,0.0,0.0,0.0,0.0
1329398200,502289,1644544024974897623,1,0.0,0.0,0.0,0.0,0.0,0.0,0.0,0.0,0.0,0.0,0.0,0.0,0.0,0.0,0.0,0.0,0.0,0.0,0.0,0.0,0.0,0.0,0.0,0.0,0.0,-0.0294199492782,0.0294199492782,9.91452312469,0.0,0.0,0.0,0.0,0.0,0.0,0.0,0.0,0.0
1331265300,502290,1644544024976911545,1,0.0,0.0,0.0,0.0,0.0,0.0,0.0,0.0,0.0,0.0,0.0,0.0,0.0,0.0,0.0,0.0,0.0,0.0,0.0,0.0,0.0,0.0,0.0,0.0,0.0,-0.0392265990376,0.0,9.98316955566,0.0,0.0,0.0,0.0,0.0,0.0,0.0,0.0,0.0
1333253900,502291,1644544024978925467,1,0.0,0.0,0.0,0.0,0.0,0.0,0.0,0.0,0.0,0.0,0.0,0.0,0.0,0.0,0.0,0.0,0.0,0.0,0.0,0.0,0.0,0.0,0.0,0.0,0.0,-0.0392265990376,0.00980664975941,9.91452312469,0.0,0.0,0.0,0.0,0.0,0.0,0.0,0.0,0.0
1335352200,502292,1644544024980937481,1,0.0,0.0,0.0,0.0,0.0,0.0,0.0,0.0,0.0,0.0,0.0,0.0,0.0,0.0,0.0,0.0,0.0,0.0,0.0,0.0,0.0,0.0,0.0,0.0,0.0,-0.0686465501785,0.0294199492782,9.94394302368,0.0,0.0,0.0,0.0,0.0,0.0,0.0,0.0,0.0
1337373700,502293,1644544024982951403,1,0.0,0.0,0.0,0.0,0.0,0.0,0.0,0.0,0.0,0.0,0.0,0.0,0.0,0.0,0.0,0.0,0.0,0.0,0.0,0.0,0.0,0.0,0.0,0.0,0.0,-0.0294199492782,0.0294199492782,9.8949098587,0.0,0.0,0.0,0.0,0.0,0.0,0.0,0.0,0.0
1339398700,502294,1644544024984963417,1,0.0,0.0,0.0,0.0,0.0,0.0,0.0,0.0,0.0,0.0,0.0,0.0,0.0,0.0,0.0,0.0,0.0,0.0,0.0,0.0,0.0,0.0,0.0,0.0,0.0,-0.0392265990376,0.00980664975941,9.8949098587,0.0,0.0,0.0,0.0,0.0,0.0,0.0,0.0,0.0
1341288700,502295,1644544024986979485,1,0.0,0.0,0.0,0.0,0.0,0.0,0.0,0.0,0.0,0.0,0.0,0.0,0.0,0.0,0.0,0.0,0.0,0.0,0.0,0.0,0.0,0.0,0.0,0.0,0.0,-0.0686465501785,-0.00980664975941,9.8949098587,0.0,0.0,0.0,0.0,0.0,0.0,0.0,0.0,0.0
1343776700,502296,1644544024988991499,1,0.0,0.0,0.0,0.0,0.0,0.0,0.0,0.0,0.0,0.0,0.0,0.0,0.0,0.0,0.0,0.0,0.0,0.0,0.0,0.0,0.0,0.0,0.0,0.0,0.0,-0.0392265990376,0.0,9.8949098587,0.0,0.0,0.0,0.0,0.0,0.0,0.0,0.0,0.0
1345361100,502297,1644544024991003513,1,0.0,0.0,0.0,0.0,0.0,0.0,0.0,0.0,0.0,0.0,0.0,0.0,0.0,0.0,0.0,0.0,0.0,0.0,0.0,0.0,0.0,0.0,0.0,0.0,0.0,-0.0294199492782,0.00980664975941,9.88510322571,0.0,0.0,0.0,0.0,0.0,0.0,0.0,0.0,0.0
1347717100,502298,1644544024993019342,1,0.0,0.0,0.0,0.0,0.0,0.0,0.0,0.0,0.0,0.0,0.0,0.0,0.0,0.0,0.0,0.0,0.0,0.0,0.0,0.0,0.0,0.0,0.0,0.0,0.0,-0.0392265990376,-0.0392265990376,9.94394302368,0.0,0.0,0.0,0.0,0.0,0.0,0.0,0.0,0.0
1349311700,502299,1644544024995031357,1,0.0,0.0,0.0,0.0,0.0,0.0,0.0,0.0,0.0,0.0,0.0,0.0,0.0,0.0,0.0,0.0,0.0,0.0,0.0,0.0,0.0,0.0,0.0,0.0,0.0,-0.0686465501785,0.0,9.99297618866,0.0,0.0,0.0,0.0,0.0,0.0,0.0,0.0,0.0
1351265200,502300,1644544024997043133,1,0.0,0.0,0.0,0.0,0.0,0.0,0.0,0.0,0.0,0.0,0.0,0.0,0.0,0.0,0.0,0.0,0.0,0.0,0.0,0.0,0.0,0.0,0.0,0.0,0.0,-0.0980664938688,0.00980664975941,9.88510322571,0.0,0.0,0.0,0.0,0.0,0.0,0.0,0.0,0.0
1353292400,502301,1644544024999057055,1,0.0,0.0,0.0,0.0,0.0,0.0,0.0,0.0,0.0,0.0,0.0,0.0,0.0,0.0,0.0,0.0,0.0,0.0,0.0,0.0,0.0,0.0,0.0,0.0,0.0,-0.0686465501785,0.0,9.96355628967,0.0,0.0,0.0,0.0,0.0,0.0,0.0,0.0,0.0
1355222700,502302,1644544025001069069,1,0.0,0.0,0.0,0.0,0.0,0.0,0.0,0.0,0.0,0.0,0.0,0.0,0.0,0.0,0.0,0.0,0.0,0.0,0.0,0.0,0.0,0.0,0.0,0.0,0.0,-0.0980664938688,0.0294199492782,9.91452312469,0.0,0.0,0.0,0.0,0.0,0.0,0.0,0.0,0.0
1357510900,502303,1644544025003082991,1,0.0,0.0,0.0,0.0,0.0,0.0,0.0,0.0,0.0,0.0,0.0,0.0,0.0,0.0,0.0,0.0,0.0,0.0,0.0,0.0,0.0,0.0,0.0,0.0,0.0,-0.0784531980753,-0.00980664975941,9.91452312469,0.0,0.0,0.0,0.0,0.0,0.0,0.0,0.0,0.0
1359299500,502304,1644544025005097151,1,0.0,0.0,0.0,0.0,0.0,0.0,0.0,0.0,0.0,0.0,0.0,0.0,0.0,0.0,0.0,0.0,0.0,0.0,0.0,0.0,0.0,0.0,0.0,0.0,0.0,-0.0784531980753,-0.00980664975941,9.98316955566,0.0,0.0,0.0,0.0,0.0,0.0,0.0,0.0,0.0
1361259800,502305,1644544025007109165,1,0.0,0.0,0.0,0.0,0.0,0.0,0.0,0.0,0.0,0.0,0.0,0.0,0.0,0.0,0.0,0.0,0.0,0.0,0.0,0.0,0.0,0.0,0.0,0.0,0.0,-0.0294199492782,0.00980664975941,9.88510322571,0.0,0.0,0.0,0.0,0.0,0.0,0.0,0.0,0.0
1363286100,502306,1644544025009123087,1,0.0,0.0,0.0,0.0,0.0,0.0,0.0,0.0,0.0,0.0,0.0,0.0,0.0,0.0,0.0,0.0,0.0,0.0,0.0,0.0,0.0,0.0,0.0,0.0,0.0,-0.0392265990376,-0.00980664975941,9.8949098587,0.0,0.0,0.0,0.0,0.0,0.0,0.0,0.0,0.0
1365300000,502307,1644544025011137009,1,0.0,0.0,0.0,0.0,0.0,0.0,0.0,0.0,0.0,0.0,0.0,0.0,0.0,0.0,0.0,0.0,0.0,0.0,0.0,0.0,0.0,0.0,0.0,0.0,0.0,-0.0392265990376,-0.00980664975941,9.96355628967,0.0,0.0,0.0,0.0,0.0,0.0,0.0,0.0,0.0
1367550000,502308,1644544025013149023,1,0.0,0.0,0.0,0.0,0.0,0.0,0.0,0.0,0.0,0.0,0.0,0.0,0.0,0.0,0.0,0.0,0.0,0.0,0.0,0.0,0.0,0.0,0.0,0.0,0.0,-0.0784531980753,-0.00980664975941,9.88510322571,0.0,0.0,0.0,0.0,0.0,0.0,0.0,0.0,0.0
1369288300,502309,1644544025015160799,1,0.0,0.0,0.0,0.0,0.0,0.0,0.0,0.0,0.0,0.0,0.0,0.0,0.0,0.0,0.0,0.0,0.0,0.0,0.0,0.0,0.0,0.0,0.0,0.0,0.0,-0.0784531980753,0.0,9.91452312469,0.0,0.0,0.0,0.0,0.0,0.0,0.0,0.0,0.0
1371265600,502310,1644544025017174721,1,0.0,0.0,0.0,0.0,0.0,0.0,0.0,0.0,0.0,0.0,0.0,0.0,0.0,0.0,0.0,0.0,0.0,0.0,0.0,0.0,0.0,0.0,0.0,0.0,0.0,-0.0392265990376,0.0,9.98316955566,0.0,0.0,0.0,0.0,0.0,0.0,0.0,0.0,0.0
1373602100,502311,1644544025019188643,1,0.0,0.0,0.0,0.0,0.0,0.0,0.0,0.0,0.0,0.0,0.0,0.0,0.0,0.0,0.0,0.0,0.0,0.0,0.0,0.0,0.0,0.0,0.0,0.0,0.0,-0.0294199492782,-0.00980664975941,9.96355628967,0.0,0.0,0.0,0.0,0.0,0.0,0.0,0.0,0.0
1375557200,502312,1644544025021202803,1,0.0,0.0,0.0,0.0,0.0,0.0,0.0,0.0,0.0,0.0,0.0,0.0,0.0,0.0,0.0,0.0,0.0,0.0,0.0,0.0,0.0,0.0,0.0,0.0,0.0,-0.0686465501785,-0.00980664975941,9.94394302368,0.0,0.0,0.0,0.0,0.0,0.0,0.0,0.0,0.0
1377497600,502313,1644544025023216724,1,0.0,0.0,0.0,0.0,0.0,0.0,0.0,0.0,0.0,0.0,0.0,0.0,0.0,0.0,0.0,0.0,0.0,0.0,0.0,0.0,0.0,0.0,0.0,0.0,0.0,-0.0392265990376,-0.0294199492782,9.96355628967,0.0,0.0,0.0,0.0,0.0,0.0,0.0,0.0,0.0
1379539600,502314,1644544025025228739,1,0.0,0.0,0.0,0.0,0.0,0.0,0.0,0.0,0.0,0.0,0.0,0.0,0.0,0.0,0.0,0.0,0.0,0.0,0.0,0.0,0.0,0.0,0.0,0.0,0.0,-0.0686465501785,0.00980664975941,9.8949098587,0.0,0.0,0.0,0.0,0.0,0.0,0.0,0.0,0.0
1381482900,502315,1644544025027240753,1,0.0,0.0,0.0,0.0,0.0,0.0,0.0,0.0,0.0,0.0,0.0,0.0,0.0,0.0,0.0,0.0,0.0,0.0,0.0,0.0,0.0,0.0,0.0,0.0,0.0,-0.0392265990376,0.0,9.8949098587,0.0,0.0,0.0,0.0,0.0,0.0,0.0,0.0,0.0
1383668000,502316,1644544025029254675,1,0.0,0.0,0.0,0.0,0.0,0.0,0.0,0.0,0.0,0.0,0.0,0.0,0.0,0.0,0.0,0.0,0.0,0.0,0.0,0.0,0.0,0.0,0.0,0.0,0.0,-0.0294199492782,-0.00980664975941,9.8949098587,0.0,0.0,0.0,0.0,0.0,0.0,0.0,0.0,0.0
1385599500,502317,1644544025031268597,1,0.0,0.0,0.0,0.0,0.0,0.0,0.0,0.0,0.0,0.0,0.0,0.0,0.0,0.0,0.0,0.0,0.0,0.0,0.0,0.0,0.0,0.0,0.0,0.0,0.0,-0.0784531980753,-0.00980664975941,9.94394302368,0.0,0.0,0.0,0.0,0.0,0.0,0.0,0.0,0.0
1387640800,502318,1644544025033282518,1,0.0,0.0,0.0,0.0,0.0,0.0,0.0,0.0,0.0,0.0,0.0,0.0,0.0,0.0,0.0,0.0,0.0,0.0,0.0,0.0,0.0,0.0,0.0,0.0,0.0,-0.0294199492782,-0.0294199492782,9.88510322571,0.0,0.0,0.0,0.0,0.0,0.0,0.0,0.0,0.0
1389632500,502319,1644544025035294533,1,0.0,0.0,0.0,0.0,0.0,0.0,0.0,0.0,0.0,0.0,0.0,0.0,0.0,0.0,0.0,0.0,0.0,0.0,0.0,0.0,0.0,0.0,0.0,0.0,0.0,-0.0392265990376,0.0,9.8949098587,0.0,0.0,0.0,0.0,0.0,0.0,0.0,0.0,0.0
1391630800,502320,1644544025037308693,1,0.0,0.0,0.0,0.0,0.0,0.0,0.0,0.0,0.0,0.0,0.0,0.0,0.0,0.0,0.0,0.0,0.0,0.0,0.0,0.0,0.0,0.0,0.0,0.0,0.0,-0.0686465501785,-0.00980664975941,9.96355628967,0.0,0.0,0.0,0.0,0.0,0.0,0.0,0.0,0.0
1393597300,502321,1644544025039322615,1,0.0,0.0,0.0,0.0,0.0,0.0,0.0,0.0,0.0,0.0,0.0,0.0,0.0,0.0,0.0,0.0,0.0,0.0,0.0,0.0,0.0,0.0,0.0,0.0,0.0,-0.0294199492782,-0.00980664975941,9.8949098587,0.0,0.0,0.0,0.0,0.0,0.0,0.0,0.0,0.0
1395664600,502322,1644544025041336536,1,0.0,0.0,0.0,0.0,0.0,0.0,0.0,0.0,0.0,0.0,0.0,0.0,0.0,0.0,0.0,0.0,0.0,0.0,0.0,0.0,0.0,0.0,0.0,0.0,0.0,-0.0392265990376,-0.0294199492782,9.94394302368,0.0,0.0,0.0,0.0,0.0,0.0,0.0,0.0,0.0
1397526800,502323,1644544025043348312,1,0.0,0.0,0.0,0.0,0.0,0.0,0.0,0.0,0.0,0.0,0.0,0.0,0.0,0.0,0.0,0.0,0.0,0.0,0.0,0.0,0.0,0.0,0.0,0.0,0.0,-0.00980664975941,0.0,9.94394302368,0.0,0.0,0.0,0.0,0.0,0.0,0.0,0.0,0.0
1399500500,502324,1644544025045362234,1,0.0,0.0,0.0,0.0,0.0,0.0,0.0,0.0,0.0,0.0,0.0,0.0,0.0,0.0,0.0,0.0,0.0,0.0,0.0,0.0,0.0,0.0,0.0,0.0,0.0,0.0,0.0,9.8949098587,0.0,0.0,0.0,0.0,0.0,0.0,0.0,0.0,0.0
1401498500,502325,1644544025047374249,1,0.0,0.0,0.0,0.0,0.0,0.0,0.0,0.0,0.0,0.0,0.0,0.0,0.0,0.0,0.0,0.0,0.0,0.0,0.0,0.0,0.0,0.0,0.0,0.0,0.0,-0.0686465501785,0.0,9.94394302368,0.0,0.0,0.0,0.0,0.0,0.0,0.0,0.0,0.0
1403484900,502326,1644544025049390316,1,0.0,0.0,0.0,0.0,0.0,0.0,0.0,0.0,0.0,0.0,0.0,0.0,0.0,0.0,0.0,0.0,0.0,0.0,0.0,0.0,0.0,0.0,0.0,0.0,0.0,-0.0392265990376,-0.00980664975941,9.94394302368,0.0,0.0,0.0,0.0,0.0,0.0,0.0,0.0,0.0
1405654000,502327,1644544025051402330,1,0.0,0.0,0.0,0.0,0.0,0.0,0.0,0.0,0.0,0.0,0.0,0.0,0.0,0.0,0.0,0.0,0.0,0.0,0.0,0.0,0.0,0.0,0.0,0.0,0.0,-0.0294199492782,-0.00980664975941,9.91452312469,0.0,0.0,0.0,0.0,0.0,0.0,0.0,0.0,0.0
1407564400,502328,1644544025053414345,1,0.0,0.0,0.0,0.0,0.0,0.0,0.0,0.0,0.0,0.0,0.0,0.0,0.0,0.0,0.0,0.0,0.0,0.0,0.0,0.0,0.0,0.0,0.0,0.0,0.0,-0.0294199492782,0.0294199492782,9.94394302368,0.0,0.0,0.0,0.0,0.0,0.0,0.0,0.0,0.0
1409486900,502329,1644544025055428028,1,0.0,0.0,0.0,0.0,0.0,0.0,0.0,0.0,0.0,0.0,0.0,0.0,0.0,0.0,0.0,0.0,0.0,0.0,0.0,0.0,0.0,0.0,0.0,0.0,0.0,-0.0784531980753,0.00980664975941,9.91452312469,0.0,0.0,0.0,0.0,0.0,0.0,0.0,0.0,0.0
1411732600,502330,1644544025057441950,1,0.0,0.0,0.0,0.0,0.0,0.0,0.0,0.0,0.0,0.0,0.0,0.0,0.0,0.0,0.0,0.0,0.0,0.0,0.0,0.0,0.0,0.0,0.0,0.0,0.0,-0.0784531980753,-0.00980664975941,9.8949098587,0.0,0.0,0.0,0.0,0.0,0.0,0.0,0.0,0.0
1413712000,502331,1644544025059455872,1,0.0,0.0,0.0,0.0,0.0,0.0,0.0,0.0,0.0,0.0,0.0,0.0,0.0,0.0,0.0,0.0,0.0,0.0,0.0,0.0,0.0,0.0,0.0,0.0,0.0,-0.0392265990376,-0.0294199492782,9.88510322571,0.0,0.0,0.0,0.0,0.0,0.0,0.0,0.0,0.0
1415815600,502332,1644544025061467886,1,0.0,0.0,0.0,0.0,0.0,0.0,0.0,0.0,0.0,0.0,0.0,0.0,0.0,0.0,0.0,0.0,0.0,0.0,0.0,0.0,0.0,0.0,0.0,0.0,0.0,-0.0392265990376,0.0,9.94394302368,0.0,0.0,0.0,0.0,0.0,0.0,0.0,0.0,0.0
1417817500,502333,1644544025063481808,1,0.0,0.0,0.0,0.0,0.0,0.0,0.0,0.0,0.0,0.0,0.0,0.0,0.0,0.0,0.0,0.0,0.0,0.0,0.0,0.0,0.0,0.0,0.0,0.0,0.0,-0.0294199492782,0.00980664975941,9.94394302368,0.0,0.0,0.0,0.0,0.0,0.0,0.0,0.0,0.0
1419908400,502334,1644544025065495491,1,0.0,0.0,0.0,0.0,0.0,0.0,0.0,0.0,0.0,0.0,0.0,0.0,0.0,0.0,0.0,0.0,0.0,0.0,0.0,0.0,0.0,0.0,0.0,0.0,0.0,-0.0686465501785,0.0,9.91452312469,0.0,0.0,0.0,0.0,0.0,0.0,0.0,0.0,0.0
1421928000,502335,1644544025067507267,1,0.0,0.0,0.0,0.0,0.0,0.0,0.0,0.0,0.0,0.0,0.0,0.0,0.0,0.0,0.0,0.0,0.0,0.0,0.0,0.0,0.0,0.0,0.0,0.0,0.0,-0.00980664975941,0.0,9.8949098587,0.0,0.0,0.0,0.0,0.0,0.0,0.0,0.0,0.0
1423909200,502336,1644544025069521189,1,0.0,0.0,0.0,0.0,0.0,0.0,0.0,0.0,0.0,0.0,0.0,0.0,0.0,0.0,0.0,0.0,0.0,0.0,0.0,0.0,0.0,0.0,0.0,0.0,0.0,-0.0686465501785,0.0,9.91452312469,0.0,0.0,0.0,0.0,0.0,0.0,0.0,0.0,0.0
1425778500,502337,1644544025071535110,1,0.0,0.0,0.0,0.0,0.0,0.0,0.0,0.0,0.0,0.0,0.0,0.0,0.0,0.0,0.0,0.0,0.0,0.0,0.0,0.0,0.0,0.0,0.0,0.0,0.0,-0.0784531980753,0.00980664975941,9.96355628967,0.0,0.0,0.0,0.0,0.0,0.0,0.0,0.0,0.0
1427711600,502338,1644544025073547125,1,0.0,0.0,0.0,0.0,0.0,0.0,0.0,0.0,0.0,0.0,0.0,0.0,0.0,0.0,0.0,0.0,0.0,0.0,0.0,0.0,0.0,0.0,0.0,0.0,0.0,-0.0686465501785,0.00980664975941,9.96355628967,0.0,0.0,0.0,0.0,0.0,0.0,0.0,0.0,0.0
1429747300,502339,1644544025075561047,1,0.0,0.0,0.0,0.0,0.0,0.0,0.0,0.0,0.0,0.0,0.0,0.0,0.0,0.0,0.0,0.0,0.0,0.0,0.0,0.0,0.0,0.0,0.0,0.0,0.0,-0.0784531980753,0.0392265990376,9.88510322571,0.0,0.0,0.0,0.0,0.0,0.0,0.0,0.0,0.0
1431709900,502340,1644544025077574730,1,0.0,0.0,0.0,0.0,0.0,0.0,0.0,0.0,0.0,0.0,0.0,0.0,0.0,0.0,0.0,0.0,0.0,0.0,0.0,0.0,0.0,0.0,0.0,0.0,0.0,-0.0686465501785,0.0392265990376,9.94394302368,0.0,0.0,0.0,0.0,0.0,0.0,0.0,0.0,0.0
1434012500,502341,1644544025079586744,1,0.0,0.0,0.0,0.0,0.0,0.0,0.0,0.0,0.0,0.0,0.0,0.0,0.0,0.0,0.0,0.0,0.0,0.0,0.0,0.0,0.0,0.0,0.0,0.0,0.0,-0.0392265990376,0.0,9.94394302368,0.0,0.0,0.0,0.0,0.0,0.0,0.0,0.0,0.0
1436080300,502342,1644544025081600666,1,0.0,0.0,0.0,0.0,0.0,0.0,0.0,0.0,0.0,0.0,0.0,0.0,0.0,0.0,0.0,0.0,0.0,0.0,0.0,0.0,0.0,0.0,0.0,0.0,0.0,-0.0294199492782,0.0,9.94394302368,0.0,0.0,0.0,0.0,0.0,0.0,0.0,0.0,0.0
1438052900,502343,1644544025083614588,1,0.0,0.0,0.0,0.0,0.0,0.0,0.0,0.0,0.0,0.0,0.0,0.0,0.0,0.0,0.0,0.0,0.0,0.0,0.0,0.0,0.0,0.0,0.0,0.0,0.0,-0.0392265990376,0.0,9.98316955566,0.0,0.0,0.0,0.0,0.0,0.0,0.0,0.0,0.0
1439701600,502344,1644544025085628510,1,0.0,0.0,0.0,0.0,0.0,0.0,0.0,0.0,0.0,0.0,0.0,0.0,0.0,0.0,0.0,0.0,0.0,0.0,0.0,0.0,0.0,0.0,0.0,0.0,0.0,-0.0980664938688,0.00980664975941,9.88510322571,0.0,0.0,0.0,0.0,0.0,0.0,0.0,0.0,0.0
1442025200,502345,1644544025087640047,1,0.0,0.0,0.0,0.0,0.0,0.0,0.0,0.0,0.0,0.0,0.0,0.0,0.0,0.0,0.0,0.0,0.0,0.0,0.0,0.0,0.0,0.0,0.0,0.0,0.0,-0.0294199492782,0.0,9.96355628967,0.0,0.0,0.0,0.0,0.0,0.0,0.0,0.0,0.0
1444008400,502346,1644544025089653969,1,0.0,0.0,0.0,0.0,0.0,0.0,0.0,0.0,0.0,0.0,0.0,0.0,0.0,0.0,0.0,0.0,0.0,0.0,0.0,0.0,0.0,0.0,0.0,0.0,0.0,-0.0294199492782,0.0,9.91452312469,0.0,0.0,0.0,0.0,0.0,0.0,0.0,0.0,0.0
1446064400,502347,1644544025091665983,1,0.0,0.0,0.0,0.0,0.0,0.0,0.0,0.0,0.0,0.0,0.0,0.0,0.0,0.0,0.0,0.0,0.0,0.0,0.0,0.0,0.0,0.0,0.0,0.0,0.0,-0.0294199492782,0.0392265990376,9.98316955566,0.0,0.0,0.0,0.0,0.0,0.0,0.0,0.0,0.0
1448016700,502348,1644544025093679905,1,0.0,0.0,0.0,0.0,0.0,0.0,0.0,0.0,0.0,0.0,0.0,0.0,0.0,0.0,0.0,0.0,0.0,0.0,0.0,0.0,0.0,0.0,0.0,0.0,0.0,-0.00980664975941,0.0,9.94394302368,0.0,0.0,0.0,0.0,0.0,0.0,0.0,0.0,0.0
1450099900,502349,1644544025095691919,1,0.0,0.0,0.0,0.0,0.0,0.0,0.0,0.0,0.0,0.0,0.0,0.0,0.0,0.0,0.0,0.0,0.0,0.0,0.0,0.0,0.0,0.0,0.0,0.0,0.0,-0.0686465501785,0.0294199492782,9.91452312469,0.0,0.0,0.0,0.0,0.0,0.0,0.0,0.0,0.0
1452253500,502350,1644544025097705603,1,0.0,0.0,0.0,0.0,0.0,0.0,0.0,0.0,0.0,0.0,0.0,0.0,0.0,0.0,0.0,0.0,0.0,0.0,0.0,0.0,0.0,0.0,0.0,0.0,0.0,-0.0392265990376,0.00980664975941,9.96355628967,0.0,0.0,0.0,0.0,0.0,0.0,0.0,0.0,0.0
1454025600,502351,1644544025099719524,1,0.0,0.0,0.0,0.0,0.0,0.0,0.0,0.0,0.0,0.0,0.0,0.0,0.0,0.0,0.0,0.0,0.0,0.0,0.0,0.0,0.0,0.0,0.0,0.0,0.0,-0.0392265990376,0.00980664975941,9.88510322571,0.0,0.0,0.0,0.0,0.0,0.0,0.0,0.0,0.0
1455984700,502352,1644544025101731539,1,0.0,0.0,0.0,0.0,0.0,0.0,0.0,0.0,0.0,0.0,0.0,0.0,0.0,0.0,0.0,0.0,0.0,0.0,0.0,0.0,0.0,0.0,0.0,0.0,0.0,-0.0686465501785,0.0392265990376,9.91452312469,0.0,0.0,0.0,0.0,0.0,0.0,0.0,0.0,0.0
1458008500,502353,1644544025103745461,1,0.0,0.0,0.0,0.0,0.0,0.0,0.0,0.0,0.0,0.0,0.0,0.0,0.0,0.0,0.0,0.0,0.0,0.0,0.0,0.0,0.0,0.0,0.0,0.0,0.0,-0.0392265990376,0.0294199492782,9.91452312469,0.0,0.0,0.0,0.0,0.0,0.0,0.0,0.0,0.0
1460243900,502354,1644544025105759382,1,0.0,0.0,0.0,0.0,0.0,0.0,0.0,0.0,0.0,0.0,0.0,0.0,0.0,0.0,0.0,0.0,0.0,0.0,0.0,0.0,0.0,0.0,0.0,0.0,0.0,-0.0784531980753,0.0294199492782,9.91452312469,0.0,0.0,0.0,0.0,0.0,0.0,0.0,0.0,0.0
1462007000,502355,1644544025107770920,1,0.0,0.0,0.0,0.0,0.0,0.0,0.0,0.0,0.0,0.0,0.0,0.0,0.0,0.0,0.0,0.0,0.0,0.0,0.0,0.0,0.0,0.0,0.0,0.0,0.0,-0.0294199492782,0.0294199492782,9.96355628967,0.0,0.0,0.0,0.0,0.0,0.0,0.0,0.0,0.0
1464109000,502356,1644544025109784842,1,0.0,0.0,0.0,0.0,0.0,0.0,0.0,0.0,0.0,0.0,0.0,0.0,0.0,0.0,0.0,0.0,0.0,0.0,0.0,0.0,0.0,0.0,0.0,0.0,0.0,-0.0294199492782,0.00980664975941,9.8949098587,0.0,0.0,0.0,0.0,0.0,0.0,0.0,0.0,0.0
1466707200,502357,1644544025111798763,1,0.0,0.0,0.0,0.0,0.0,0.0,0.0,0.0,0.0,0.0,0.0,0.0,0.0,0.0,0.0,0.0,0.0,0.0,0.0,0.0,0.0,0.0,0.0,0.0,0.0,-0.0294199492782,0.0392265990376,9.88510322571,0.0,0.0,0.0,0.0,0.0,0.0,0.0,0.0,0.0
1468375300,502358,1644544025113810539,1,0.0,0.0,0.0,0.0,0.0,0.0,0.0,0.0,0.0,0.0,0.0,0.0,0.0,0.0,0.0,0.0,0.0,0.0,0.0,0.0,0.0,0.0,0.0,0.0,0.0,-0.0392265990376,0.0294199492782,9.86548995972,0.0,0.0,0.0,0.0,0.0,0.0,0.0,0.0,0.0
1470348200,502359,1644544025115824461,1,0.0,0.0,0.0,0.0,0.0,0.0,0.0,0.0,0.0,0.0,0.0,0.0,0.0,0.0,0.0,0.0,0.0,0.0,0.0,0.0,0.0,0.0,0.0,0.0,0.0,-0.0294199492782,0.0686465501785,9.94394302368,0.0,0.0,0.0,0.0,0.0,0.0,0.0,0.0,0.0
1472014600,502360,1644544025117838144,1,0.0,0.0,0.0,0.0,0.0,0.0,0.0,0.0,0.0,0.0,0.0,0.0,0.0,0.0,0.0,0.0,0.0,0.0,0.0,0.0,0.0,0.0,0.0,0.0,0.0,-0.0392265990376,0.0392265990376,9.99297618866,0.0,0.0,0.0,0.0,0.0,0.0,0.0,0.0,0.0
1474064100,502361,1644544025119850159,1,0.0,0.0,0.0,0.0,0.0,0.0,0.0,0.0,0.0,0.0,0.0,0.0,0.0,0.0,0.0,0.0,0.0,0.0,0.0,0.0,0.0,0.0,0.0,0.0,0.0,-0.0392265990376,0.00980664975941,9.96355628967,0.0,0.0,0.0,0.0,0.0,0.0,0.0,0.0,0.0
1476316300,502362,1644544025121863842,1,0.0,0.0,0.0,0.0,0.0,0.0,0.0,0.0,0.0,0.0,0.0,0.0,0.0,0.0,0.0,0.0,0.0,0.0,0.0,0.0,0.0,0.0,0.0,0.0,0.0,-0.0294199492782,0.00980664975941,9.88510322571,0.0,0.0,0.0,0.0,0.0,0.0,0.0,0.0,0.0
1477950100,502363,1644544025123877764,1,0.0,0.0,0.0,0.0,0.0,0.0,0.0,0.0,0.0,0.0,0.0,0.0,0.0,0.0,0.0,0.0,0.0,0.0,0.0,0.0,0.0,0.0,0.0,0.0,0.0,-0.0294199492782,0.0392265990376,9.88510322571,0.0,0.0,0.0,0.0,0.0,0.0,0.0,0.0,0.0
1480318100,502364,1644544025125891685,1,0.0,0.0,0.0,0.0,0.0,0.0,0.0,0.0,0.0,0.0,0.0,0.0,0.0,0.0,0.0,0.0,0.0,0.0,0.0,0.0,0.0,0.0,0.0,0.0,0.0,-0.0686465501785,0.00980664975941,9.94394302368,0.0,0.0,0.0,0.0,0.0,0.0,0.0,0.0,0.0
1482445400,502365,1644544025127905369,1,0.0,0.0,0.0,0.0,0.0,0.0,0.0,0.0,0.0,0.0,0.0,0.0,0.0,0.0,0.0,0.0,0.0,0.0,0.0,0.0,0.0,0.0,0.0,0.0,0.0,-0.0294199492782,0.0294199492782,9.91452312469,0.0,0.0,0.0,0.0,0.0,0.0,0.0,0.0,0.0
1484281100,502366,1644544025129917145,1,0.0,0.0,0.0,0.0,0.0,0.0,0.0,0.0,0.0,0.0,0.0,0.0,0.0,0.0,0.0,0.0,0.0,0.0,0.0,0.0,0.0,0.0,0.0,0.0,0.0,-0.0392265990376,0.00980664975941,9.8949098587,0.0,0.0,0.0,0.0,0.0,0.0,0.0,0.0,0.0
1486239700,502367,1644544025131931067,1,0.0,0.0,0.0,0.0,0.0,0.0,0.0,0.0,0.0,0.0,0.0,0.0,0.0,0.0,0.0,0.0,0.0,0.0,0.0,0.0,0.0,0.0,0.0,0.0,0.0,-0.0392265990376,0.00980664975941,9.94394302368,0.0,0.0,0.0,0.0,0.0,0.0,0.0,0.0,0.0
1488248000,502368,1644544025133944750,1,0.0,0.0,0.0,0.0,0.0,0.0,0.0,0.0,0.0,0.0,0.0,0.0,0.0,0.0,0.0,0.0,0.0,0.0,0.0,0.0,0.0,0.0,0.0,0.0,0.0,-0.0686465501785,0.0,9.94394302368,0.0,0.0,0.0,0.0,0.0,0.0,0.0,0.0,0.0
1490243000,502369,1644544025135958672,1,0.0,0.0,0.0,0.0,0.0,0.0,0.0,0.0,0.0,0.0,0.0,0.0,0.0,0.0,0.0,0.0,0.0,0.0,0.0,0.0,0.0,0.0,0.0,0.0,0.0,-0.0294199492782,0.0294199492782,9.91452312469,0.0,0.0,0.0,0.0,0.0,0.0,0.0,0.0,0.0
1492374300,502370,1644544025137970448,1,0.0,0.0,0.0,0.0,0.0,0.0,0.0,0.0,0.0,0.0,0.0,0.0,0.0,0.0,0.0,0.0,0.0,0.0,0.0,0.0,0.0,0.0,0.0,0.0,0.0,-0.0686465501785,0.0392265990376,9.99297618866,0.0,0.0,0.0,0.0,0.0,0.0,0.0,0.0,0.0
1494286000,502371,1644544025139984369,1,0.0,0.0,0.0,0.0,0.0,0.0,0.0,0.0,0.0,0.0,0.0,0.0,0.0,0.0,0.0,0.0,0.0,0.0,0.0,0.0,0.0,0.0,0.0,0.0,0.0,-0.0686465501785,0.00980664975941,9.94394302368,0.0,0.0,0.0,0.0,0.0,0.0,0.0,0.0,0.0
1496772900,502372,1644544025141998291,1,0.0,0.0,0.0,0.0,0.0,0.0,0.0,0.0,0.0,0.0,0.0,0.0,0.0,0.0,0.0,0.0,0.0,0.0,0.0,0.0,0.0,0.0,0.0,0.0,0.0,-0.0294199492782,0.00980664975941,9.96355628967,0.0,0.0,0.0,0.0,0.0,0.0,0.0,0.0,0.0
1498305700,502373,1644544025144011974,1,0.0,0.0,0.0,0.0,0.0,0.0,0.0,0.0,0.0,0.0,0.0,0.0,0.0,0.0,0.0,0.0,0.0,0.0,0.0,0.0,0.0,0.0,0.0,0.0,0.0,-0.0784531980753,0.00980664975941,9.91452312469,0.0,0.0,0.0,0.0,0.0,0.0,0.0,0.0,0.0
1500233100,502374,1644544025146023989,1,0.0,0.0,0.0,0.0,0.0,0.0,0.0,0.0,0.0,0.0,0.0,0.0,0.0,0.0,0.0,0.0,0.0,0.0,0.0,0.0,0.0,0.0,0.0,0.0,0.0,-0.0392265990376,0.0294199492782,9.8949098587,0.0,0.0,0.0,0.0,0.0,0.0,0.0,0.0,0.0
1502314900,502375,1644544025148037672,1,0.0,0.0,0.0,0.0,0.0,0.0,0.0,0.0,0.0,0.0,0.0,0.0,0.0,0.0,0.0,0.0,0.0,0.0,0.0,0.0,0.0,0.0,0.0,0.0,0.0,-0.0686465501785,0.0392265990376,9.8949098587,0.0,0.0,0.0,0.0,0.0,0.0,0.0,0.0,0.0
1504452600,502376,1644544025150049448,1,0.0,0.0,0.0,0.0,0.0,0.0,0.0,0.0,0.0,0.0,0.0,0.0,0.0,0.0,0.0,0.0,0.0,0.0,0.0,0.0,0.0,0.0,0.0,0.0,0.0,-0.0392265990376,0.0294199492782,9.94394302368,0.0,0.0,0.0,0.0,0.0,0.0,0.0,0.0,0.0
1506320400,502377,1644544025152063370,1,0.0,0.0,0.0,0.0,0.0,0.0,0.0,0.0,0.0,0.0,0.0,0.0,0.0,0.0,0.0,0.0,0.0,0.0,0.0,0.0,0.0,0.0,0.0,0.0,0.0,-0.0392265990376,0.0,9.98316955566,0.0,0.0,0.0,0.0,0.0,0.0,0.0,0.0,0.0
1508296600,502378,1644544025154077053,1,0.0,0.0,0.0,0.0,0.0,0.0,0.0,0.0,0.0,0.0,0.0,0.0,0.0,0.0,0.0,0.0,0.0,0.0,0.0,0.0,0.0,0.0,0.0,0.0,0.0,-0.0392265990376,0.00980664975941,9.96355628967,0.0,0.0,0.0,0.0,0.0,0.0,0.0,0.0,0.0
1510428100,502379,1644544025156090975,1,0.0,0.0,0.0,0.0,0.0,0.0,0.0,0.0,0.0,0.0,0.0,0.0,0.0,0.0,0.0,0.0,0.0,0.0,0.0,0.0,0.0,0.0,0.0,0.0,0.0,-0.0980664938688,0.0392265990376,9.91452312469,0.0,0.0,0.0,0.0,0.0,0.0,0.0,0.0,0.0
1513116000,502380,1644544025158102751,1,0.0,0.0,0.0,0.0,0.0,0.0,0.0,0.0,0.0,0.0,0.0,0.0,0.0,0.0,0.0,0.0,0.0,0.0,0.0,0.0,0.0,0.0,0.0,0.0,0.0,-0.0980664938688,0.0294199492782,9.98316955566,0.0,0.0,0.0,0.0,0.0,0.0,0.0,0.0,0.0
1514376300,502381,1644544025160116673,1,0.0,0.0,0.0,0.0,0.0,0.0,0.0,0.0,0.0,0.0,0.0,0.0,0.0,0.0,0.0,0.0,0.0,0.0,0.0,0.0,0.0,0.0,0.0,0.0,0.0,-0.0980664938688,0.0294199492782,9.96355628967,0.0,0.0,0.0,0.0,0.0,0.0,0.0,0.0,0.0
1516465500,502382,1644544025162130594,1,0.0,0.0,0.0,0.0,0.0,0.0,0.0,0.0,0.0,0.0,0.0,0.0,0.0,0.0,0.0,0.0,0.0,0.0,0.0,0.0,0.0,0.0,0.0,0.0,0.0,-0.0686465501785,-0.00980664975941,9.91452312469,0.0,0.0,0.0,0.0,0.0,0.0,0.0,0.0,0.0
1518564500,502383,1644544025164142370,1,0.0,0.0,0.0,0.0,0.0,0.0,0.0,0.0,0.0,0.0,0.0,0.0,0.0,0.0,0.0,0.0,0.0,0.0,0.0,0.0,0.0,0.0,0.0,0.0,0.0,-0.0784531980753,0.0294199492782,9.94394302368,0.0,0.0,0.0,0.0,0.0,0.0,0.0,0.0,0.0
1520465500,502384,1644544025166156292,1,0.0,0.0,0.0,0.0,0.0,0.0,0.0,0.0,0.0,0.0,0.0,0.0,0.0,0.0,0.0,0.0,0.0,0.0,0.0,0.0,0.0,0.0,0.0,0.0,0.0,-0.0686465501785,0.0294199492782,9.98316955566,0.0,0.0,0.0,0.0,0.0,0.0,0.0,0.0,0.0
1522423900,502385,1644544025168169975,1,0.0,0.0,0.0,0.0,0.0,0.0,0.0,0.0,0.0,0.0,0.0,0.0,0.0,0.0,0.0,0.0,0.0,0.0,0.0,0.0,0.0,0.0,0.0,0.0,0.0,-0.0980664938688,0.0392265990376,9.91452312469,0.0,0.0,0.0,0.0,0.0,0.0,0.0,0.0,0.0
1524337800,502386,1644544025170183897,1,0.0,0.0,0.0,0.0,0.0,0.0,0.0,0.0,0.0,0.0,0.0,0.0,0.0,0.0,0.0,0.0,0.0,0.0,0.0,0.0,0.0,0.0,0.0,0.0,0.0,-0.0294199492782,0.0294199492782,9.98316955566,0.0,0.0,0.0,0.0,0.0,0.0,0.0,0.0,0.0
1526491500,502387,1644544025172195911,1,0.0,0.0,0.0,0.0,0.0,0.0,0.0,0.0,0.0,0.0,0.0,0.0,0.0,0.0,0.0,0.0,0.0,0.0,0.0,0.0,0.0,0.0,0.0,0.0,0.0,-0.0686465501785,0.0294199492782,9.98316955566,0.0,0.0,0.0,0.0,0.0,0.0,0.0,0.0,0.0
1528519000,502388,1644544025174209356,1,0.0,0.0,0.0,0.0,0.0,0.0,0.0,0.0,0.0,0.0,0.0,0.0,0.0,0.0,0.0,0.0,0.0,0.0,0.0,0.0,0.0,0.0,0.0,0.0,0.0,-0.0392265990376,0.0294199492782,9.94394302368,0.0,0.0,0.0,0.0,0.0,0.0,0.0,0.0,0.0
1530453200,502389,1644544025176223278,1,0.0,0.0,0.0,0.0,0.0,0.0,0.0,0.0,0.0,0.0,0.0,0.0,0.0,0.0,0.0,0.0,0.0,0.0,0.0,0.0,0.0,0.0,0.0,0.0,0.0,-0.0686465501785,0.0392265990376,9.96355628967,0.0,0.0,0.0,0.0,0.0,0.0,0.0,0.0,0.0
1532450800,502390,1644544025178237200,1,0.0,0.0,0.0,0.0,0.0,0.0,0.0,0.0,0.0,0.0,0.0,0.0,0.0,0.0,0.0,0.0,0.0,0.0,0.0,0.0,0.0,0.0,0.0,0.0,0.0,-0.0784531980753,-0.00980664975941,9.94394302368,0.0,0.0,0.0,0.0,0.0,0.0,0.0,0.0,0.0
1534443300,502391,1644544025180248976,1,0.0,0.0,0.0,0.0,0.0,0.0,0.0,0.0,0.0,0.0,0.0,0.0,0.0,0.0,0.0,0.0,0.0,0.0,0.0,0.0,0.0,0.0,0.0,0.0,0.0,-0.0392265990376,0.0392265990376,9.98316955566,0.0,0.0,0.0,0.0,0.0,0.0,0.0,0.0,0.0
1536446800,502392,1644544025182262897,1,0.0,0.0,0.0,0.0,0.0,0.0,0.0,0.0,0.0,0.0,0.0,0.0,0.0,0.0,0.0,0.0,0.0,0.0,0.0,0.0,0.0,0.0,0.0,0.0,0.0,-0.0392265990376,0.00980664975941,9.91452312469,0.0,0.0,0.0,0.0,0.0,0.0,0.0,0.0,0.0
1538457800,502393,1644544025184274673,1,0.0,0.0,0.0,0.0,0.0,0.0,0.0,0.0,0.0,0.0,0.0,0.0,0.0,0.0,0.0,0.0,0.0,0.0,0.0,0.0,0.0,0.0,0.0,0.0,0.0,-0.00980664975941,0.00980664975941,9.98316955566,0.0,0.0,0.0,0.0,0.0,0.0,0.0,0.0,0.0
1540437800,502394,1644544025186288595,1,0.0,0.0,0.0,0.0,0.0,0.0,0.0,0.0,0.0,0.0,0.0,0.0,0.0,0.0,0.0,0.0,0.0,0.0,0.0,0.0,0.0,0.0,0.0,0.0,0.0,-0.0392265990376,0.0294199492782,9.94394302368,0.0,0.0,0.0,0.0,0.0,0.0,0.0,0.0,0.0
1542575700,502395,1644544025188302279,1,0.0,0.0,0.0,0.0,0.0,0.0,0.0,0.0,0.0,0.0,0.0,0.0,0.0,0.0,0.0,0.0,0.0,0.0,0.0,0.0,0.0,0.0,0.0,0.0,0.0,-0.0294199492782,0.0392265990376,9.91452312469,0.0,0.0,0.0,0.0,0.0,0.0,0.0,0.0,0.0
1544947000,502396,1644544025190314293,1,0.0,0.0,0.0,0.0,0.0,0.0,0.0,0.0,0.0,0.0,0.0,0.0,0.0,0.0,0.0,0.0,0.0,0.0,0.0,0.0,0.0,0.0,0.0,0.0,0.0,-0.0392265990376,0.0392265990376,9.94394302368,0.0,0.0,0.0,0.0,0.0,0.0,0.0,0.0,0.0
1546715200,502397,1644544025192328215,1,0.0,0.0,0.0,0.0,0.0,0.0,0.0,0.0,0.0,0.0,0.0,0.0,0.0,0.0,0.0,0.0,0.0,0.0,0.0,0.0,0.0,0.0,0.0,0.0,0.0,-0.0784531980753,0.0294199492782,9.91452312469,0.0,0.0,0.0,0.0,0.0,0.0,0.0,0.0,0.0
1548743500,502398,1644544025194341898,1,0.0,0.0,0.0,0.0,0.0,0.0,0.0,0.0,0.0,0.0,0.0,0.0,0.0,0.0,0.0,0.0,0.0,0.0,0.0,0.0,0.0,0.0,0.0,0.0,0.0,-0.0294199492782,0.0294199492782,9.96355628967,0.0,0.0,0.0,0.0,0.0,0.0,0.0,0.0,0.0
1550516800,502399,1644544025196355820,1,0.0,0.0,0.0,0.0,0.0,0.0,0.0,0.0,0.0,0.0,0.0,0.0,0.0,0.0,0.0,0.0,0.0,0.0,0.0,0.0,0.0,0.0,0.0,0.0,0.0,-0.0686465501785,0.0294199492782,9.96355628967,0.0,0.0,0.0,0.0,0.0,0.0,0.0,0.0,0.0
1552705300,502400,1644544025198367357,1,0.0,0.0,0.0,0.0,0.0,0.0,0.0,0.0,0.0,0.0,0.0,0.0,0.0,0.0,0.0,0.0,0.0,0.0,0.0,0.0,0.0,0.0,0.0,0.0,0.0,-0.0686465501785,0.0392265990376,9.94394302368,0.0,0.0,0.0,0.0,0.0,0.0,0.0,0.0,0.0
1554852600,502401,1644544025200381279,1,0.0,0.0,0.0,0.0,0.0,0.0,0.0,0.0,0.0,0.0,0.0,0.0,0.0,0.0,0.0,0.0,0.0,0.0,0.0,0.0,0.0,0.0,0.0,0.0,0.0,-0.00980664975941,0.0392265990376,9.8949098587,0.0,0.0,0.0,0.0,0.0,0.0,0.0,0.0,0.0
1556865300,502402,1644544025202395201,1,0.0,0.0,0.0,0.0,0.0,0.0,0.0,0.0,0.0,0.0,0.0,0.0,0.0,0.0,0.0,0.0,0.0,0.0,0.0,0.0,0.0,0.0,0.0,0.0,0.0,-0.0392265990376,0.0392265990376,9.8949098587,0.0,0.0,0.0,0.0,0.0,0.0,0.0,0.0,0.0
1558849000,502403,1644544025204408884,1,0.0,0.0,0.0,0.0,0.0,0.0,0.0,0.0,0.0,0.0,0.0,0.0,0.0,0.0,0.0,0.0,0.0,0.0,0.0,0.0,0.0,0.0,0.0,0.0,0.0,-0.0392265990376,0.00980664975941,9.88510322571,0.0,0.0,0.0,0.0,0.0,0.0,0.0,0.0,0.0
1560831600,502404,1644544025206420898,1,0.0,0.0,0.0,0.0,0.0,0.0,0.0,0.0,0.0,0.0,0.0,0.0,0.0,0.0,0.0,0.0,0.0,0.0,0.0,0.0,0.0,0.0,0.0,0.0,0.0,-0.0294199492782,0.0294199492782,9.8949098587,0.0,0.0,0.0,0.0,0.0,0.0,0.0,0.0,0.0
1563099600,502405,1644544025208434582,1,0.0,0.0,0.0,0.0,0.0,0.0,0.0,0.0,0.0,0.0,0.0,0.0,0.0,0.0,0.0,0.0,0.0,0.0,0.0,0.0,0.0,0.0,0.0,0.0,0.0,-0.0392265990376,0.0294199492782,9.91452312469,0.0,0.0,0.0,0.0,0.0,0.0,0.0,0.0,0.0
1564819900,502406,1644544025210446596,1,0.0,0.0,0.0,0.0,0.0,0.0,0.0,0.0,0.0,0.0,0.0,0.0,0.0,0.0,0.0,0.0,0.0,0.0,0.0,0.0,0.0,0.0,0.0,0.0,0.0,-0.0784531980753,0.00980664975941,9.8949098587,0.0,0.0,0.0,0.0,0.0,0.0,0.0,0.0,0.0
1566769800,502407,1644544025212460518,1,0.0,0.0,0.0,0.0,0.0,0.0,0.0,0.0,0.0,0.0,0.0,0.0,0.0,0.0,0.0,0.0,0.0,0.0,0.0,0.0,0.0,0.0,0.0,0.0,0.0,-0.0392265990376,0.00980664975941,9.91452312469,0.0,0.0,0.0,0.0,0.0,0.0,0.0,0.0,0.0
1568766000,502408,1644544025214474201,1,0.0,0.0,0.0,0.0,0.0,0.0,0.0,0.0,0.0,0.0,0.0,0.0,0.0,0.0,0.0,0.0,0.0,0.0,0.0,0.0,0.0,0.0,0.0,0.0,0.0,-0.0294199492782,0.0294199492782,9.88510322571,0.0,0.0,0.0,0.0,0.0,0.0,0.0,0.0,0.0
1570756500,502409,1644544025216485977,1,0.0,0.0,0.0,0.0,0.0,0.0,0.0,0.0,0.0,0.0,0.0,0.0,0.0,0.0,0.0,0.0,0.0,0.0,0.0,0.0,0.0,0.0,0.0,0.0,0.0,-0.0294199492782,0.0784531980753,9.94394302368,0.0,0.0,0.0,0.0,0.0,0.0,0.0,0.0,0.0
1573046700,502410,1644544025218499660,1,0.0,0.0,0.0,0.0,0.0,0.0,0.0,0.0,0.0,0.0,0.0,0.0,0.0,0.0,0.0,0.0,0.0,0.0,0.0,0.0,0.0,0.0,0.0,0.0,0.0,-0.0686465501785,0.0,9.8949098587,0.0,0.0,0.0,0.0,0.0,0.0,0.0,0.0,0.0
1574763300,502411,1644544025220513582,1,0.0,0.0,0.0,0.0,0.0,0.0,0.0,0.0,0.0,0.0,0.0,0.0,0.0,0.0,0.0,0.0,0.0,0.0,0.0,0.0,0.0,0.0,0.0,0.0,0.0,-0.0294199492782,0.0392265990376,9.94394302368,0.0,0.0,0.0,0.0,0.0,0.0,0.0,0.0,0.0
1576741600,502412,1644544025222525358,1,0.0,0.0,0.0,0.0,0.0,0.0,0.0,0.0,0.0,0.0,0.0,0.0,0.0,0.0,0.0,0.0,0.0,0.0,0.0,0.0,0.0,0.0,0.0,0.0,0.0,-0.00980664975941,0.0294199492782,9.91452312469,0.0,0.0,0.0,0.0,0.0,0.0,0.0,0.0,0.0
1578722500,502413,1644544025224539280,1,0.0,0.0,0.0,0.0,0.0,0.0,0.0,0.0,0.0,0.0,0.0,0.0,0.0,0.0,0.0,0.0,0.0,0.0,0.0,0.0,0.0,0.0,0.0,0.0,0.0,-0.0686465501785,0.0392265990376,9.91452312469,0.0,0.0,0.0,0.0,0.0,0.0,0.0,0.0,0.0
1580801500,502414,1644544025226555109,1,0.0,0.0,0.0,0.0,0.0,0.0,0.0,0.0,0.0,0.0,0.0,0.0,0.0,0.0,0.0,0.0,0.0,0.0,0.0,0.0,0.0,0.0,0.0,0.0,0.0,-0.0686465501785,-0.00980664975941,9.94394302368,0.0,0.0,0.0,0.0,0.0,0.0,0.0,0.0,0.0
1582987900,502415,1644544025228566885,1,0.0,0.0,0.0,0.0,0.0,0.0,0.0,0.0,0.0,0.0,0.0,0.0,0.0,0.0,0.0,0.0,0.0,0.0,0.0,0.0,0.0,0.0,0.0,0.0,0.0,-0.0392265990376,0.0294199492782,9.91452312469,0.0,0.0,0.0,0.0,0.0,0.0,0.0,0.0,0.0
1584788100,502416,1644544025230578899,1,0.0,0.0,0.0,0.0,0.0,0.0,0.0,0.0,0.0,0.0,0.0,0.0,0.0,0.0,0.0,0.0,0.0,0.0,0.0,0.0,0.0,0.0,0.0,0.0,0.0,-0.0294199492782,0.0294199492782,9.94394302368,0.0,0.0,0.0,0.0,0.0,0.0,0.0,0.0,0.0
1586730000,502417,1644544025232594728,1,0.0,0.0,0.0,0.0,0.0,0.0,0.0,0.0,0.0,0.0,0.0,0.0,0.0,0.0,0.0,0.0,0.0,0.0,0.0,0.0,0.0,0.0,0.0,0.0,0.0,-0.0686465501785,0.0,9.94394302368,0.0,0.0,0.0,0.0,0.0,0.0,0.0,0.0,0.0
1589314800,502418,1644544025234606504,1,0.0,0.0,0.0,0.0,0.0,0.0,0.0,0.0,0.0,0.0,0.0,0.0,0.0,0.0,0.0,0.0,0.0,0.0,0.0,0.0,0.0,0.0,0.0,0.0,0.0,-0.0392265990376,0.0392265990376,9.98316955566,0.0,0.0,0.0,0.0,0.0,0.0,0.0,0.0,0.0
1591124900,502419,1644544025236620426,1,0.0,0.0,0.0,0.0,0.0,0.0,0.0,0.0,0.0,0.0,0.0,0.0,0.0,0.0,0.0,0.0,0.0,0.0,0.0,0.0,0.0,0.0,0.0,0.0,0.0,-0.0686465501785,0.0392265990376,9.91452312469,0.0,0.0,0.0,0.0,0.0,0.0,0.0,0.0,0.0
1593119300,502420,1644544025238634109,1,0.0,0.0,0.0,0.0,0.0,0.0,0.0,0.0,0.0,0.0,0.0,0.0,0.0,0.0,0.0,0.0,0.0,0.0,0.0,0.0,0.0,0.0,0.0,0.0,0.0,-0.0392265990376,0.0294199492782,9.96355628967,0.0,0.0,0.0,0.0,0.0,0.0,0.0,0.0,0.0
1594991000,502421,1644544025240645885,1,0.0,0.0,0.0,0.0,0.0,0.0,0.0,0.0,0.0,0.0,0.0,0.0,0.0,0.0,0.0,0.0,0.0,0.0,0.0,0.0,0.0,0.0,0.0,0.0,0.0,-0.0686465501785,0.0784531980753,9.94394302368,0.0,0.0,0.0,0.0,0.0,0.0,0.0,0.0,0.0
1597137900,502422,1644544025242659807,1,0.0,0.0,0.0,0.0,0.0,0.0,0.0,0.0,0.0,0.0,0.0,0.0,0.0,0.0,0.0,0.0,0.0,0.0,0.0,0.0,0.0,0.0,0.0,0.0,0.0,-0.0294199492782,0.00980664975941,9.94394302368,0.0,0.0,0.0,0.0,0.0,0.0,0.0,0.0,0.0
1599037300,502423,1644544025244673491,1,0.0,0.0,0.0,0.0,0.0,0.0,0.0,0.0,0.0,0.0,0.0,0.0,0.0,0.0,0.0,0.0,0.0,0.0,0.0,0.0,0.0,0.0,0.0,0.0,0.0,-0.0294199492782,0.0294199492782,9.94394302368,0.0,0.0,0.0,0.0,0.0,0.0,0.0,0.0,0.0
1601092600,502424,1644544025246685505,1,0.0,0.0,0.0,0.0,0.0,0.0,0.0,0.0,0.0,0.0,0.0,0.0,0.0,0.0,0.0,0.0,0.0,0.0,0.0,0.0,0.0,0.0,0.0,0.0,0.0,-0.0686465501785,0.00980664975941,9.94394302368,0.0,0.0,0.0,0.0,0.0,0.0,0.0,0.0,0.0
1603168400,502425,1644544025248699188,1,0.0,0.0,0.0,0.0,0.0,0.0,0.0,0.0,0.0,0.0,0.0,0.0,0.0,0.0,0.0,0.0,0.0,0.0,0.0,0.0,0.0,0.0,0.0,0.0,0.0,-0.0686465501785,0.0294199492782,9.91452312469,0.0,0.0,0.0,0.0,0.0,0.0,0.0,0.0,0.0
1605176000,502426,1644544025250713110,1,0.0,0.0,0.0,0.0,0.0,0.0,0.0,0.0,0.0,0.0,0.0,0.0,0.0,0.0,0.0,0.0,0.0,0.0,0.0,0.0,0.0,0.0,0.0,0.0,0.0,-0.0392265990376,0.0294199492782,9.98316955566,0.0,0.0,0.0,0.0,0.0,0.0,0.0,0.0,0.0
1606991300,502427,1644544025252727032,1,0.0,0.0,0.0,0.0,0.0,0.0,0.0,0.0,0.0,0.0,0.0,0.0,0.0,0.0,0.0,0.0,0.0,0.0,0.0,0.0,0.0,0.0,0.0,0.0,0.0,-0.0392265990376,0.0294199492782,9.91452312469,0.0,0.0,0.0,0.0,0.0,0.0,0.0,0.0,0.0
1608996500,502428,1644544025254738808,1,0.0,0.0,0.0,0.0,0.0,0.0,0.0,0.0,0.0,0.0,0.0,0.0,0.0,0.0,0.0,0.0,0.0,0.0,0.0,0.0,0.0,0.0,0.0,0.0,0.0,-0.0686465501785,0.00980664975941,9.96355628967,0.0,0.0,0.0,0.0,0.0,0.0,0.0,0.0,0.0
1610992000,502429,1644544025256752729,1,0.0,0.0,0.0,0.0,0.0,0.0,0.0,0.0,0.0,0.0,0.0,0.0,0.0,0.0,0.0,0.0,0.0,0.0,0.0,0.0,0.0,0.0,0.0,0.0,0.0,-0.0686465501785,0.00980664975941,9.94394302368,0.0,0.0,0.0,0.0,0.0,0.0,0.0,0.0,0.0
1613126600,502430,1644544025258766413,1,0.0,0.0,0.0,0.0,0.0,0.0,0.0,0.0,0.0,0.0,0.0,0.0,0.0,0.0,0.0,0.0,0.0,0.0,0.0,0.0,0.0,0.0,0.0,0.0,0.0,-0.0686465501785,0.0392265990376,9.88510322571,0.0,0.0,0.0,0.0,0.0,0.0,0.0,0.0,0.0
1615059700,502431,1644544025260780334,1,0.0,0.0,0.0,0.0,0.0,0.0,0.0,0.0,0.0,0.0,0.0,0.0,0.0,0.0,0.0,0.0,0.0,0.0,0.0,0.0,0.0,0.0,0.0,0.0,0.0,0.0,0.00980664975941,9.91452312469,0.0,0.0,0.0,0.0,0.0,0.0,0.0,0.0,0.0
1617041700,502432,1644544025262792349,1,0.0,0.0,0.0,0.0,0.0,0.0,0.0,0.0,0.0,0.0,0.0,0.0,0.0,0.0,0.0,0.0,0.0,0.0,0.0,0.0,0.0,0.0,0.0,0.0,0.0,-0.0294199492782,0.00980664975941,9.8949098587,0.0,0.0,0.0,0.0,0.0,0.0,0.0,0.0,0.0
1619062500,502433,1644544025264807940,1,0.0,0.0,0.0,0.0,0.0,0.0,0.0,0.0,0.0,0.0,0.0,0.0,0.0,0.0,0.0,0.0,0.0,0.0,0.0,0.0,0.0,0.0,0.0,0.0,0.0,-0.0686465501785,-0.00980664975941,9.94394302368,0.0,0.0,0.0,0.0,0.0,0.0,0.0,0.0,0.0
1621222600,502434,1644544025266819715,1,0.0,0.0,0.0,0.0,0.0,0.0,0.0,0.0,0.0,0.0,0.0,0.0,0.0,0.0,0.0,0.0,0.0,0.0,0.0,0.0,0.0,0.0,0.0,0.0,0.0,-0.0294199492782,-0.00980664975941,9.8949098587,0.0,0.0,0.0,0.0,0.0,0.0,0.0,0.0,0.0
1623188900,502435,1644544025268831491,1,0.0,0.0,0.0,0.0,0.0,0.0,0.0,0.0,0.0,0.0,0.0,0.0,0.0,0.0,0.0,0.0,0.0,0.0,0.0,0.0,0.0,0.0,0.0,0.0,0.0,-0.0392265990376,0.0294199492782,9.91452312469,0.0,0.0,0.0,0.0,0.0,0.0,0.0,0.0,0.0
1625069500,502436,1644544025270845413,1,0.0,0.0,0.0,0.0,0.0,0.0,0.0,0.0,0.0,0.0,0.0,0.0,0.0,0.0,0.0,0.0,0.0,0.0,0.0,0.0,0.0,0.0,0.0,0.0,0.0,-0.0686465501785,0.00980664975941,9.96355628967,0.0,0.0,0.0,0.0,0.0,0.0,0.0,0.0,0.0
1627080000,502437,1644544025272859335,1,0.0,0.0,0.0,0.0,0.0,0.0,0.0,0.0,0.0,0.0,0.0,0.0,0.0,0.0,0.0,0.0,0.0,0.0,0.0,0.0,0.0,0.0,0.0,0.0,0.0,-0.0392265990376,0.00980664975941,9.96355628967,0.0,0.0,0.0,0.0,0.0,0.0,0.0,0.0,0.0
1629279500,502438,1644544025274873018,1,0.0,0.0,0.0,0.0,0.0,0.0,0.0,0.0,0.0,0.0,0.0,0.0,0.0,0.0,0.0,0.0,0.0,0.0,0.0,0.0,0.0,0.0,0.0,0.0,0.0,-0.0686465501785,0.0294199492782,9.91452312469,0.0,0.0,0.0,0.0,0.0,0.0,0.0,0.0,0.0
1631085000,502439,1644544025276885033,1,0.0,0.0,0.0,0.0,0.0,0.0,0.0,0.0,0.0,0.0,0.0,0.0,0.0,0.0,0.0,0.0,0.0,0.0,0.0,0.0,0.0,0.0,0.0,0.0,0.0,-0.0686465501785,0.0,9.96355628967,0.0,0.0,0.0,0.0,0.0,0.0,0.0,0.0,0.0
1633053400,502440,1644544025278900862,1,0.0,0.0,0.0,0.0,0.0,0.0,0.0,0.0,0.0,0.0,0.0,0.0,0.0,0.0,0.0,0.0,0.0,0.0,0.0,0.0,0.0,0.0,0.0,0.0,0.0,-0.0294199492782,-0.0294199492782,9.91452312469,0.0,0.0,0.0,0.0,0.0,0.0,0.0,0.0,0.0
1635064100,502441,1644544025280912638,1,0.0,0.0,0.0,0.0,0.0,0.0,0.0,0.0,0.0,0.0,0.0,0.0,0.0,0.0,0.0,0.0,0.0,0.0,0.0,0.0,0.0,0.0,0.0,0.0,0.0,-0.0686465501785,0.00980664975941,9.91452312469,0.0,0.0,0.0,0.0,0.0,0.0,0.0,0.0,0.0
1637145300,502442,1644544025282924652,1,0.0,0.0,0.0,0.0,0.0,0.0,0.0,0.0,0.0,0.0,0.0,0.0,0.0,0.0,0.0,0.0,0.0,0.0,0.0,0.0,0.0,0.0,0.0,0.0,0.0,-0.0686465501785,0.0,9.94394302368,0.0,0.0,0.0,0.0,0.0,0.0,0.0,0.0,0.0
1639003300,502443,1644544025284938335,1,0.0,0.0,0.0,0.0,0.0,0.0,0.0,0.0,0.0,0.0,0.0,0.0,0.0,0.0,0.0,0.0,0.0,0.0,0.0,0.0,0.0,0.0,0.0,0.0,0.0,-0.0686465501785,0.0,9.91452312469,0.0,0.0,0.0,0.0,0.0,0.0,0.0,0.0,0.0
1641194600,502444,1644544025286952257,1,0.0,0.0,0.0,0.0,0.0,0.0,0.0,0.0,0.0,0.0,0.0,0.0,0.0,0.0,0.0,0.0,0.0,0.0,0.0,0.0,0.0,0.0,0.0,0.0,0.0,-0.0980664938688,0.00980664975941,9.88510322571,0.0,0.0,0.0,0.0,0.0,0.0,0.0,0.0,0.0
1643210700,502445,1644544025288965702,1,0.0,0.0,0.0,0.0,0.0,0.0,0.0,0.0,0.0,0.0,0.0,0.0,0.0,0.0,0.0,0.0,0.0,0.0,0.0,0.0,0.0,0.0,0.0,0.0,0.0,-0.0392265990376,0.0,9.91452312469,0.0,0.0,0.0,0.0,0.0,0.0,0.0,0.0,0.0
1645196600,502446,1644544025290979624,1,0.0,0.0,0.0,0.0,0.0,0.0,0.0,0.0,0.0,0.0,0.0,0.0,0.0,0.0,0.0,0.0,0.0,0.0,0.0,0.0,0.0,0.0,0.0,0.0,0.0,-0.0686465501785,-0.00980664975941,9.86548995972,0.0,0.0,0.0,0.0,0.0,0.0,0.0,0.0,0.0
1647209200,502447,1644544025292991638,1,0.0,0.0,0.0,0.0,0.0,0.0,0.0,0.0,0.0,0.0,0.0,0.0,0.0,0.0,0.0,0.0,0.0,0.0,0.0,0.0,0.0,0.0,0.0,0.0,0.0,-0.0980664938688,0.00980664975941,9.94394302368,0.0,0.0,0.0,0.0,0.0,0.0,0.0,0.0,0.0
1649194000,502448,1644544025295005322,1,0.0,0.0,0.0,0.0,0.0,0.0,0.0,0.0,0.0,0.0,0.0,0.0,0.0,0.0,0.0,0.0,0.0,0.0,0.0,0.0,0.0,0.0,0.0,0.0,0.0,-0.0392265990376,-0.00980664975941,9.91452312469,0.0,0.0,0.0,0.0,0.0,0.0,0.0,0.0,0.0
1651253800,502449,1644544025297019243,1,0.0,0.0,0.0,0.0,0.0,0.0,0.0,0.0,0.0,0.0,0.0,0.0,0.0,0.0,0.0,0.0,0.0,0.0,0.0,0.0,0.0,0.0,0.0,0.0,0.0,-0.0784531980753,0.0294199492782,9.88510322571,0.0,0.0,0.0,0.0,0.0,0.0,0.0,0.0,0.0
1653208800,502450,1644544025299031019,1,0.0,0.0,0.0,0.0,0.0,0.0,0.0,0.0,0.0,0.0,0.0,0.0,0.0,0.0,0.0,0.0,0.0,0.0,0.0,0.0,0.0,0.0,0.0,0.0,0.0,-0.0294199492782,0.00980664975941,9.94394302368,0.0,0.0,0.0,0.0,0.0,0.0,0.0,0.0,0.0
1655200400,502451,1644544025301044941,1,0.0,0.0,0.0,0.0,0.0,0.0,0.0,0.0,0.0,0.0,0.0,0.0,0.0,0.0,0.0,0.0,0.0,0.0,0.0,0.0,0.0,0.0,0.0,0.0,0.0,-0.0392265990376,0.0294199492782,9.96355628967,0.0,0.0,0.0,0.0,0.0,0.0,0.0,0.0,0.0
1657190400,502452,1644544025303058863,1,0.0,0.0,0.0,0.0,0.0,0.0,0.0,0.0,0.0,0.0,0.0,0.0,0.0,0.0,0.0,0.0,0.0,0.0,0.0,0.0,0.0,0.0,0.0,0.0,0.0,-0.0392265990376,-0.00980664975941,9.91452312469,0.0,0.0,0.0,0.0,0.0,0.0,0.0,0.0,0.0
1659194300,502453,1644544025305070639,1,0.0,0.0,0.0,0.0,0.0,0.0,0.0,0.0,0.0,0.0,0.0,0.0,0.0,0.0,0.0,0.0,0.0,0.0,0.0,0.0,0.0,0.0,0.0,0.0,0.0,-0.00980664975941,0.0294199492782,9.91452312469,0.0,0.0,0.0,0.0,0.0,0.0,0.0,0.0,0.0
1661229000,502454,1644544025307082415,1,0.0,0.0,0.0,0.0,0.0,0.0,0.0,0.0,0.0,0.0,0.0,0.0,0.0,0.0,0.0,0.0,0.0,0.0,0.0,0.0,0.0,0.0,0.0,0.0,0.0,-0.0294199492782,0.00980664975941,9.98316955566,0.0,0.0,0.0,0.0,0.0,0.0,0.0,0.0,0.0
1663300800,502455,1644544025309096098,1,0.0,0.0,0.0,0.0,0.0,0.0,0.0,0.0,0.0,0.0,0.0,0.0,0.0,0.0,0.0,0.0,0.0,0.0,0.0,0.0,0.0,0.0,0.0,0.0,0.0,-0.0686465501785,0.0392265990376,9.88510322571,0.0,0.0,0.0,0.0,0.0,0.0,0.0,0.0,0.0
1665272600,502456,1644544025311110020,1,0.0,0.0,0.0,0.0,0.0,0.0,0.0,0.0,0.0,0.0,0.0,0.0,0.0,0.0,0.0,0.0,0.0,0.0,0.0,0.0,0.0,0.0,0.0,0.0,0.0,-0.0784531980753,0.0,9.98316955566,0.0,0.0,0.0,0.0,0.0,0.0,0.0,0.0,0.0
1667621100,502457,1644544025313121796,1,0.0,0.0,0.0,0.0,0.0,0.0,0.0,0.0,0.0,0.0,0.0,0.0,0.0,0.0,0.0,0.0,0.0,0.0,0.0,0.0,0.0,0.0,0.0,0.0,0.0,-0.0784531980753,0.00980664975941,9.96355628967,0.0,0.0,0.0,0.0,0.0,0.0,0.0,0.0,0.0
1669597000,502458,1644544025315135717,1,0.0,0.0,0.0,0.0,0.0,0.0,0.0,0.0,0.0,0.0,0.0,0.0,0.0,0.0,0.0,0.0,0.0,0.0,0.0,0.0,0.0,0.0,0.0,0.0,0.0,-0.00980664975941,0.0294199492782,9.96355628967,0.0,0.0,0.0,0.0,0.0,0.0,0.0,0.0,0.0
1671652700,502459,1644544025317149639,1,0.0,0.0,0.0,0.0,0.0,0.0,0.0,0.0,0.0,0.0,0.0,0.0,0.0,0.0,0.0,0.0,0.0,0.0,0.0,0.0,0.0,0.0,0.0,0.0,0.0,-0.0392265990376,0.0294199492782,9.88510322571,0.0,0.0,0.0,0.0,0.0,0.0,0.0,0.0,0.0
1673578900,502460,1644544025319161415,1,0.0,0.0,0.0,0.0,0.0,0.0,0.0,0.0,0.0,0.0,0.0,0.0,0.0,0.0,0.0,0.0,0.0,0.0,0.0,0.0,0.0,0.0,0.0,0.0,0.0,-0.0294199492782,0.0,9.96355628967,0.0,0.0,0.0,0.0,0.0,0.0,0.0,0.0,0.0
1675527500,502461,1644544025321175337,1,0.0,0.0,0.0,0.0,0.0,0.0,0.0,0.0,0.0,0.0,0.0,0.0,0.0,0.0,0.0,0.0,0.0,0.0,0.0,0.0,0.0,0.0,0.0,0.0,0.0,-0.0686465501785,0.0294199492782,9.91452312469,0.0,0.0,0.0,0.0,0.0,0.0,0.0,0.0,0.0
1677486600,502462,1644544025323189020,1,0.0,0.0,0.0,0.0,0.0,0.0,0.0,0.0,0.0,0.0,0.0,0.0,0.0,0.0,0.0,0.0,0.0,0.0,0.0,0.0,0.0,0.0,0.0,0.0,0.0,-0.0294199492782,0.0294199492782,9.88510322571,0.0,0.0,0.0,0.0,0.0,0.0,0.0,0.0,0.0
1679655400,502463,1644544025325201035,1,0.0,0.0,0.0,0.0,0.0,0.0,0.0,0.0,0.0,0.0,0.0,0.0,0.0,0.0,0.0,0.0,0.0,0.0,0.0,0.0,0.0,0.0,0.0,0.0,0.0,-0.0294199492782,0.00980664975941,9.96355628967,0.0,0.0,0.0,0.0,0.0,0.0,0.0,0.0,0.0
1681595600,502464,1644544025327214956,1,0.0,0.0,0.0,0.0,0.0,0.0,0.0,0.0,0.0,0.0,0.0,0.0,0.0,0.0,0.0,0.0,0.0,0.0,0.0,0.0,0.0,0.0,0.0,0.0,0.0,-0.0784531980753,0.00980664975941,9.91452312469,0.0,0.0,0.0,0.0,0.0,0.0,0.0,0.0,0.0
1683578200,502465,1644544025329228401,1,0.0,0.0,0.0,0.0,0.0,0.0,0.0,0.0,0.0,0.0,0.0,0.0,0.0,0.0,0.0,0.0,0.0,0.0,0.0,0.0,0.0,0.0,0.0,0.0,0.0,-0.0392265990376,0.0294199492782,9.94394302368,0.0,0.0,0.0,0.0,0.0,0.0,0.0,0.0,0.0
1685848200,502466,1644544025331240416,1,0.0,0.0,0.0,0.0,0.0,0.0,0.0,0.0,0.0,0.0,0.0,0.0,0.0,0.0,0.0,0.0,0.0,0.0,0.0,0.0,0.0,0.0,0.0,0.0,0.0,-0.0392265990376,0.0294199492782,9.94394302368,0.0,0.0,0.0,0.0,0.0,0.0,0.0,0.0,0.0
1687616300,502467,1644544025333254099,1,0.0,0.0,0.0,0.0,0.0,0.0,0.0,0.0,0.0,0.0,0.0,0.0,0.0,0.0,0.0,0.0,0.0,0.0,0.0,0.0,0.0,0.0,0.0,0.0,0.0,-0.0294199492782,0.0686465501785,9.96355628967,0.0,0.0,0.0,0.0,0.0,0.0,0.0,0.0,0.0
1689531200,502468,1644544025335268021,1,0.0,0.0,0.0,0.0,0.0,0.0,0.0,0.0,0.0,0.0,0.0,0.0,0.0,0.0,0.0,0.0,0.0,0.0,0.0,0.0,0.0,0.0,0.0,0.0,0.0,-0.0686465501785,0.0392265990376,9.8949098587,0.0,0.0,0.0,0.0,0.0,0.0,0.0,0.0,0.0
1691758100,502469,1644544025337281942,1,0.0,0.0,0.0,0.0,0.0,0.0,0.0,0.0,0.0,0.0,0.0,0.0,0.0,0.0,0.0,0.0,0.0,0.0,0.0,0.0,0.0,0.0,0.0,0.0,0.0,-0.0686465501785,0.0294199492782,9.86548995972,0.0,0.0,0.0,0.0,0.0,0.0,0.0,0.0,0.0
1693522300,502470,1644544025339293718,1,0.0,0.0,0.0,0.0,0.0,0.0,0.0,0.0,0.0,0.0,0.0,0.0,0.0,0.0,0.0,0.0,0.0,0.0,0.0,0.0,0.0,0.0,0.0,0.0,0.0,-0.0294199492782,0.0294199492782,9.86548995972,0.0,0.0,0.0,0.0,0.0,0.0,0.0,0.0,0.0
1695766600,502471,1644544025341307640,1,0.0,0.0,0.0,0.0,0.0,0.0,0.0,0.0,0.0,0.0,0.0,0.0,0.0,0.0,0.0,0.0,0.0,0.0,0.0,0.0,0.0,0.0,0.0,0.0,0.0,-0.0392265990376,0.0294199492782,9.91452312469,0.0,0.0,0.0,0.0,0.0,0.0,0.0,0.0,0.0
1697795300,502472,1644544025343321323,1,0.0,0.0,0.0,0.0,0.0,0.0,0.0,0.0,0.0,0.0,0.0,0.0,0.0,0.0,0.0,0.0,0.0,0.0,0.0,0.0,0.0,0.0,0.0,0.0,0.0,-0.0294199492782,0.0294199492782,9.94394302368,0.0,0.0,0.0,0.0,0.0,0.0,0.0,0.0,0.0
1699753400,502473,1644544025345335245,1,0.0,0.0,0.0,0.0,0.0,0.0,0.0,0.0,0.0,0.0,0.0,0.0,0.0,0.0,0.0,0.0,0.0,0.0,0.0,0.0,0.0,0.0,0.0,0.0,0.0,-0.0392265990376,0.0392265990376,9.8949098587,0.0,0.0,0.0,0.0,0.0,0.0,0.0,0.0,0.0
1701746200,502474,1644544025347347021,1,0.0,0.0,0.0,0.0,0.0,0.0,0.0,0.0,0.0,0.0,0.0,0.0,0.0,0.0,0.0,0.0,0.0,0.0,0.0,0.0,0.0,0.0,0.0,0.0,0.0,0.0,0.0392265990376,9.8949098587,0.0,0.0,0.0,0.0,0.0,0.0,0.0,0.0,0.0
1703780100,502475,1644544025349360943,1,0.0,0.0,0.0,0.0,0.0,0.0,0.0,0.0,0.0,0.0,0.0,0.0,0.0,0.0,0.0,0.0,0.0,0.0,0.0,0.0,0.0,0.0,0.0,0.0,0.0,-0.0294199492782,0.0392265990376,9.91452312469,0.0,0.0,0.0,0.0,0.0,0.0,0.0,0.0,0.0
1705740900,502476,1644544025351374865,1,0.0,0.0,0.0,0.0,0.0,0.0,0.0,0.0,0.0,0.0,0.0,0.0,0.0,0.0,0.0,0.0,0.0,0.0,0.0,0.0,0.0,0.0,0.0,0.0,0.0,-0.0392265990376,0.0392265990376,9.96355628967,0.0,0.0,0.0,0.0,0.0,0.0,0.0,0.0,0.0
1707734000,502477,1644544025353386402,1,0.0,0.0,0.0,0.0,0.0,0.0,0.0,0.0,0.0,0.0,0.0,0.0,0.0,0.0,0.0,0.0,0.0,0.0,0.0,0.0,0.0,0.0,0.0,0.0,0.0,-0.0686465501785,0.0686465501785,9.94394302368,0.0,0.0,0.0,0.0,0.0,0.0,0.0,0.0,0.0
1709739400,502478,1644544025355400324,1,0.0,0.0,0.0,0.0,0.0,0.0,0.0,0.0,0.0,0.0,0.0,0.0,0.0,0.0,0.0,0.0,0.0,0.0,0.0,0.0,0.0,0.0,0.0,0.0,0.0,-0.00980664975941,0.0392265990376,9.88510322571,0.0,0.0,0.0,0.0,0.0,0.0,0.0,0.0,0.0
1711741100,502479,1644544025357414246,1,0.0,0.0,0.0,0.0,0.0,0.0,0.0,0.0,0.0,0.0,0.0,0.0,0.0,0.0,0.0,0.0,0.0,0.0,0.0,0.0,0.0,0.0,0.0,0.0,0.0,-0.00980664975941,0.0294199492782,9.8949098587,0.0,0.0,0.0,0.0,0.0,0.0,0.0,0.0,0.0
1713806100,502480,1644544025359426022,1,0.0,0.0,0.0,0.0,0.0,0.0,0.0,0.0,0.0,0.0,0.0,0.0,0.0,0.0,0.0,0.0,0.0,0.0,0.0,0.0,0.0,0.0,0.0,0.0,0.0,-0.0686465501785,0.0784531980753,9.8949098587,0.0,0.0,0.0,0.0,0.0,0.0,0.0,0.0,0.0
1715812100,502481,1644544025361439943,1,0.0,0.0,0.0,0.0,0.0,0.0,0.0,0.0,0.0,0.0,0.0,0.0,0.0,0.0,0.0,0.0,0.0,0.0,0.0,0.0,0.0,0.0,0.0,0.0,0.0,-0.00980664975941,0.0294199492782,9.91452312469,0.0,0.0,0.0,0.0,0.0,0.0,0.0,0.0,0.0
1717756200,502482,1644544025363453627,1,0.0,0.0,0.0,0.0,0.0,0.0,0.0,0.0,0.0,0.0,0.0,0.0,0.0,0.0,0.0,0.0,0.0,0.0,0.0,0.0,0.0,0.0,0.0,0.0,0.0,-0.0392265990376,0.0392265990376,9.94394302368,0.0,0.0,0.0,0.0,0.0,0.0,0.0,0.0,0.0
1719903200,502483,1644544025365465641,1,0.0,0.0,0.0,0.0,0.0,0.0,0.0,0.0,0.0,0.0,0.0,0.0,0.0,0.0,0.0,0.0,0.0,0.0,0.0,0.0,0.0,0.0,0.0,0.0,0.0,-0.0686465501785,0.0686465501785,9.91452312469,0.0,0.0,0.0,0.0,0.0,0.0,0.0,0.0,0.0
1722010200,502484,1644544025367479324,1,0.0,0.0,0.0,0.0,0.0,0.0,0.0,0.0,0.0,0.0,0.0,0.0,0.0,0.0,0.0,0.0,0.0,0.0,0.0,0.0,0.0,0.0,0.0,0.0,0.0,-0.0294199492782,0.0294199492782,9.91452312469,0.0,0.0,0.0,0.0,0.0,0.0,0.0,0.0,0.0
1723841700,502485,1644544025369491100,1,0.0,0.0,0.0,0.0,0.0,0.0,0.0,0.0,0.0,0.0,0.0,0.0,0.0,0.0,0.0,0.0,0.0,0.0,0.0,0.0,0.0,0.0,0.0,0.0,0.0,-0.0392265990376,0.0392265990376,9.91452312469,0.0,0.0,0.0,0.0,0.0,0.0,0.0,0.0,0.0
1725816000,502486,1644544025371505022,1,0.0,0.0,0.0,0.0,0.0,0.0,0.0,0.0,0.0,0.0,0.0,0.0,0.0,0.0,0.0,0.0,0.0,0.0,0.0,0.0,0.0,0.0,0.0,0.0,0.0,0.0,0.0294199492782,9.98316955566,0.0,0.0,0.0,0.0,0.0,0.0,0.0,0.0,0.0
1727722800,502487,1644544025373518705,1,0.0,0.0,0.0,0.0,0.0,0.0,0.0,0.0,0.0,0.0,0.0,0.0,0.0,0.0,0.0,0.0,0.0,0.0,0.0,0.0,0.0,0.0,0.0,0.0,0.0,-0.00980664975941,0.0294199492782,9.8949098587,0.0,0.0,0.0,0.0,0.0,0.0,0.0,0.0,0.0
1729823300,502488,1644544025375530720,1,0.0,0.0,0.0,0.0,0.0,0.0,0.0,0.0,0.0,0.0,0.0,0.0,0.0,0.0,0.0,0.0,0.0,0.0,0.0,0.0,0.0,0.0,0.0,0.0,0.0,-0.0784531980753,0.00980664975941,9.94394302368,0.0,0.0,0.0,0.0,0.0,0.0,0.0,0.0,0.0
1731801000,502489,1644544025377544403,1,0.0,0.0,0.0,0.0,0.0,0.0,0.0,0.0,0.0,0.0,0.0,0.0,0.0,0.0,0.0,0.0,0.0,0.0,0.0,0.0,0.0,0.0,0.0,0.0,0.0,-0.0392265990376,0.0294199492782,9.94394302368,0.0,0.0,0.0,0.0,0.0,0.0,0.0,0.0,0.0
1733744700,502490,1644544025379556417,1,0.0,0.0,0.0,0.0,0.0,0.0,0.0,0.0,0.0,0.0,0.0,0.0,0.0,0.0,0.0,0.0,0.0,0.0,0.0,0.0,0.0,0.0,0.0,0.0,0.0,-0.0392265990376,0.00980664975941,9.91452312469,0.0,0.0,0.0,0.0,0.0,0.0,0.0,0.0,0.0
1735742300,502491,1644544025381570101,1,0.0,0.0,0.0,0.0,0.0,0.0,0.0,0.0,0.0,0.0,0.0,0.0,0.0,0.0,0.0,0.0,0.0,0.0,0.0,0.0,0.0,0.0,0.0,0.0,0.0,-0.0784531980753,0.0,9.96355628967,0.0,0.0,0.0,0.0,0.0,0.0,0.0,0.0,0.0
1737800200,502492,1644544025383584023,1,0.0,0.0,0.0,0.0,0.0,0.0,0.0,0.0,0.0,0.0,0.0,0.0,0.0,0.0,0.0,0.0,0.0,0.0,0.0,0.0,0.0,0.0,0.0,0.0,0.0,-0.0294199492782,0.0,9.94394302368,0.0,0.0,0.0,0.0,0.0,0.0,0.0,0.0,0.0
1739781100,502493,1644544025385596037,1,0.0,0.0,0.0,0.0,0.0,0.0,0.0,0.0,0.0,0.0,0.0,0.0,0.0,0.0,0.0,0.0,0.0,0.0,0.0,0.0,0.0,0.0,0.0,0.0,0.0,-0.0294199492782,0.00980664975941,9.91452312469,0.0,0.0,0.0,0.0,0.0,0.0,0.0,0.0,0.0
1741756200,502494,1644544025387609720,1,0.0,0.0,0.0,0.0,0.0,0.0,0.0,0.0,0.0,0.0,0.0,0.0,0.0,0.0,0.0,0.0,0.0,0.0,0.0,0.0,0.0,0.0,0.0,0.0,0.0,-0.0686465501785,0.0,9.98316955566,0.0,0.0,0.0,0.0,0.0,0.0,0.0,0.0,0.0
1743797300,502495,1644544025389621496,1,0.0,0.0,0.0,0.0,0.0,0.0,0.0,0.0,0.0,0.0,0.0,0.0,0.0,0.0,0.0,0.0,0.0,0.0,0.0,0.0,0.0,0.0,0.0,0.0,0.0,-0.0686465501785,0.0294199492782,9.88510322571,0.0,0.0,0.0,0.0,0.0,0.0,0.0,0.0,0.0
1746138800,502496,1644544025391635180,1,0.0,0.0,0.0,0.0,0.0,0.0,0.0,0.0,0.0,0.0,0.0,0.0,0.0,0.0,0.0,0.0,0.0,0.0,0.0,0.0,0.0,0.0,0.0,0.0,0.0,-0.0294199492782,0.00980664975941,9.8949098587,0.0,0.0,0.0,0.0,0.0,0.0,0.0,0.0,0.0
1747830800,502497,1644544025393647194,1,0.0,0.0,0.0,0.0,0.0,0.0,0.0,0.0,0.0,0.0,0.0,0.0,0.0,0.0,0.0,0.0,0.0,0.0,0.0,0.0,0.0,0.0,0.0,0.0,0.0,-0.00980664975941,0.00980664975941,9.91452312469,0.0,0.0,0.0,0.0,0.0,0.0,0.0,0.0,0.0
1749749700,502498,1644544025395660877,1,0.0,0.0,0.0,0.0,0.0,0.0,0.0,0.0,0.0,0.0,0.0,0.0,0.0,0.0,0.0,0.0,0.0,0.0,0.0,0.0,0.0,0.0,0.0,0.0,0.0,-0.00980664975941,0.00980664975941,9.94394302368,0.0,0.0,0.0,0.0,0.0,0.0,0.0,0.0,0.0
1752054100,502499,1644544025397674799,1,0.0,0.0,0.0,0.0,0.0,0.0,0.0,0.0,0.0,0.0,0.0,0.0,0.0,0.0,0.0,0.0,0.0,0.0,0.0,0.0,0.0,0.0,0.0,0.0,0.0,-0.0784531980753,-0.00980664975941,9.98316955566,0.0,0.0,0.0,0.0,0.0,0.0,0.0,0.0,0.0
1753840200,502500,1644544025399686575,1,0.0,0.0,0.0,0.0,0.0,0.0,0.0,0.0,0.0,0.0,0.0,0.0,0.0,0.0,0.0,0.0,0.0,0.0,0.0,0.0,0.0,0.0,0.0,0.0,0.0,-0.0392265990376,0.0,9.91452312469,0.0,0.0,0.0,0.0,0.0,0.0,0.0,0.0,0.0
1756067100,502501,1644544025401700497,1,0.0,0.0,0.0,0.0,0.0,0.0,0.0,0.0,0.0,0.0,0.0,0.0,0.0,0.0,0.0,0.0,0.0,0.0,0.0,0.0,0.0,0.0,0.0,0.0,0.0,-0.0784531980753,-0.0294199492782,9.88510322571,0.0,0.0,0.0,0.0,0.0,0.0,0.0,0.0,0.0
1758105100,502502,1644544025403714418,1,0.0,0.0,0.0,0.0,0.0,0.0,0.0,0.0,0.0,0.0,0.0,0.0,0.0,0.0,0.0,0.0,0.0,0.0,0.0,0.0,0.0,0.0,0.0,0.0,0.0,-0.0392265990376,-0.00980664975941,9.88510322571,0.0,0.0,0.0,0.0,0.0,0.0,0.0,0.0,0.0
1759969800,502503,1644544025405725956,1,0.0,0.0,0.0,0.0,0.0,0.0,0.0,0.0,0.0,0.0,0.0,0.0,0.0,0.0,0.0,0.0,0.0,0.0,0.0,0.0,0.0,0.0,0.0,0.0,0.0,-0.0294199492782,-0.0294199492782,9.8949098587,0.0,0.0,0.0,0.0,0.0,0.0,0.0,0.0,0.0
1762002700,502504,1644544025407737970,1,0.0,0.0,0.0,0.0,0.0,0.0,0.0,0.0,0.0,0.0,0.0,0.0,0.0,0.0,0.0,0.0,0.0,0.0,0.0,0.0,0.0,0.0,0.0,0.0,0.0,-0.0686465501785,0.00980664975941,9.88510322571,0.0,0.0,0.0,0.0,0.0,0.0,0.0,0.0,0.0
1763986000,502505,1644544025409751654,1,0.0,0.0,0.0,0.0,0.0,0.0,0.0,0.0,0.0,0.0,0.0,0.0,0.0,0.0,0.0,0.0,0.0,0.0,0.0,0.0,0.0,0.0,0.0,0.0,0.0,-0.0686465501785,-0.00980664975941,9.8949098587,0.0,0.0,0.0,0.0,0.0,0.0,0.0,0.0,0.0
1765979700,502506,1644544025411763668,1,0.0,0.0,0.0,0.0,0.0,0.0,0.0,0.0,0.0,0.0,0.0,0.0,0.0,0.0,0.0,0.0,0.0,0.0,0.0,0.0,0.0,0.0,0.0,0.0,0.0,-0.0784531980753,0.0294199492782,9.96355628967,0.0,0.0,0.0,0.0,0.0,0.0,0.0,0.0,0.0
1767964900,502507,1644544025413777351,1,0.0,0.0,0.0,0.0,0.0,0.0,0.0,0.0,0.0,0.0,0.0,0.0,0.0,0.0,0.0,0.0,0.0,0.0,0.0,0.0,0.0,0.0,0.0,0.0,0.0,-0.0686465501785,-0.00980664975941,9.91452312469,0.0,0.0,0.0,0.0,0.0,0.0,0.0,0.0,0.0
1769982800,502508,1644544025415791273,1,0.0,0.0,0.0,0.0,0.0,0.0,0.0,0.0,0.0,0.0,0.0,0.0,0.0,0.0,0.0,0.0,0.0,0.0,0.0,0.0,0.0,0.0,0.0,0.0,0.0,-0.0294199492782,0.0,9.94394302368,0.0,0.0,0.0,0.0,0.0,0.0,0.0,0.0,0.0
1772004500,502509,1644544025417803288,1,0.0,0.0,0.0,0.0,0.0,0.0,0.0,0.0,0.0,0.0,0.0,0.0,0.0,0.0,0.0,0.0,0.0,0.0,0.0,0.0,0.0,0.0,0.0,0.0,0.0,-0.0392265990376,0.00980664975941,9.91452312469,0.0,0.0,0.0,0.0,0.0,0.0,0.0,0.0,0.0
1774015600,502510,1644544025419816971,1,0.0,0.0,0.0,0.0,0.0,0.0,0.0,0.0,0.0,0.0,0.0,0.0,0.0,0.0,0.0,0.0,0.0,0.0,0.0,0.0,0.0,0.0,0.0,0.0,0.0,-0.0686465501785,0.00980664975941,9.96355628967,0.0,0.0,0.0,0.0,0.0,0.0,0.0,0.0,0.0
1776052300,502511,1644544025421828747,1,0.0,0.0,0.0,0.0,0.0,0.0,0.0,0.0,0.0,0.0,0.0,0.0,0.0,0.0,0.0,0.0,0.0,0.0,0.0,0.0,0.0,0.0,0.0,0.0,0.0,-0.0392265990376,0.00980664975941,9.8949098587,0.0,0.0,0.0,0.0,0.0,0.0,0.0,0.0,0.0
1777947500,502512,1644544025423842430,1,0.0,0.0,0.0,0.0,0.0,0.0,0.0,0.0,0.0,0.0,0.0,0.0,0.0,0.0,0.0,0.0,0.0,0.0,0.0,0.0,0.0,0.0,0.0,0.0,0.0,-0.0686465501785,-0.00980664975941,9.94394302368,0.0,0.0,0.0,0.0,0.0,0.0,0.0,0.0,0.0
1779966100,502513,1644544025425856352,1,0.0,0.0,0.0,0.0,0.0,0.0,0.0,0.0,0.0,0.0,0.0,0.0,0.0,0.0,0.0,0.0,0.0,0.0,0.0,0.0,0.0,0.0,0.0,0.0,0.0,-0.0784531980753,-0.00980664975941,9.96355628967,0.0,0.0,0.0,0.0,0.0,0.0,0.0,0.0,0.0
1781958500,502514,1644544025427868128,1,0.0,0.0,0.0,0.0,0.0,0.0,0.0,0.0,0.0,0.0,0.0,0.0,0.0,0.0,0.0,0.0,0.0,0.0,0.0,0.0,0.0,0.0,0.0,0.0,0.0,-0.0784531980753,0.0,9.91452312469,0.0,0.0,0.0,0.0,0.0,0.0,0.0,0.0,0.0
1783944600,502515,1644544025429880142,1,0.0,0.0,0.0,0.0,0.0,0.0,0.0,0.0,0.0,0.0,0.0,0.0,0.0,0.0,0.0,0.0,0.0,0.0,0.0,0.0,0.0,0.0,0.0,0.0,0.0,-0.0784531980753,0.00980664975941,9.88510322571,0.0,0.0,0.0,0.0,0.0,0.0,0.0,0.0,0.0
1786015900,502516,1644544025431894064,1,0.0,0.0,0.0,0.0,0.0,0.0,0.0,0.0,0.0,0.0,0.0,0.0,0.0,0.0,0.0,0.0,0.0,0.0,0.0,0.0,0.0,0.0,0.0,0.0,0.0,-0.0392265990376,0.00980664975941,9.88510322571,0.0,0.0,0.0,0.0,0.0,0.0,0.0,0.0,0.0
1787939700,502517,1644544025433905840,1,0.0,0.0,0.0,0.0,0.0,0.0,0.0,0.0,0.0,0.0,0.0,0.0,0.0,0.0,0.0,0.0,0.0,0.0,0.0,0.0,0.0,0.0,0.0,0.0,0.0,-0.0392265990376,-0.00980664975941,9.8949098587,0.0,0.0,0.0,0.0,0.0,0.0,0.0,0.0,0.0
1790290300,502518,1644544025435919762,1,0.0,0.0,0.0,0.0,0.0,0.0,0.0,0.0,0.0,0.0,0.0,0.0,0.0,0.0,0.0,0.0,0.0,0.0,0.0,0.0,0.0,0.0,0.0,0.0,0.0,-0.0686465501785,0.0,9.94394302368,0.0,0.0,0.0,0.0,0.0,0.0,0.0,0.0,0.0
1792222800,502519,1644544025437931299,1,0.0,0.0,0.0,0.0,0.0,0.0,0.0,0.0,0.0,0.0,0.0,0.0,0.0,0.0,0.0,0.0,0.0,0.0,0.0,0.0,0.0,0.0,0.0,0.0,0.0,-0.0784531980753,0.0,9.91452312469,0.0,0.0,0.0,0.0,0.0,0.0,0.0,0.0,0.0
1794556700,502520,1644544025439945221,1,0.0,0.0,0.0,0.0,0.0,0.0,0.0,0.0,0.0,0.0,0.0,0.0,0.0,0.0,0.0,0.0,0.0,0.0,0.0,0.0,0.0,0.0,0.0,0.0,0.0,-0.0294199492782,0.0,9.91452312469,0.0,0.0,0.0,0.0,0.0,0.0,0.0,0.0,0.0
1796285100,502521,1644544025441956997,1,0.0,0.0,0.0,0.0,0.0,0.0,0.0,0.0,0.0,0.0,0.0,0.0,0.0,0.0,0.0,0.0,0.0,0.0,0.0,0.0,0.0,0.0,0.0,0.0,0.0,-0.0980664938688,0.0,9.88510322571,0.0,0.0,0.0,0.0,0.0,0.0,0.0,0.0,0.0
1798194800,502522,1644544025443970919,1,0.0,0.0,0.0,0.0,0.0,0.0,0.0,0.0,0.0,0.0,0.0,0.0,0.0,0.0,0.0,0.0,0.0,0.0,0.0,0.0,0.0,0.0,0.0,0.0,0.0,-0.0294199492782,0.0,9.96355628967,0.0,0.0,0.0,0.0,0.0,0.0,0.0,0.0,0.0
1800332300,502523,1644544025445984840,1,0.0,0.0,0.0,0.0,0.0,0.0,0.0,0.0,0.0,0.0,0.0,0.0,0.0,0.0,0.0,0.0,0.0,0.0,0.0,0.0,0.0,0.0,0.0,0.0,0.0,-0.0392265990376,-0.00980664975941,9.94394302368,0.0,0.0,0.0,0.0,0.0,0.0,0.0,0.0,0.0
1802584600,502524,1644544025447996616,1,0.0,0.0,0.0,0.0,0.0,0.0,0.0,0.0,0.0,0.0,0.0,0.0,0.0,0.0,0.0,0.0,0.0,0.0,0.0,0.0,0.0,0.0,0.0,0.0,0.0,-0.0294199492782,0.00980664975941,9.8949098587,0.0,0.0,0.0,0.0,0.0,0.0,0.0,0.0,0.0
1804629800,502525,1644544025450010538,1,0.0,0.0,0.0,0.0,0.0,0.0,0.0,0.0,0.0,0.0,0.0,0.0,0.0,0.0,0.0,0.0,0.0,0.0,0.0,0.0,0.0,0.0,0.0,0.0,0.0,-0.0294199492782,-0.00980664975941,9.98316955566,0.0,0.0,0.0,0.0,0.0,0.0,0.0,0.0,0.0
