%time,field.header.seq,field.header.stamp,field.header.frame_id,field.orientation.x,field.orientation.y,field.orientation.z,field.orientation.w,field.orientation_covariance0,field.orientation_covariance1,field.orientation_covariance2,field.orientation_covariance3,field.orientation_covariance4,field.orientation_covariance5,field.orientation_covariance6,field.orientation_covariance7,field.orientation_covariance8,field.angular_velocity.x,field.angular_velocity.y,field.angular_velocity.z,field.angular_velocity_covariance0,field.angular_velocity_covariance1,field.angular_velocity_covariance2,field.angular_velocity_covariance3,field.angular_velocity_covariance4,field.angular_velocity_covariance5,field.angular_velocity_covariance6,field.angular_velocity_covariance7,field.angular_velocity_covariance8,field.linear_acceleration.x,field.linear_acceleration.y,field.linear_acceleration.z,field.linear_acceleration_covariance0,field.linear_acceleration_covariance1,field.linear_acceleration_covariance2,field.linear_acceleration_covariance3,field.linear_acceleration_covariance4,field.linear_acceleration_covariance5,field.linear_acceleration_covariance6,field.linear_acceleration_covariance7,field.linear_acceleration_covariance8
1085700,454363,1644543928488774300,1,0.0,0.0,0.0,0.0,0.0,0.0,0.0,0.0,0.0,0.0,0.0,0.0,0.0,0.0,0.0,0.0,0.0,0.0,0.0,0.0,0.0,0.0,0.0,0.0,0.0,0.882598459721,-0.166713044047,9.83607006073,0.0,0.0,0.0,0.0,0.0,0.0,0.0,0.0,0.0
2985300,454364,1644543928490789413,1,0.0,0.0,0.0,0.0,0.0,0.0,0.0,0.0,0.0,0.0,0.0,0.0,0.0,0.0,0.0,0.0,0.0,0.0,0.0,0.0,0.0,0.0,0.0,0.0,0.0,0.951245009899,-0.196132987738,9.8949098587,0.0,0.0,0.0,0.0,0.0,0.0,0.0,0.0,0.0
5150100,454365,1644543928492802143,1,0.0,0.0,0.0,0.0,0.0,0.0,0.0,0.0,0.0,0.0,0.0,0.0,0.0,0.0,0.0,0.0,0.0,0.0,0.0,0.0,0.0,0.0,0.0,0.0,0.0,0.872791826725,-0.245166242123,9.8949098587,0.0,0.0,0.0,0.0,0.0,0.0,0.0,0.0,0.0
6902700,454366,1644543928494815111,1,0.0,0.0,0.0,0.0,0.0,0.0,0.0,0.0,0.0,0.0,0.0,0.0,0.0,0.0,0.0,0.0,0.0,0.0,0.0,0.0,0.0,0.0,0.0,0.0,0.0,0.912018418312,-0.166713044047,9.83607006073,0.0,0.0,0.0,0.0,0.0,0.0,0.0,0.0,0.0
8910200,454367,1644543928496829987,1,0.0,0.0,0.0,0.0,0.0,0.0,0.0,0.0,0.0,0.0,0.0,0.0,0.0,0.0,0.0,0.0,0.0,0.0,0.0,0.0,0.0,0.0,0.0,0.0,0.0,0.912018418312,-0.12748645246,9.8949098587,0.0,0.0,0.0,0.0,0.0,0.0,0.0,0.0,0.0
10902000,454368,1644543928498844862,1,0.0,0.0,0.0,0.0,0.0,0.0,0.0,0.0,0.0,0.0,0.0,0.0,0.0,0.0,0.0,0.0,0.0,0.0,0.0,0.0,0.0,0.0,0.0,0.0,0.0,0.833565235138,-0.0980664938688,9.8949098587,0.0,0.0,0.0,0.0,0.0,0.0,0.0,0.0,0.0
12979100,454369,1644543928500857830,1,0.0,0.0,0.0,0.0,0.0,0.0,0.0,0.0,0.0,0.0,0.0,0.0,0.0,0.0,0.0,0.0,0.0,0.0,0.0,0.0,0.0,0.0,0.0,0.0,0.0,0.833565235138,-0.137293100357,9.88510322571,0.0,0.0,0.0,0.0,0.0,0.0,0.0,0.0,0.0
15170300,454370,1644543928502872705,1,0.0,0.0,0.0,0.0,0.0,0.0,0.0,0.0,0.0,0.0,0.0,0.0,0.0,0.0,0.0,0.0,0.0,0.0,0.0,0.0,0.0,0.0,0.0,0.0,0.0,0.833565235138,-0.0980664938688,9.88510322571,0.0,0.0,0.0,0.0,0.0,0.0,0.0,0.0,0.0
16899100,454371,1644543928504885674,1,0.0,0.0,0.0,0.0,0.0,0.0,0.0,0.0,0.0,0.0,0.0,0.0,0.0,0.0,0.0,0.0,0.0,0.0,0.0,0.0,0.0,0.0,0.0,0.0,0.0,0.804145276546,-0.12748645246,9.8949098587,0.0,0.0,0.0,0.0,0.0,0.0,0.0,0.0,0.0
18947700,454372,1644543928506900549,1,0.0,0.0,0.0,0.0,0.0,0.0,0.0,0.0,0.0,0.0,0.0,0.0,0.0,0.0,0.0,0.0,0.0,0.0,0.0,0.0,0.0,0.0,0.0,0.0,0.0,0.833565235138,-0.12748645246,9.91452312469,0.0,0.0,0.0,0.0,0.0,0.0,0.0,0.0,0.0
21306600,454373,1644543928508913517,1,0.0,0.0,0.0,0.0,0.0,0.0,0.0,0.0,0.0,0.0,0.0,0.0,0.0,0.0,0.0,0.0,0.0,0.0,0.0,0.0,0.0,0.0,0.0,0.0,0.0,0.804145276546,-0.12748645246,9.94394302368,0.0,0.0,0.0,0.0,0.0,0.0,0.0,0.0,0.0
22904300,454374,1644543928510926485,1,0.0,0.0,0.0,0.0,0.0,0.0,0.0,0.0,0.0,0.0,0.0,0.0,0.0,0.0,0.0,0.0,0.0,0.0,0.0,0.0,0.0,0.0,0.0,0.0,0.0,0.813951909542,-0.12748645246,9.96355628967,0.0,0.0,0.0,0.0,0.0,0.0,0.0,0.0,0.0
25213100,454375,1644543928512941360,1,0.0,0.0,0.0,0.0,0.0,0.0,0.0,0.0,0.0,0.0,0.0,0.0,0.0,0.0,0.0,0.0,0.0,0.0,0.0,0.0,0.0,0.0,0.0,0.0,0.0,0.813951909542,-0.0980664938688,9.96355628967,0.0,0.0,0.0,0.0,0.0,0.0,0.0,0.0,0.0
27174800,454376,1644543928514954329,1,0.0,0.0,0.0,0.0,0.0,0.0,0.0,0.0,0.0,0.0,0.0,0.0,0.0,0.0,0.0,0.0,0.0,0.0,0.0,0.0,0.0,0.0,0.0,0.0,0.0,0.804145276546,-0.0980664938688,9.8949098587,0.0,0.0,0.0,0.0,0.0,0.0,0.0,0.0,0.0
29314100,454377,1644543928516969204,1,0.0,0.0,0.0,0.0,0.0,0.0,0.0,0.0,0.0,0.0,0.0,0.0,0.0,0.0,0.0,0.0,0.0,0.0,0.0,0.0,0.0,0.0,0.0,0.0,0.0,0.804145276546,-0.0686465501785,9.94394302368,0.0,0.0,0.0,0.0,0.0,0.0,0.0,0.0,0.0
31322600,454378,1644543928518982172,1,0.0,0.0,0.0,0.0,0.0,0.0,0.0,0.0,0.0,0.0,0.0,0.0,0.0,0.0,0.0,0.0,0.0,0.0,0.0,0.0,0.0,0.0,0.0,0.0,0.0,0.764918684959,-0.0686465501785,9.83607006073,0.0,0.0,0.0,0.0,0.0,0.0,0.0,0.0,0.0
767643000,454744,1644543929256018162,1,0.0,0.0,0.0,0.0,0.0,0.0,0.0,0.0,0.0,0.0,0.0,0.0,0.0,0.0,0.0,0.0,0.0,0.0,0.0,0.0,0.0,0.0,0.0,0.0,0.0,0.804145276546,-0.0980664938688,9.96355628967,0.0,0.0,0.0,0.0,0.0,0.0,0.0,0.0,0.0
769721800,454745,1644543929258029938,1,0.0,0.0,0.0,0.0,0.0,0.0,0.0,0.0,0.0,0.0,0.0,0.0,0.0,0.0,0.0,0.0,0.0,0.0,0.0,0.0,0.0,0.0,0.0,0.0,0.0,0.833565235138,-0.0980664938688,9.96355628967,0.0,0.0,0.0,0.0,0.0,0.0,0.0,0.0,0.0
771990200,454746,1644543929260043859,1,0.0,0.0,0.0,0.0,0.0,0.0,0.0,0.0,0.0,0.0,0.0,0.0,0.0,0.0,0.0,0.0,0.0,0.0,0.0,0.0,0.0,0.0,0.0,0.0,0.0,0.804145276546,-0.0980664938688,9.86548995972,0.0,0.0,0.0,0.0,0.0,0.0,0.0,0.0,0.0
773746500,454747,1644543929262055874,1,0.0,0.0,0.0,0.0,0.0,0.0,0.0,0.0,0.0,0.0,0.0,0.0,0.0,0.0,0.0,0.0,0.0,0.0,0.0,0.0,0.0,0.0,0.0,0.0,0.0,0.813951909542,-0.0686465501785,9.94394302368,0.0,0.0,0.0,0.0,0.0,0.0,0.0,0.0,0.0
775790100,454748,1644543929264069796,1,0.0,0.0,0.0,0.0,0.0,0.0,0.0,0.0,0.0,0.0,0.0,0.0,0.0,0.0,0.0,0.0,0.0,0.0,0.0,0.0,0.0,0.0,0.0,0.0,0.0,0.804145276546,-0.0980664938688,9.86548995972,0.0,0.0,0.0,0.0,0.0,0.0,0.0,0.0,0.0
778047300,454749,1644543929266081810,1,0.0,0.0,0.0,0.0,0.0,0.0,0.0,0.0,0.0,0.0,0.0,0.0,0.0,0.0,0.0,0.0,0.0,0.0,0.0,0.0,0.0,0.0,0.0,0.0,0.0,0.813951909542,-0.137293100357,9.98316955566,0.0,0.0,0.0,0.0,0.0,0.0,0.0,0.0,0.0
779962300,454750,1644543929268095732,1,0.0,0.0,0.0,0.0,0.0,0.0,0.0,0.0,0.0,0.0,0.0,0.0,0.0,0.0,0.0,0.0,0.0,0.0,0.0,0.0,0.0,0.0,0.0,0.0,0.0,0.813951909542,-0.0784531980753,9.88510322571,0.0,0.0,0.0,0.0,0.0,0.0,0.0,0.0,0.0
782003600,454751,1644543929270109653,1,0.0,0.0,0.0,0.0,0.0,0.0,0.0,0.0,0.0,0.0,0.0,0.0,0.0,0.0,0.0,0.0,0.0,0.0,0.0,0.0,0.0,0.0,0.0,0.0,0.0,0.833565235138,-0.12748645246,9.96355628967,0.0,0.0,0.0,0.0,0.0,0.0,0.0,0.0,0.0
783957500,454752,1644543929272121668,1,0.0,0.0,0.0,0.0,0.0,0.0,0.0,0.0,0.0,0.0,0.0,0.0,0.0,0.0,0.0,0.0,0.0,0.0,0.0,0.0,0.0,0.0,0.0,0.0,0.0,0.804145276546,-0.0980664938688,9.8949098587,0.0,0.0,0.0,0.0,0.0,0.0,0.0,0.0,0.0
785937700,454753,1644543929274135590,1,0.0,0.0,0.0,0.0,0.0,0.0,0.0,0.0,0.0,0.0,0.0,0.0,0.0,0.0,0.0,0.0,0.0,0.0,0.0,0.0,0.0,0.0,0.0,0.0,0.0,0.804145276546,-0.0686465501785,9.94394302368,0.0,0.0,0.0,0.0,0.0,0.0,0.0,0.0,0.0
788014700,454754,1644543929276147366,1,0.0,0.0,0.0,0.0,0.0,0.0,0.0,0.0,0.0,0.0,0.0,0.0,0.0,0.0,0.0,0.0,0.0,0.0,0.0,0.0,0.0,0.0,0.0,0.0,0.0,0.804145276546,-0.137293100357,9.91452312469,0.0,0.0,0.0,0.0,0.0,0.0,0.0,0.0,0.0
789975100,454755,1644543929278161287,1,0.0,0.0,0.0,0.0,0.0,0.0,0.0,0.0,0.0,0.0,0.0,0.0,0.0,0.0,0.0,0.0,0.0,0.0,0.0,0.0,0.0,0.0,0.0,0.0,0.0,0.804145276546,-0.137293100357,9.91452312469,0.0,0.0,0.0,0.0,0.0,0.0,0.0,0.0,0.0
791954100,454756,1644543929280175209,1,0.0,0.0,0.0,0.0,0.0,0.0,0.0,0.0,0.0,0.0,0.0,0.0,0.0,0.0,0.0,0.0,0.0,0.0,0.0,0.0,0.0,0.0,0.0,0.0,0.0,0.774725317955,-0.0980664938688,9.96355628967,0.0,0.0,0.0,0.0,0.0,0.0,0.0,0.0,0.0
793968100,454757,1644543929282187223,1,0.0,0.0,0.0,0.0,0.0,0.0,0.0,0.0,0.0,0.0,0.0,0.0,0.0,0.0,0.0,0.0,0.0,0.0,0.0,0.0,0.0,0.0,0.0,0.0,0.0,0.774725317955,-0.0980664938688,9.91452312469,0.0,0.0,0.0,0.0,0.0,0.0,0.0,0.0,0.0
795972500,454758,1644543929284201145,1,0.0,0.0,0.0,0.0,0.0,0.0,0.0,0.0,0.0,0.0,0.0,0.0,0.0,0.0,0.0,0.0,0.0,0.0,0.0,0.0,0.0,0.0,0.0,0.0,0.0,0.774725317955,-0.0784531980753,9.91452312469,0.0,0.0,0.0,0.0,0.0,0.0,0.0,0.0,0.0
797966100,454759,1644543929286215067,1,0.0,0.0,0.0,0.0,0.0,0.0,0.0,0.0,0.0,0.0,0.0,0.0,0.0,0.0,0.0,0.0,0.0,0.0,0.0,0.0,0.0,0.0,0.0,0.0,0.0,0.774725317955,-0.137293100357,9.8949098587,0.0,0.0,0.0,0.0,0.0,0.0,0.0,0.0,0.0
800081500,454760,1644543929288228989,1,0.0,0.0,0.0,0.0,0.0,0.0,0.0,0.0,0.0,0.0,0.0,0.0,0.0,0.0,0.0,0.0,0.0,0.0,0.0,0.0,0.0,0.0,0.0,0.0,0.0,0.804145276546,-0.0980664938688,9.83607006073,0.0,0.0,0.0,0.0,0.0,0.0,0.0,0.0,0.0
801974100,454761,1644543929290240765,1,0.0,0.0,0.0,0.0,0.0,0.0,0.0,0.0,0.0,0.0,0.0,0.0,0.0,0.0,0.0,0.0,0.0,0.0,0.0,0.0,0.0,0.0,0.0,0.0,0.0,0.735498726368,-0.0784531980753,9.91452312469,0.0,0.0,0.0,0.0,0.0,0.0,0.0,0.0,0.0
803920600,454762,1644543929292254925,1,0.0,0.0,0.0,0.0,0.0,0.0,0.0,0.0,0.0,0.0,0.0,0.0,0.0,0.0,0.0,0.0,0.0,0.0,0.0,0.0,0.0,0.0,0.0,0.0,0.0,0.696272134781,-0.0392265990376,9.86548995972,0.0,0.0,0.0,0.0,0.0,0.0,0.0,0.0,0.0
805978200,454763,1644543929294268847,1,0.0,0.0,0.0,0.0,0.0,0.0,0.0,0.0,0.0,0.0,0.0,0.0,0.0,0.0,0.0,0.0,0.0,0.0,0.0,0.0,0.0,0.0,0.0,0.0,0.0,0.804145276546,-0.225552946329,9.96355628967,0.0,0.0,0.0,0.0,0.0,0.0,0.0,0.0,0.0
808044800,454764,1644543929296282768,1,0.0,0.0,0.0,0.0,0.0,0.0,0.0,0.0,0.0,0.0,0.0,0.0,0.0,0.0,0.0,0.0,0.0,0.0,0.0,0.0,0.0,0.0,0.0,0.0,0.0,0.872791826725,-0.166713044047,9.98316955566,0.0,0.0,0.0,0.0,0.0,0.0,0.0,0.0,0.0
809961800,454765,1644543929298296690,1,0.0,0.0,0.0,0.0,0.0,0.0,0.0,0.0,0.0,0.0,0.0,0.0,0.0,0.0,0.0,0.0,0.0,0.0,0.0,0.0,0.0,0.0,0.0,0.0,0.0,0.725692093372,-0.0784531980753,9.83607006073,0.0,0.0,0.0,0.0,0.0,0.0,0.0,0.0,0.0
811904200,454766,1644543929300308704,1,0.0,0.0,0.0,0.0,0.0,0.0,0.0,0.0,0.0,0.0,0.0,0.0,0.0,0.0,0.0,0.0,0.0,0.0,0.0,0.0,0.0,0.0,0.0,0.0,0.0,0.804145276546,-0.0686465501785,9.78703689575,0.0,0.0,0.0,0.0,0.0,0.0,0.0,0.0,0.0
813930700,454767,1644543929302322626,1,0.0,0.0,0.0,0.0,0.0,0.0,0.0,0.0,0.0,0.0,0.0,0.0,0.0,0.0,0.0,0.0,0.0,0.0,0.0,0.0,0.0,0.0,0.0,0.0,0.0,0.804145276546,-0.0980664938688,9.94394302368,0.0,0.0,0.0,0.0,0.0,0.0,0.0,0.0,0.0
815894800,454768,1644543929304334164,1,0.0,0.0,0.0,0.0,0.0,0.0,0.0,0.0,0.0,0.0,0.0,0.0,0.0,0.0,0.0,0.0,0.0,0.0,0.0,0.0,0.0,0.0,0.0,0.0,0.0,0.774725317955,-0.137293100357,9.8949098587,0.0,0.0,0.0,0.0,0.0,0.0,0.0,0.0,0.0
818106800,454769,1644543929306348085,1,0.0,0.0,0.0,0.0,0.0,0.0,0.0,0.0,0.0,0.0,0.0,0.0,0.0,0.0,0.0,0.0,0.0,0.0,0.0,0.0,0.0,0.0,0.0,0.0,0.0,0.764918684959,-0.0980664938688,9.88510322571,0.0,0.0,0.0,0.0,0.0,0.0,0.0,0.0,0.0
820171600,454770,1644543929308362007,1,0.0,0.0,0.0,0.0,0.0,0.0,0.0,0.0,0.0,0.0,0.0,0.0,0.0,0.0,0.0,0.0,0.0,0.0,0.0,0.0,0.0,0.0,0.0,0.0,0.0,0.774725317955,-0.0980664938688,9.94394302368,0.0,0.0,0.0,0.0,0.0,0.0,0.0,0.0,0.0
822149100,454771,1644543929310374022,1,0.0,0.0,0.0,0.0,0.0,0.0,0.0,0.0,0.0,0.0,0.0,0.0,0.0,0.0,0.0,0.0,0.0,0.0,0.0,0.0,0.0,0.0,0.0,0.0,0.0,0.774725317955,-0.0980664938688,9.91452312469,0.0,0.0,0.0,0.0,0.0,0.0,0.0,0.0,0.0
824277300,454772,1644543929312387943,1,0.0,0.0,0.0,0.0,0.0,0.0,0.0,0.0,0.0,0.0,0.0,0.0,0.0,0.0,0.0,0.0,0.0,0.0,0.0,0.0,0.0,0.0,0.0,0.0,0.0,0.764918684959,-0.12748645246,9.94394302368,0.0,0.0,0.0,0.0,0.0,0.0,0.0,0.0,0.0
826120900,454773,1644543929314399958,1,0.0,0.0,0.0,0.0,0.0,0.0,0.0,0.0,0.0,0.0,0.0,0.0,0.0,0.0,0.0,0.0,0.0,0.0,0.0,0.0,0.0,0.0,0.0,0.0,0.0,0.774725317955,-0.137293100357,9.86548995972,0.0,0.0,0.0,0.0,0.0,0.0,0.0,0.0,0.0
828175800,454774,1644543929316413879,1,0.0,0.0,0.0,0.0,0.0,0.0,0.0,0.0,0.0,0.0,0.0,0.0,0.0,0.0,0.0,0.0,0.0,0.0,0.0,0.0,0.0,0.0,0.0,0.0,0.0,0.813951909542,-0.176519691944,9.94394302368,0.0,0.0,0.0,0.0,0.0,0.0,0.0,0.0,0.0
830256000,454775,1644543929318427801,1,0.0,0.0,0.0,0.0,0.0,0.0,0.0,0.0,0.0,0.0,0.0,0.0,0.0,0.0,0.0,0.0,0.0,0.0,0.0,0.0,0.0,0.0,0.0,0.0,0.0,0.813951909542,-0.137293100357,9.96355628967,0.0,0.0,0.0,0.0,0.0,0.0,0.0,0.0,0.0
832251000,454776,1644543929320441723,1,0.0,0.0,0.0,0.0,0.0,0.0,0.0,0.0,0.0,0.0,0.0,0.0,0.0,0.0,0.0,0.0,0.0,0.0,0.0,0.0,0.0,0.0,0.0,0.0,0.0,0.804145276546,-0.12748645246,9.88510322571,0.0,0.0,0.0,0.0,0.0,0.0,0.0,0.0,0.0
834102900,454777,1644543929322453499,1,0.0,0.0,0.0,0.0,0.0,0.0,0.0,0.0,0.0,0.0,0.0,0.0,0.0,0.0,0.0,0.0,0.0,0.0,0.0,0.0,0.0,0.0,0.0,0.0,0.0,0.813951909542,-0.12748645246,9.8949098587,0.0,0.0,0.0,0.0,0.0,0.0,0.0,0.0,0.0
836111700,454778,1644543929324467421,1,0.0,0.0,0.0,0.0,0.0,0.0,0.0,0.0,0.0,0.0,0.0,0.0,0.0,0.0,0.0,0.0,0.0,0.0,0.0,0.0,0.0,0.0,0.0,0.0,0.0,0.813951909542,-0.12748645246,9.86548995972,0.0,0.0,0.0,0.0,0.0,0.0,0.0,0.0,0.0
838217100,454779,1644543929326479435,1,0.0,0.0,0.0,0.0,0.0,0.0,0.0,0.0,0.0,0.0,0.0,0.0,0.0,0.0,0.0,0.0,0.0,0.0,0.0,0.0,0.0,0.0,0.0,0.0,0.0,0.774725317955,-0.137293100357,9.8949098587,0.0,0.0,0.0,0.0,0.0,0.0,0.0,0.0,0.0
840449000,454780,1644543929328493357,1,0.0,0.0,0.0,0.0,0.0,0.0,0.0,0.0,0.0,0.0,0.0,0.0,0.0,0.0,0.0,0.0,0.0,0.0,0.0,0.0,0.0,0.0,0.0,0.0,0.0,0.813951909542,-0.0980664938688,9.8949098587,0.0,0.0,0.0,0.0,0.0,0.0,0.0,0.0,0.0
842406700,454781,1644543929330507278,1,0.0,0.0,0.0,0.0,0.0,0.0,0.0,0.0,0.0,0.0,0.0,0.0,0.0,0.0,0.0,0.0,0.0,0.0,0.0,0.0,0.0,0.0,0.0,0.0,0.0,0.774725317955,-0.12748645246,9.83607006073,0.0,0.0,0.0,0.0,0.0,0.0,0.0,0.0,0.0
844108600,454782,1644543929332519293,1,0.0,0.0,0.0,0.0,0.0,0.0,0.0,0.0,0.0,0.0,0.0,0.0,0.0,0.0,0.0,0.0,0.0,0.0,0.0,0.0,0.0,0.0,0.0,0.0,0.0,0.813951909542,-0.137293100357,9.88510322571,0.0,0.0,0.0,0.0,0.0,0.0,0.0,0.0,0.0
846380900,454783,1644543929334533215,1,0.0,0.0,0.0,0.0,0.0,0.0,0.0,0.0,0.0,0.0,0.0,0.0,0.0,0.0,0.0,0.0,0.0,0.0,0.0,0.0,0.0,0.0,0.0,0.0,0.0,0.804145276546,-0.0980664938688,9.81645679474,0.0,0.0,0.0,0.0,0.0,0.0,0.0,0.0,0.0
848396700,454784,1644543929336547136,1,0.0,0.0,0.0,0.0,0.0,0.0,0.0,0.0,0.0,0.0,0.0,0.0,0.0,0.0,0.0,0.0,0.0,0.0,0.0,0.0,0.0,0.0,0.0,0.0,0.0,0.774725317955,-0.12748645246,9.80665016174,0.0,0.0,0.0,0.0,0.0,0.0,0.0,0.0,0.0
850411100,454785,1644543929338559151,1,0.0,0.0,0.0,0.0,0.0,0.0,0.0,0.0,0.0,0.0,0.0,0.0,0.0,0.0,0.0,0.0,0.0,0.0,0.0,0.0,0.0,0.0,0.0,0.0,0.0,0.774725317955,-0.12748645246,9.78703689575,0.0,0.0,0.0,0.0,0.0,0.0,0.0,0.0,0.0
852455600,454786,1644543929340573072,1,0.0,0.0,0.0,0.0,0.0,0.0,0.0,0.0,0.0,0.0,0.0,0.0,0.0,0.0,0.0,0.0,0.0,0.0,0.0,0.0,0.0,0.0,0.0,0.0,0.0,0.774725317955,-0.0784531980753,9.88510322571,0.0,0.0,0.0,0.0,0.0,0.0,0.0,0.0,0.0
854401900,454787,1644543929342586994,1,0.0,0.0,0.0,0.0,0.0,0.0,0.0,0.0,0.0,0.0,0.0,0.0,0.0,0.0,0.0,0.0,0.0,0.0,0.0,0.0,0.0,0.0,0.0,0.0,0.0,0.735498726368,-0.12748645246,9.8949098587,0.0,0.0,0.0,0.0,0.0,0.0,0.0,0.0,0.0
856400100,454788,1644543929344598770,1,0.0,0.0,0.0,0.0,0.0,0.0,0.0,0.0,0.0,0.0,0.0,0.0,0.0,0.0,0.0,0.0,0.0,0.0,0.0,0.0,0.0,0.0,0.0,0.0,0.0,0.735498726368,-0.137293100357,9.96355628967,0.0,0.0,0.0,0.0,0.0,0.0,0.0,0.0,0.0
858402600,454789,1644543929346612692,1,0.0,0.0,0.0,0.0,0.0,0.0,0.0,0.0,0.0,0.0,0.0,0.0,0.0,0.0,0.0,0.0,0.0,0.0,0.0,0.0,0.0,0.0,0.0,0.0,0.0,0.764918684959,-0.0980664938688,9.99297618866,0.0,0.0,0.0,0.0,0.0,0.0,0.0,0.0,0.0
860551800,454790,1644543929348624706,1,0.0,0.0,0.0,0.0,0.0,0.0,0.0,0.0,0.0,0.0,0.0,0.0,0.0,0.0,0.0,0.0,0.0,0.0,0.0,0.0,0.0,0.0,0.0,0.0,0.0,0.774725317955,-0.12748645246,9.8949098587,0.0,0.0,0.0,0.0,0.0,0.0,0.0,0.0,0.0
862444700,454791,1644543929350638628,1,0.0,0.0,0.0,0.0,0.0,0.0,0.0,0.0,0.0,0.0,0.0,0.0,0.0,0.0,0.0,0.0,0.0,0.0,0.0,0.0,0.0,0.0,0.0,0.0,0.0,0.774725317955,-0.0392265990376,9.88510322571,0.0,0.0,0.0,0.0,0.0,0.0,0.0,0.0,0.0
864702600,454792,1644543929352652550,1,0.0,0.0,0.0,0.0,0.0,0.0,0.0,0.0,0.0,0.0,0.0,0.0,0.0,0.0,0.0,0.0,0.0,0.0,0.0,0.0,0.0,0.0,0.0,0.0,0.0,0.813951909542,-0.0980664938688,9.86548995972,0.0,0.0,0.0,0.0,0.0,0.0,0.0,0.0,0.0
866437900,454793,1644543929354664326,1,0.0,0.0,0.0,0.0,0.0,0.0,0.0,0.0,0.0,0.0,0.0,0.0,0.0,0.0,0.0,0.0,0.0,0.0,0.0,0.0,0.0,0.0,0.0,0.0,0.0,0.804145276546,-0.0980664938688,9.8949098587,0.0,0.0,0.0,0.0,0.0,0.0,0.0,0.0,0.0
868785400,454794,1644543929356678247,1,0.0,0.0,0.0,0.0,0.0,0.0,0.0,0.0,0.0,0.0,0.0,0.0,0.0,0.0,0.0,0.0,0.0,0.0,0.0,0.0,0.0,0.0,0.0,0.0,0.0,0.774725317955,-0.0980664938688,9.98316955566,0.0,0.0,0.0,0.0,0.0,0.0,0.0,0.0,0.0
870618700,454795,1644543929358690262,1,0.0,0.0,0.0,0.0,0.0,0.0,0.0,0.0,0.0,0.0,0.0,0.0,0.0,0.0,0.0,0.0,0.0,0.0,0.0,0.0,0.0,0.0,0.0,0.0,0.0,0.804145276546,-0.0980664938688,9.98316955566,0.0,0.0,0.0,0.0,0.0,0.0,0.0,0.0,0.0
872406100,454796,1644543929360704184,1,0.0,0.0,0.0,0.0,0.0,0.0,0.0,0.0,0.0,0.0,0.0,0.0,0.0,0.0,0.0,0.0,0.0,0.0,0.0,0.0,0.0,0.0,0.0,0.0,0.0,0.774725317955,-0.0686465501785,9.98316955566,0.0,0.0,0.0,0.0,0.0,0.0,0.0,0.0,0.0
874646500,454797,1644543929362718105,1,0.0,0.0,0.0,0.0,0.0,0.0,0.0,0.0,0.0,0.0,0.0,0.0,0.0,0.0,0.0,0.0,0.0,0.0,0.0,0.0,0.0,0.0,0.0,0.0,0.0,0.804145276546,-0.0980664938688,9.8949098587,0.0,0.0,0.0,0.0,0.0,0.0,0.0,0.0,0.0
876399800,454798,1644543929364729881,1,0.0,0.0,0.0,0.0,0.0,0.0,0.0,0.0,0.0,0.0,0.0,0.0,0.0,0.0,0.0,0.0,0.0,0.0,0.0,0.0,0.0,0.0,0.0,0.0,0.0,0.764918684959,-0.12748645246,9.94394302368,0.0,0.0,0.0,0.0,0.0,0.0,0.0,0.0,0.0
878399100,454799,1644543929366743803,1,0.0,0.0,0.0,0.0,0.0,0.0,0.0,0.0,0.0,0.0,0.0,0.0,0.0,0.0,0.0,0.0,0.0,0.0,0.0,0.0,0.0,0.0,0.0,0.0,0.0,0.774725317955,-0.0392265990376,9.91452312469,0.0,0.0,0.0,0.0,0.0,0.0,0.0,0.0,0.0
880921100,454800,1644543929368755817,1,0.0,0.0,0.0,0.0,0.0,0.0,0.0,0.0,0.0,0.0,0.0,0.0,0.0,0.0,0.0,0.0,0.0,0.0,0.0,0.0,0.0,0.0,0.0,0.0,0.0,0.764918684959,-0.0784531980753,9.91452312469,0.0,0.0,0.0,0.0,0.0,0.0,0.0,0.0,0.0
882408700,454801,1644543929370769739,1,0.0,0.0,0.0,0.0,0.0,0.0,0.0,0.0,0.0,0.0,0.0,0.0,0.0,0.0,0.0,0.0,0.0,0.0,0.0,0.0,0.0,0.0,0.0,0.0,0.0,0.804145276546,-0.0980664938688,9.94394302368,0.0,0.0,0.0,0.0,0.0,0.0,0.0,0.0,0.0
884700700,454802,1644543929372783661,1,0.0,0.0,0.0,0.0,0.0,0.0,0.0,0.0,0.0,0.0,0.0,0.0,0.0,0.0,0.0,0.0,0.0,0.0,0.0,0.0,0.0,0.0,0.0,0.0,0.0,0.804145276546,-0.0392265990376,9.88510322571,0.0,0.0,0.0,0.0,0.0,0.0,0.0,0.0,0.0
886709500,454803,1644543929374795675,1,0.0,0.0,0.0,0.0,0.0,0.0,0.0,0.0,0.0,0.0,0.0,0.0,0.0,0.0,0.0,0.0,0.0,0.0,0.0,0.0,0.0,0.0,0.0,0.0,0.0,0.804145276546,-0.0686465501785,9.96355628967,0.0,0.0,0.0,0.0,0.0,0.0,0.0,0.0,0.0
888683500,454804,1644543929376809597,1,0.0,0.0,0.0,0.0,0.0,0.0,0.0,0.0,0.0,0.0,0.0,0.0,0.0,0.0,0.0,0.0,0.0,0.0,0.0,0.0,0.0,0.0,0.0,0.0,0.0,0.813951909542,-0.0392265990376,9.96355628967,0.0,0.0,0.0,0.0,0.0,0.0,0.0,0.0,0.0
890697800,454805,1644543929378823519,1,0.0,0.0,0.0,0.0,0.0,0.0,0.0,0.0,0.0,0.0,0.0,0.0,0.0,0.0,0.0,0.0,0.0,0.0,0.0,0.0,0.0,0.0,0.0,0.0,0.0,0.804145276546,-0.12748645246,9.88510322571,0.0,0.0,0.0,0.0,0.0,0.0,0.0,0.0,0.0
892871900,454806,1644543929380835533,1,0.0,0.0,0.0,0.0,0.0,0.0,0.0,0.0,0.0,0.0,0.0,0.0,0.0,0.0,0.0,0.0,0.0,0.0,0.0,0.0,0.0,0.0,0.0,0.0,0.0,0.774725317955,-0.0980664938688,9.96355628967,0.0,0.0,0.0,0.0,0.0,0.0,0.0,0.0,0.0
894714000,454807,1644543929382849455,1,0.0,0.0,0.0,0.0,0.0,0.0,0.0,0.0,0.0,0.0,0.0,0.0,0.0,0.0,0.0,0.0,0.0,0.0,0.0,0.0,0.0,0.0,0.0,0.0,0.0,0.764918684959,-0.12748645246,9.96355628967,0.0,0.0,0.0,0.0,0.0,0.0,0.0,0.0,0.0
896682300,454808,1644543929384861231,1,0.0,0.0,0.0,0.0,0.0,0.0,0.0,0.0,0.0,0.0,0.0,0.0,0.0,0.0,0.0,0.0,0.0,0.0,0.0,0.0,0.0,0.0,0.0,0.0,0.0,0.813951909542,-0.0686465501785,9.88510322571,0.0,0.0,0.0,0.0,0.0,0.0,0.0,0.0,0.0
898735700,454809,1644543929386875153,1,0.0,0.0,0.0,0.0,0.0,0.0,0.0,0.0,0.0,0.0,0.0,0.0,0.0,0.0,0.0,0.0,0.0,0.0,0.0,0.0,0.0,0.0,0.0,0.0,0.0,0.813951909542,-0.0686465501785,9.8949098587,0.0,0.0,0.0,0.0,0.0,0.0,0.0,0.0,0.0
900666700,454810,1644543929388889074,1,0.0,0.0,0.0,0.0,0.0,0.0,0.0,0.0,0.0,0.0,0.0,0.0,0.0,0.0,0.0,0.0,0.0,0.0,0.0,0.0,0.0,0.0,0.0,0.0,0.0,0.804145276546,-0.0392265990376,9.8949098587,0.0,0.0,0.0,0.0,0.0,0.0,0.0,0.0,0.0
902643600,454811,1644543929390900850,1,0.0,0.0,0.0,0.0,0.0,0.0,0.0,0.0,0.0,0.0,0.0,0.0,0.0,0.0,0.0,0.0,0.0,0.0,0.0,0.0,0.0,0.0,0.0,0.0,0.0,0.833565235138,-0.0686465501785,9.91452312469,0.0,0.0,0.0,0.0,0.0,0.0,0.0,0.0,0.0
904649200,454812,1644543929392915010,1,0.0,0.0,0.0,0.0,0.0,0.0,0.0,0.0,0.0,0.0,0.0,0.0,0.0,0.0,0.0,0.0,0.0,0.0,0.0,0.0,0.0,0.0,0.0,0.0,0.0,0.774725317955,-0.0980664938688,9.94394302368,0.0,0.0,0.0,0.0,0.0,0.0,0.0,0.0,0.0
906639500,454813,1644543929394928932,1,0.0,0.0,0.0,0.0,0.0,0.0,0.0,0.0,0.0,0.0,0.0,0.0,0.0,0.0,0.0,0.0,0.0,0.0,0.0,0.0,0.0,0.0,0.0,0.0,0.0,0.774725317955,-0.0784531980753,9.94394302368,0.0,0.0,0.0,0.0,0.0,0.0,0.0,0.0,0.0
908646600,454814,1644543929396940708,1,0.0,0.0,0.0,0.0,0.0,0.0,0.0,0.0,0.0,0.0,0.0,0.0,0.0,0.0,0.0,0.0,0.0,0.0,0.0,0.0,0.0,0.0,0.0,0.0,0.0,0.804145276546,-0.12748645246,9.88510322571,0.0,0.0,0.0,0.0,0.0,0.0,0.0,0.0,0.0
910715400,454815,1644543929398954630,1,0.0,0.0,0.0,0.0,0.0,0.0,0.0,0.0,0.0,0.0,0.0,0.0,0.0,0.0,0.0,0.0,0.0,0.0,0.0,0.0,0.0,0.0,0.0,0.0,0.0,0.774725317955,-0.0980664938688,9.88510322571,0.0,0.0,0.0,0.0,0.0,0.0,0.0,0.0,0.0
912980700,454816,1644543929400966644,1,0.0,0.0,0.0,0.0,0.0,0.0,0.0,0.0,0.0,0.0,0.0,0.0,0.0,0.0,0.0,0.0,0.0,0.0,0.0,0.0,0.0,0.0,0.0,0.0,0.0,0.804145276546,-0.0784531980753,9.88510322571,0.0,0.0,0.0,0.0,0.0,0.0,0.0,0.0,0.0
915023800,454817,1644543929402980566,1,0.0,0.0,0.0,0.0,0.0,0.0,0.0,0.0,0.0,0.0,0.0,0.0,0.0,0.0,0.0,0.0,0.0,0.0,0.0,0.0,0.0,0.0,0.0,0.0,0.0,0.804145276546,-0.0980664938688,9.94394302368,0.0,0.0,0.0,0.0,0.0,0.0,0.0,0.0,0.0
916751300,454818,1644543929404994488,1,0.0,0.0,0.0,0.0,0.0,0.0,0.0,0.0,0.0,0.0,0.0,0.0,0.0,0.0,0.0,0.0,0.0,0.0,0.0,0.0,0.0,0.0,0.0,0.0,0.0,0.774725317955,-0.12748645246,9.88510322571,0.0,0.0,0.0,0.0,0.0,0.0,0.0,0.0,0.0
918651500,454819,1644543929407006264,1,0.0,0.0,0.0,0.0,0.0,0.0,0.0,0.0,0.0,0.0,0.0,0.0,0.0,0.0,0.0,0.0,0.0,0.0,0.0,0.0,0.0,0.0,0.0,0.0,0.0,0.764918684959,-0.0980664938688,9.8949098587,0.0,0.0,0.0,0.0,0.0,0.0,0.0,0.0,0.0
920723800,454820,1644543929409020185,1,0.0,0.0,0.0,0.0,0.0,0.0,0.0,0.0,0.0,0.0,0.0,0.0,0.0,0.0,0.0,0.0,0.0,0.0,0.0,0.0,0.0,0.0,0.0,0.0,0.0,0.813951909542,-0.0980664938688,9.94394302368,0.0,0.0,0.0,0.0,0.0,0.0,0.0,0.0,0.0
922652100,454821,1644543929411032200,1,0.0,0.0,0.0,0.0,0.0,0.0,0.0,0.0,0.0,0.0,0.0,0.0,0.0,0.0,0.0,0.0,0.0,0.0,0.0,0.0,0.0,0.0,0.0,0.0,0.0,0.833565235138,-0.0980664938688,9.88510322571,0.0,0.0,0.0,0.0,0.0,0.0,0.0,0.0,0.0
924810000,454822,1644543929413046122,1,0.0,0.0,0.0,0.0,0.0,0.0,0.0,0.0,0.0,0.0,0.0,0.0,0.0,0.0,0.0,0.0,0.0,0.0,0.0,0.0,0.0,0.0,0.0,0.0,0.0,0.813951909542,-0.12748645246,9.96355628967,0.0,0.0,0.0,0.0,0.0,0.0,0.0,0.0,0.0
926649800,454823,1644543929415060043,1,0.0,0.0,0.0,0.0,0.0,0.0,0.0,0.0,0.0,0.0,0.0,0.0,0.0,0.0,0.0,0.0,0.0,0.0,0.0,0.0,0.0,0.0,0.0,0.0,0.0,0.833565235138,-0.0980664938688,9.96355628967,0.0,0.0,0.0,0.0,0.0,0.0,0.0,0.0,0.0
928760300,454824,1644543929417072058,1,0.0,0.0,0.0,0.0,0.0,0.0,0.0,0.0,0.0,0.0,0.0,0.0,0.0,0.0,0.0,0.0,0.0,0.0,0.0,0.0,0.0,0.0,0.0,0.0,0.0,0.774725317955,-0.0784531980753,9.88510322571,0.0,0.0,0.0,0.0,0.0,0.0,0.0,0.0,0.0
930990900,454825,1644543929419085979,1,0.0,0.0,0.0,0.0,0.0,0.0,0.0,0.0,0.0,0.0,0.0,0.0,0.0,0.0,0.0,0.0,0.0,0.0,0.0,0.0,0.0,0.0,0.0,0.0,0.0,0.804145276546,-0.0294199492782,9.88510322571,0.0,0.0,0.0,0.0,0.0,0.0,0.0,0.0,0.0
932932200,454826,1644543929421097994,1,0.0,0.0,0.0,0.0,0.0,0.0,0.0,0.0,0.0,0.0,0.0,0.0,0.0,0.0,0.0,0.0,0.0,0.0,0.0,0.0,0.0,0.0,0.0,0.0,0.0,0.833565235138,-0.0784531980753,9.94394302368,0.0,0.0,0.0,0.0,0.0,0.0,0.0,0.0,0.0
934862800,454827,1644543929423111916,1,0.0,0.0,0.0,0.0,0.0,0.0,0.0,0.0,0.0,0.0,0.0,0.0,0.0,0.0,0.0,0.0,0.0,0.0,0.0,0.0,0.0,0.0,0.0,0.0,0.0,0.774725317955,-0.0784531980753,9.94394302368,0.0,0.0,0.0,0.0,0.0,0.0,0.0,0.0,0.0
936860100,454828,1644543929425123453,1,0.0,0.0,0.0,0.0,0.0,0.0,0.0,0.0,0.0,0.0,0.0,0.0,0.0,0.0,0.0,0.0,0.0,0.0,0.0,0.0,0.0,0.0,0.0,0.0,0.0,0.774725317955,-0.12748645246,9.8949098587,0.0,0.0,0.0,0.0,0.0,0.0,0.0,0.0,0.0
938855600,454829,1644543929427137375,1,0.0,0.0,0.0,0.0,0.0,0.0,0.0,0.0,0.0,0.0,0.0,0.0,0.0,0.0,0.0,0.0,0.0,0.0,0.0,0.0,0.0,0.0,0.0,0.0,0.0,0.804145276546,-0.0784531980753,9.91452312469,0.0,0.0,0.0,0.0,0.0,0.0,0.0,0.0,0.0
940870000,454830,1644543929429151297,1,0.0,0.0,0.0,0.0,0.0,0.0,0.0,0.0,0.0,0.0,0.0,0.0,0.0,0.0,0.0,0.0,0.0,0.0,0.0,0.0,0.0,0.0,0.0,0.0,0.0,0.804145276546,-0.0686465501785,9.94394302368,0.0,0.0,0.0,0.0,0.0,0.0,0.0,0.0,0.0
942891100,454831,1644543929431163311,1,0.0,0.0,0.0,0.0,0.0,0.0,0.0,0.0,0.0,0.0,0.0,0.0,0.0,0.0,0.0,0.0,0.0,0.0,0.0,0.0,0.0,0.0,0.0,0.0,0.0,0.774725317955,-0.0980664938688,9.94394302368,0.0,0.0,0.0,0.0,0.0,0.0,0.0,0.0,0.0
945281500,454832,1644543929433177233,1,0.0,0.0,0.0,0.0,0.0,0.0,0.0,0.0,0.0,0.0,0.0,0.0,0.0,0.0,0.0,0.0,0.0,0.0,0.0,0.0,0.0,0.0,0.0,0.0,0.0,0.774725317955,-0.0686465501785,9.94394302368,0.0,0.0,0.0,0.0,0.0,0.0,0.0,0.0,0.0
947045600,454833,1644543929435191154,1,0.0,0.0,0.0,0.0,0.0,0.0,0.0,0.0,0.0,0.0,0.0,0.0,0.0,0.0,0.0,0.0,0.0,0.0,0.0,0.0,0.0,0.0,0.0,0.0,0.0,0.804145276546,-0.0784531980753,9.96355628967,0.0,0.0,0.0,0.0,0.0,0.0,0.0,0.0,0.0
948954300,454834,1644543929437203169,1,0.0,0.0,0.0,0.0,0.0,0.0,0.0,0.0,0.0,0.0,0.0,0.0,0.0,0.0,0.0,0.0,0.0,0.0,0.0,0.0,0.0,0.0,0.0,0.0,0.0,0.774725317955,-0.0686465501785,9.96355628967,0.0,0.0,0.0,0.0,0.0,0.0,0.0,0.0,0.0
950894800,454835,1644543929439217091,1,0.0,0.0,0.0,0.0,0.0,0.0,0.0,0.0,0.0,0.0,0.0,0.0,0.0,0.0,0.0,0.0,0.0,0.0,0.0,0.0,0.0,0.0,0.0,0.0,0.0,0.774725317955,-0.0686465501785,9.94394302368,0.0,0.0,0.0,0.0,0.0,0.0,0.0,0.0,0.0
953010100,454836,1644543929441231012,1,0.0,0.0,0.0,0.0,0.0,0.0,0.0,0.0,0.0,0.0,0.0,0.0,0.0,0.0,0.0,0.0,0.0,0.0,0.0,0.0,0.0,0.0,0.0,0.0,0.0,0.813951909542,-0.0686465501785,9.91452312469,0.0,0.0,0.0,0.0,0.0,0.0,0.0,0.0,0.0
954881100,454837,1644543929443243027,1,0.0,0.0,0.0,0.0,0.0,0.0,0.0,0.0,0.0,0.0,0.0,0.0,0.0,0.0,0.0,0.0,0.0,0.0,0.0,0.0,0.0,0.0,0.0,0.0,0.0,0.804145276546,-0.0686465501785,9.8949098587,0.0,0.0,0.0,0.0,0.0,0.0,0.0,0.0,0.0
957265200,454838,1644543929445256948,1,0.0,0.0,0.0,0.0,0.0,0.0,0.0,0.0,0.0,0.0,0.0,0.0,0.0,0.0,0.0,0.0,0.0,0.0,0.0,0.0,0.0,0.0,0.0,0.0,0.0,0.804145276546,-0.0686465501785,9.91452312469,0.0,0.0,0.0,0.0,0.0,0.0,0.0,0.0,0.0
959002600,454839,1644543929447270870,1,0.0,0.0,0.0,0.0,0.0,0.0,0.0,0.0,0.0,0.0,0.0,0.0,0.0,0.0,0.0,0.0,0.0,0.0,0.0,0.0,0.0,0.0,0.0,0.0,0.0,0.813951909542,-0.0294199492782,9.88510322571,0.0,0.0,0.0,0.0,0.0,0.0,0.0,0.0,0.0
961216200,454840,1644543929449282646,1,0.0,0.0,0.0,0.0,0.0,0.0,0.0,0.0,0.0,0.0,0.0,0.0,0.0,0.0,0.0,0.0,0.0,0.0,0.0,0.0,0.0,0.0,0.0,0.0,0.0,0.764918684959,-0.00980664975941,9.94394302368,0.0,0.0,0.0,0.0,0.0,0.0,0.0,0.0,0.0
963144400,454841,1644543929451296568,1,0.0,0.0,0.0,0.0,0.0,0.0,0.0,0.0,0.0,0.0,0.0,0.0,0.0,0.0,0.0,0.0,0.0,0.0,0.0,0.0,0.0,0.0,0.0,0.0,0.0,0.735498726368,-0.0392265990376,9.91452312469,0.0,0.0,0.0,0.0,0.0,0.0,0.0,0.0,0.0
965158700,454842,1644543929453308344,1,0.0,0.0,0.0,0.0,0.0,0.0,0.0,0.0,0.0,0.0,0.0,0.0,0.0,0.0,0.0,0.0,0.0,0.0,0.0,0.0,0.0,0.0,0.0,0.0,0.0,0.774725317955,-0.0294199492782,9.96355628967,0.0,0.0,0.0,0.0,0.0,0.0,0.0,0.0,0.0
966852600,454843,1644543929455322266,1,0.0,0.0,0.0,0.0,0.0,0.0,0.0,0.0,0.0,0.0,0.0,0.0,0.0,0.0,0.0,0.0,0.0,0.0,0.0,0.0,0.0,0.0,0.0,0.0,0.0,0.764918684959,-0.0392265990376,9.8949098587,0.0,0.0,0.0,0.0,0.0,0.0,0.0,0.0,0.0
969145700,454844,1644543929457334280,1,0.0,0.0,0.0,0.0,0.0,0.0,0.0,0.0,0.0,0.0,0.0,0.0,0.0,0.0,0.0,0.0,0.0,0.0,0.0,0.0,0.0,0.0,0.0,0.0,0.0,0.774725317955,-0.0686465501785,9.94394302368,0.0,0.0,0.0,0.0,0.0,0.0,0.0,0.0,0.0
971217600,454845,1644543929459348202,1,0.0,0.0,0.0,0.0,0.0,0.0,0.0,0.0,0.0,0.0,0.0,0.0,0.0,0.0,0.0,0.0,0.0,0.0,0.0,0.0,0.0,0.0,0.0,0.0,0.0,0.774725317955,-0.00980664975941,9.8949098587,0.0,0.0,0.0,0.0,0.0,0.0,0.0,0.0,0.0
973215800,454846,1644543929461360216,1,0.0,0.0,0.0,0.0,0.0,0.0,0.0,0.0,0.0,0.0,0.0,0.0,0.0,0.0,0.0,0.0,0.0,0.0,0.0,0.0,0.0,0.0,0.0,0.0,0.0,0.804145276546,0.0,9.91452312469,0.0,0.0,0.0,0.0,0.0,0.0,0.0,0.0,0.0
975782600,454847,1644543929463374138,1,0.0,0.0,0.0,0.0,0.0,0.0,0.0,0.0,0.0,0.0,0.0,0.0,0.0,0.0,0.0,0.0,0.0,0.0,0.0,0.0,0.0,0.0,0.0,0.0,0.0,0.774725317955,-0.0294199492782,9.94394302368,0.0,0.0,0.0,0.0,0.0,0.0,0.0,0.0,0.0
977508000,454848,1644543929465387821,1,0.0,0.0,0.0,0.0,0.0,0.0,0.0,0.0,0.0,0.0,0.0,0.0,0.0,0.0,0.0,0.0,0.0,0.0,0.0,0.0,0.0,0.0,0.0,0.0,0.0,0.764918684959,-0.0294199492782,9.98316955566,0.0,0.0,0.0,0.0,0.0,0.0,0.0,0.0,0.0
979152600,454849,1644543929467399836,1,0.0,0.0,0.0,0.0,0.0,0.0,0.0,0.0,0.0,0.0,0.0,0.0,0.0,0.0,0.0,0.0,0.0,0.0,0.0,0.0,0.0,0.0,0.0,0.0,0.0,0.774725317955,-0.00980664975941,9.94394302368,0.0,0.0,0.0,0.0,0.0,0.0,0.0,0.0,0.0
981203900,454850,1644543929469413757,1,0.0,0.0,0.0,0.0,0.0,0.0,0.0,0.0,0.0,0.0,0.0,0.0,0.0,0.0,0.0,0.0,0.0,0.0,0.0,0.0,0.0,0.0,0.0,0.0,0.0,0.813951909542,-0.0392265990376,9.96355628967,0.0,0.0,0.0,0.0,0.0,0.0,0.0,0.0,0.0
983146000,454851,1644543929471425772,1,0.0,0.0,0.0,0.0,0.0,0.0,0.0,0.0,0.0,0.0,0.0,0.0,0.0,0.0,0.0,0.0,0.0,0.0,0.0,0.0,0.0,0.0,0.0,0.0,0.0,0.804145276546,0.0,9.98316955566,0.0,0.0,0.0,0.0,0.0,0.0,0.0,0.0,0.0
985173200,454852,1644543929473441601,1,0.0,0.0,0.0,0.0,0.0,0.0,0.0,0.0,0.0,0.0,0.0,0.0,0.0,0.0,0.0,0.0,0.0,0.0,0.0,0.0,0.0,0.0,0.0,0.0,0.0,0.813951909542,-0.0294199492782,9.99297618866,0.0,0.0,0.0,0.0,0.0,0.0,0.0,0.0,0.0
987442400,454853,1644543929475453615,1,0.0,0.0,0.0,0.0,0.0,0.0,0.0,0.0,0.0,0.0,0.0,0.0,0.0,0.0,0.0,0.0,0.0,0.0,0.0,0.0,0.0,0.0,0.0,0.0,0.0,0.813951909542,-0.00980664975941,9.94394302368,0.0,0.0,0.0,0.0,0.0,0.0,0.0,0.0,0.0
989519300,454854,1644543929477467537,1,0.0,0.0,0.0,0.0,0.0,0.0,0.0,0.0,0.0,0.0,0.0,0.0,0.0,0.0,0.0,0.0,0.0,0.0,0.0,0.0,0.0,0.0,0.0,0.0,0.0,0.843371868134,-0.0294199492782,9.8949098587,0.0,0.0,0.0,0.0,0.0,0.0,0.0,0.0,0.0
991678700,454855,1644543929479479551,1,0.0,0.0,0.0,0.0,0.0,0.0,0.0,0.0,0.0,0.0,0.0,0.0,0.0,0.0,0.0,0.0,0.0,0.0,0.0,0.0,0.0,0.0,0.0,0.0,0.0,0.774725317955,-0.0392265990376,9.91452312469,0.0,0.0,0.0,0.0,0.0,0.0,0.0,0.0,0.0
993648100,454856,1644543929481493235,1,0.0,0.0,0.0,0.0,0.0,0.0,0.0,0.0,0.0,0.0,0.0,0.0,0.0,0.0,0.0,0.0,0.0,0.0,0.0,0.0,0.0,0.0,0.0,0.0,0.0,0.813951909542,-0.00980664975941,9.96355628967,0.0,0.0,0.0,0.0,0.0,0.0,0.0,0.0,0.0
995827700,454857,1644543929483507156,1,0.0,0.0,0.0,0.0,0.0,0.0,0.0,0.0,0.0,0.0,0.0,0.0,0.0,0.0,0.0,0.0,0.0,0.0,0.0,0.0,0.0,0.0,0.0,0.0,0.0,0.833565235138,-0.0784531980753,9.98316955566,0.0,0.0,0.0,0.0,0.0,0.0,0.0,0.0,0.0
997496200,454858,1644543929485518932,1,0.0,0.0,0.0,0.0,0.0,0.0,0.0,0.0,0.0,0.0,0.0,0.0,0.0,0.0,0.0,0.0,0.0,0.0,0.0,0.0,0.0,0.0,0.0,0.0,0.0,0.764918684959,0.0294199492782,9.8949098587,0.0,0.0,0.0,0.0,0.0,0.0,0.0,0.0,0.0
999469600,454859,1644543929487532854,1,0.0,0.0,0.0,0.0,0.0,0.0,0.0,0.0,0.0,0.0,0.0,0.0,0.0,0.0,0.0,0.0,0.0,0.0,0.0,0.0,0.0,0.0,0.0,0.0,0.0,0.735498726368,-0.0294199492782,9.8949098587,0.0,0.0,0.0,0.0,0.0,0.0,0.0,0.0,0.0
1001503800,454860,1644543929489546776,1,0.0,0.0,0.0,0.0,0.0,0.0,0.0,0.0,0.0,0.0,0.0,0.0,0.0,0.0,0.0,0.0,0.0,0.0,0.0,0.0,0.0,0.0,0.0,0.0,0.0,0.804145276546,-0.0294199492782,9.91452312469,0.0,0.0,0.0,0.0,0.0,0.0,0.0,0.0,0.0
1003413100,454861,1644543929491558790,1,0.0,0.0,0.0,0.0,0.0,0.0,0.0,0.0,0.0,0.0,0.0,0.0,0.0,0.0,0.0,0.0,0.0,0.0,0.0,0.0,0.0,0.0,0.0,0.0,0.0,0.833565235138,-0.0686465501785,9.98316955566,0.0,0.0,0.0,0.0,0.0,0.0,0.0,0.0,0.0
1005662600,454862,1644543929493572712,1,0.0,0.0,0.0,0.0,0.0,0.0,0.0,0.0,0.0,0.0,0.0,0.0,0.0,0.0,0.0,0.0,0.0,0.0,0.0,0.0,0.0,0.0,0.0,0.0,0.0,0.774725317955,-0.0294199492782,9.88510322571,0.0,0.0,0.0,0.0,0.0,0.0,0.0,0.0,0.0
1007701700,454863,1644543929495586634,1,0.0,0.0,0.0,0.0,0.0,0.0,0.0,0.0,0.0,0.0,0.0,0.0,0.0,0.0,0.0,0.0,0.0,0.0,0.0,0.0,0.0,0.0,0.0,0.0,0.0,0.813951909542,-0.0686465501785,9.96355628967,0.0,0.0,0.0,0.0,0.0,0.0,0.0,0.0,0.0
1009443600,454864,1644543929497598648,1,0.0,0.0,0.0,0.0,0.0,0.0,0.0,0.0,0.0,0.0,0.0,0.0,0.0,0.0,0.0,0.0,0.0,0.0,0.0,0.0,0.0,0.0,0.0,0.0,0.0,0.843371868134,-0.0980664938688,9.96355628967,0.0,0.0,0.0,0.0,0.0,0.0,0.0,0.0,0.0
1011462000,454865,1644543929499612570,1,0.0,0.0,0.0,0.0,0.0,0.0,0.0,0.0,0.0,0.0,0.0,0.0,0.0,0.0,0.0,0.0,0.0,0.0,0.0,0.0,0.0,0.0,0.0,0.0,0.0,0.804145276546,-0.0294199492782,9.98316955566,0.0,0.0,0.0,0.0,0.0,0.0,0.0,0.0,0.0
1013509700,454866,1644543929501626492,1,0.0,0.0,0.0,0.0,0.0,0.0,0.0,0.0,0.0,0.0,0.0,0.0,0.0,0.0,0.0,0.0,0.0,0.0,0.0,0.0,0.0,0.0,0.0,0.0,0.0,0.813951909542,-0.0392265990376,9.8949098587,0.0,0.0,0.0,0.0,0.0,0.0,0.0,0.0,0.0
1015447600,454867,1644543929503638506,1,0.0,0.0,0.0,0.0,0.0,0.0,0.0,0.0,0.0,0.0,0.0,0.0,0.0,0.0,0.0,0.0,0.0,0.0,0.0,0.0,0.0,0.0,0.0,0.0,0.0,0.813951909542,-0.0686465501785,9.86548995972,0.0,0.0,0.0,0.0,0.0,0.0,0.0,0.0,0.0
1017398300,454868,1644543929505652428,1,0.0,0.0,0.0,0.0,0.0,0.0,0.0,0.0,0.0,0.0,0.0,0.0,0.0,0.0,0.0,0.0,0.0,0.0,0.0,0.0,0.0,0.0,0.0,0.0,0.0,0.833565235138,-0.0686465501785,9.8949098587,0.0,0.0,0.0,0.0,0.0,0.0,0.0,0.0,0.0
1019491600,454869,1644543929507666349,1,0.0,0.0,0.0,0.0,0.0,0.0,0.0,0.0,0.0,0.0,0.0,0.0,0.0,0.0,0.0,0.0,0.0,0.0,0.0,0.0,0.0,0.0,0.0,0.0,0.0,0.804145276546,-0.0784531980753,9.94394302368,0.0,0.0,0.0,0.0,0.0,0.0,0.0,0.0,0.0
1021828100,454870,1644543929509677887,1,0.0,0.0,0.0,0.0,0.0,0.0,0.0,0.0,0.0,0.0,0.0,0.0,0.0,0.0,0.0,0.0,0.0,0.0,0.0,0.0,0.0,0.0,0.0,0.0,0.0,0.813951909542,-0.0784531980753,9.94394302368,0.0,0.0,0.0,0.0,0.0,0.0,0.0,0.0,0.0
1023436700,454871,1644543929511691809,1,0.0,0.0,0.0,0.0,0.0,0.0,0.0,0.0,0.0,0.0,0.0,0.0,0.0,0.0,0.0,0.0,0.0,0.0,0.0,0.0,0.0,0.0,0.0,0.0,0.0,0.872791826725,-0.12748645246,9.88510322571,0.0,0.0,0.0,0.0,0.0,0.0,0.0,0.0,0.0
1025386400,454872,1644543929513705730,1,0.0,0.0,0.0,0.0,0.0,0.0,0.0,0.0,0.0,0.0,0.0,0.0,0.0,0.0,0.0,0.0,0.0,0.0,0.0,0.0,0.0,0.0,0.0,0.0,0.0,0.813951909542,-0.0294199492782,9.91452312469,0.0,0.0,0.0,0.0,0.0,0.0,0.0,0.0,0.0
1027392200,454873,1644543929515719652,1,0.0,0.0,0.0,0.0,0.0,0.0,0.0,0.0,0.0,0.0,0.0,0.0,0.0,0.0,0.0,0.0,0.0,0.0,0.0,0.0,0.0,0.0,0.0,0.0,0.0,0.735498726368,-0.0686465501785,9.86548995972,0.0,0.0,0.0,0.0,0.0,0.0,0.0,0.0,0.0
1029384000,454874,1644543929517731667,1,0.0,0.0,0.0,0.0,0.0,0.0,0.0,0.0,0.0,0.0,0.0,0.0,0.0,0.0,0.0,0.0,0.0,0.0,0.0,0.0,0.0,0.0,0.0,0.0,0.0,0.813951909542,-0.0980664938688,9.91452312469,0.0,0.0,0.0,0.0,0.0,0.0,0.0,0.0,0.0
1031435500,454875,1644543929519745588,1,0.0,0.0,0.0,0.0,0.0,0.0,0.0,0.0,0.0,0.0,0.0,0.0,0.0,0.0,0.0,0.0,0.0,0.0,0.0,0.0,0.0,0.0,0.0,0.0,0.0,0.833565235138,-0.0980664938688,9.96355628967,0.0,0.0,0.0,0.0,0.0,0.0,0.0,0.0,0.0
1033392100,454876,1644543929521759510,1,0.0,0.0,0.0,0.0,0.0,0.0,0.0,0.0,0.0,0.0,0.0,0.0,0.0,0.0,0.0,0.0,0.0,0.0,0.0,0.0,0.0,0.0,0.0,0.0,0.0,0.764918684959,-0.0784531980753,9.86548995972,0.0,0.0,0.0,0.0,0.0,0.0,0.0,0.0,0.0
1035512800,454877,1644543929523771524,1,0.0,0.0,0.0,0.0,0.0,0.0,0.0,0.0,0.0,0.0,0.0,0.0,0.0,0.0,0.0,0.0,0.0,0.0,0.0,0.0,0.0,0.0,0.0,0.0,0.0,0.774725317955,-0.0784531980753,9.88510322571,0.0,0.0,0.0,0.0,0.0,0.0,0.0,0.0,0.0
1037561400,454878,1644543929525785446,1,0.0,0.0,0.0,0.0,0.0,0.0,0.0,0.0,0.0,0.0,0.0,0.0,0.0,0.0,0.0,0.0,0.0,0.0,0.0,0.0,0.0,0.0,0.0,0.0,0.0,0.804145276546,-0.12748645246,9.91452312469,0.0,0.0,0.0,0.0,0.0,0.0,0.0,0.0,0.0
1039405200,454879,1644543929527797461,1,0.0,0.0,0.0,0.0,0.0,0.0,0.0,0.0,0.0,0.0,0.0,0.0,0.0,0.0,0.0,0.0,0.0,0.0,0.0,0.0,0.0,0.0,0.0,0.0,0.0,0.804145276546,-0.0686465501785,9.88510322571,0.0,0.0,0.0,0.0,0.0,0.0,0.0,0.0,0.0
1041402500,454880,1644543929529811382,1,0.0,0.0,0.0,0.0,0.0,0.0,0.0,0.0,0.0,0.0,0.0,0.0,0.0,0.0,0.0,0.0,0.0,0.0,0.0,0.0,0.0,0.0,0.0,0.0,0.0,0.813951909542,-0.0784531980753,9.88510322571,0.0,0.0,0.0,0.0,0.0,0.0,0.0,0.0,0.0
1043391800,454881,1644543929531825304,1,0.0,0.0,0.0,0.0,0.0,0.0,0.0,0.0,0.0,0.0,0.0,0.0,0.0,0.0,0.0,0.0,0.0,0.0,0.0,0.0,0.0,0.0,0.0,0.0,0.0,0.813951909542,-0.0784531980753,9.8949098587,0.0,0.0,0.0,0.0,0.0,0.0,0.0,0.0,0.0
1045395100,454882,1644543929533836842,1,0.0,0.0,0.0,0.0,0.0,0.0,0.0,0.0,0.0,0.0,0.0,0.0,0.0,0.0,0.0,0.0,0.0,0.0,0.0,0.0,0.0,0.0,0.0,0.0,0.0,0.813951909542,-0.0392265990376,9.86548995972,0.0,0.0,0.0,0.0,0.0,0.0,0.0,0.0,0.0
1047562000,454883,1644543929535850763,1,0.0,0.0,0.0,0.0,0.0,0.0,0.0,0.0,0.0,0.0,0.0,0.0,0.0,0.0,0.0,0.0,0.0,0.0,0.0,0.0,0.0,0.0,0.0,0.0,0.0,0.774725317955,-0.0686465501785,9.86548995972,0.0,0.0,0.0,0.0,0.0,0.0,0.0,0.0,0.0
1049767500,454884,1644543929537864685,1,0.0,0.0,0.0,0.0,0.0,0.0,0.0,0.0,0.0,0.0,0.0,0.0,0.0,0.0,0.0,0.0,0.0,0.0,0.0,0.0,0.0,0.0,0.0,0.0,0.0,0.833565235138,-0.0784531980753,9.8949098587,0.0,0.0,0.0,0.0,0.0,0.0,0.0,0.0,0.0
1051802800,454885,1644543929539878607,1,0.0,0.0,0.0,0.0,0.0,0.0,0.0,0.0,0.0,0.0,0.0,0.0,0.0,0.0,0.0,0.0,0.0,0.0,0.0,0.0,0.0,0.0,0.0,0.0,0.0,0.813951909542,-0.12748645246,9.8949098587,0.0,0.0,0.0,0.0,0.0,0.0,0.0,0.0,0.0
1053917900,454886,1644543929541890621,1,0.0,0.0,0.0,0.0,0.0,0.0,0.0,0.0,0.0,0.0,0.0,0.0,0.0,0.0,0.0,0.0,0.0,0.0,0.0,0.0,0.0,0.0,0.0,0.0,0.0,0.774725317955,-0.0784531980753,9.8949098587,0.0,0.0,0.0,0.0,0.0,0.0,0.0,0.0,0.0
1055764900,454887,1644543929543904543,1,0.0,0.0,0.0,0.0,0.0,0.0,0.0,0.0,0.0,0.0,0.0,0.0,0.0,0.0,0.0,0.0,0.0,0.0,0.0,0.0,0.0,0.0,0.0,0.0,0.0,0.774725317955,-0.0392265990376,9.86548995972,0.0,0.0,0.0,0.0,0.0,0.0,0.0,0.0,0.0
1057682900,454888,1644543929545916557,1,0.0,0.0,0.0,0.0,0.0,0.0,0.0,0.0,0.0,0.0,0.0,0.0,0.0,0.0,0.0,0.0,0.0,0.0,0.0,0.0,0.0,0.0,0.0,0.0,0.0,0.804145276546,-0.0686465501785,9.8949098587,0.0,0.0,0.0,0.0,0.0,0.0,0.0,0.0,0.0
1059609800,454889,1644543929547930479,1,0.0,0.0,0.0,0.0,0.0,0.0,0.0,0.0,0.0,0.0,0.0,0.0,0.0,0.0,0.0,0.0,0.0,0.0,0.0,0.0,0.0,0.0,0.0,0.0,0.0,0.813951909542,-0.0980664938688,9.91452312469,0.0,0.0,0.0,0.0,0.0,0.0,0.0,0.0,0.0
1061607100,454890,1644543929549944401,1,0.0,0.0,0.0,0.0,0.0,0.0,0.0,0.0,0.0,0.0,0.0,0.0,0.0,0.0,0.0,0.0,0.0,0.0,0.0,0.0,0.0,0.0,0.0,0.0,0.0,0.813951909542,-0.0980664938688,9.91452312469,0.0,0.0,0.0,0.0,0.0,0.0,0.0,0.0,0.0
1063820800,454891,1644543929551958323,1,0.0,0.0,0.0,0.0,0.0,0.0,0.0,0.0,0.0,0.0,0.0,0.0,0.0,0.0,0.0,0.0,0.0,0.0,0.0,0.0,0.0,0.0,0.0,0.0,0.0,0.833565235138,-0.0686465501785,9.94394302368,0.0,0.0,0.0,0.0,0.0,0.0,0.0,0.0,0.0
1065670800,454892,1644543929553970098,1,0.0,0.0,0.0,0.0,0.0,0.0,0.0,0.0,0.0,0.0,0.0,0.0,0.0,0.0,0.0,0.0,0.0,0.0,0.0,0.0,0.0,0.0,0.0,0.0,0.0,0.813951909542,-0.0784531980753,9.88510322571,0.0,0.0,0.0,0.0,0.0,0.0,0.0,0.0,0.0
1067810500,454893,1644543929555984020,1,0.0,0.0,0.0,0.0,0.0,0.0,0.0,0.0,0.0,0.0,0.0,0.0,0.0,0.0,0.0,0.0,0.0,0.0,0.0,0.0,0.0,0.0,0.0,0.0,0.0,0.813951909542,-0.12748645246,9.88510322571,0.0,0.0,0.0,0.0,0.0,0.0,0.0,0.0,0.0
1069621200,454894,1644543929557995796,1,0.0,0.0,0.0,0.0,0.0,0.0,0.0,0.0,0.0,0.0,0.0,0.0,0.0,0.0,0.0,0.0,0.0,0.0,0.0,0.0,0.0,0.0,0.0,0.0,0.0,0.804145276546,-0.12748645246,9.83607006073,0.0,0.0,0.0,0.0,0.0,0.0,0.0,0.0,0.0
1071620700,454895,1644543929560009718,1,0.0,0.0,0.0,0.0,0.0,0.0,0.0,0.0,0.0,0.0,0.0,0.0,0.0,0.0,0.0,0.0,0.0,0.0,0.0,0.0,0.0,0.0,0.0,0.0,0.0,0.804145276546,-0.0784531980753,9.91452312469,0.0,0.0,0.0,0.0,0.0,0.0,0.0,0.0,0.0
1073604100,454896,1644543929562023640,1,0.0,0.0,0.0,0.0,0.0,0.0,0.0,0.0,0.0,0.0,0.0,0.0,0.0,0.0,0.0,0.0,0.0,0.0,0.0,0.0,0.0,0.0,0.0,0.0,0.0,0.804145276546,-0.0980664938688,9.88510322571,0.0,0.0,0.0,0.0,0.0,0.0,0.0,0.0,0.0
1075608300,454897,1644543929564035654,1,0.0,0.0,0.0,0.0,0.0,0.0,0.0,0.0,0.0,0.0,0.0,0.0,0.0,0.0,0.0,0.0,0.0,0.0,0.0,0.0,0.0,0.0,0.0,0.0,0.0,0.774725317955,-0.0784531980753,9.94394302368,0.0,0.0,0.0,0.0,0.0,0.0,0.0,0.0,0.0
1077796600,454898,1644543929566049576,1,0.0,0.0,0.0,0.0,0.0,0.0,0.0,0.0,0.0,0.0,0.0,0.0,0.0,0.0,0.0,0.0,0.0,0.0,0.0,0.0,0.0,0.0,0.0,0.0,0.0,0.764918684959,-0.0980664938688,9.96355628967,0.0,0.0,0.0,0.0,0.0,0.0,0.0,0.0,0.0
1079786200,454899,1644543929568063498,1,0.0,0.0,0.0,0.0,0.0,0.0,0.0,0.0,0.0,0.0,0.0,0.0,0.0,0.0,0.0,0.0,0.0,0.0,0.0,0.0,0.0,0.0,0.0,0.0,0.0,0.804145276546,-0.0686465501785,9.94394302368,0.0,0.0,0.0,0.0,0.0,0.0,0.0,0.0,0.0
1081985600,454900,1644543929570075512,1,0.0,0.0,0.0,0.0,0.0,0.0,0.0,0.0,0.0,0.0,0.0,0.0,0.0,0.0,0.0,0.0,0.0,0.0,0.0,0.0,0.0,0.0,0.0,0.0,0.0,0.813951909542,-0.0980664938688,9.88510322571,0.0,0.0,0.0,0.0,0.0,0.0,0.0,0.0,0.0
1084002000,454901,1644543929572089434,1,0.0,0.0,0.0,0.0,0.0,0.0,0.0,0.0,0.0,0.0,0.0,0.0,0.0,0.0,0.0,0.0,0.0,0.0,0.0,0.0,0.0,0.0,0.0,0.0,0.0,0.833565235138,-0.0784531980753,9.86548995972,0.0,0.0,0.0,0.0,0.0,0.0,0.0,0.0,0.0
1085943400,454902,1644543929574103355,1,0.0,0.0,0.0,0.0,0.0,0.0,0.0,0.0,0.0,0.0,0.0,0.0,0.0,0.0,0.0,0.0,0.0,0.0,0.0,0.0,0.0,0.0,0.0,0.0,0.0,0.774725317955,-0.0784531980753,9.86548995972,0.0,0.0,0.0,0.0,0.0,0.0,0.0,0.0,0.0
1088006600,454903,1644543929576115131,1,0.0,0.0,0.0,0.0,0.0,0.0,0.0,0.0,0.0,0.0,0.0,0.0,0.0,0.0,0.0,0.0,0.0,0.0,0.0,0.0,0.0,0.0,0.0,0.0,0.0,0.764918684959,-0.0980664938688,9.91452312469,0.0,0.0,0.0,0.0,0.0,0.0,0.0,0.0,0.0
1090234900,454904,1644543929578129053,1,0.0,0.0,0.0,0.0,0.0,0.0,0.0,0.0,0.0,0.0,0.0,0.0,0.0,0.0,0.0,0.0,0.0,0.0,0.0,0.0,0.0,0.0,0.0,0.0,0.0,0.804145276546,-0.0686465501785,9.94394302368,0.0,0.0,0.0,0.0,0.0,0.0,0.0,0.0,0.0
1091956100,454905,1644543929580142975,1,0.0,0.0,0.0,0.0,0.0,0.0,0.0,0.0,0.0,0.0,0.0,0.0,0.0,0.0,0.0,0.0,0.0,0.0,0.0,0.0,0.0,0.0,0.0,0.0,0.0,0.774725317955,-0.0686465501785,9.86548995972,0.0,0.0,0.0,0.0,0.0,0.0,0.0,0.0,0.0
1094035100,454906,1644543929582156897,1,0.0,0.0,0.0,0.0,0.0,0.0,0.0,0.0,0.0,0.0,0.0,0.0,0.0,0.0,0.0,0.0,0.0,0.0,0.0,0.0,0.0,0.0,0.0,0.0,0.0,0.804145276546,-0.0784531980753,9.94394302368,0.0,0.0,0.0,0.0,0.0,0.0,0.0,0.0,0.0
1096226900,454907,1644543929584168673,1,0.0,0.0,0.0,0.0,0.0,0.0,0.0,0.0,0.0,0.0,0.0,0.0,0.0,0.0,0.0,0.0,0.0,0.0,0.0,0.0,0.0,0.0,0.0,0.0,0.0,0.804145276546,-0.0784531980753,9.86548995972,0.0,0.0,0.0,0.0,0.0,0.0,0.0,0.0,0.0
1098385800,454908,1644543929586182594,1,0.0,0.0,0.0,0.0,0.0,0.0,0.0,0.0,0.0,0.0,0.0,0.0,0.0,0.0,0.0,0.0,0.0,0.0,0.0,0.0,0.0,0.0,0.0,0.0,0.0,0.764918684959,-0.0294199492782,9.91452312469,0.0,0.0,0.0,0.0,0.0,0.0,0.0,0.0,0.0
1100254400,454909,1644543929588196516,1,0.0,0.0,0.0,0.0,0.0,0.0,0.0,0.0,0.0,0.0,0.0,0.0,0.0,0.0,0.0,0.0,0.0,0.0,0.0,0.0,0.0,0.0,0.0,0.0,0.0,0.774725317955,-0.0294199492782,9.88510322571,0.0,0.0,0.0,0.0,0.0,0.0,0.0,0.0,0.0
1102155100,454910,1644543929590208530,1,0.0,0.0,0.0,0.0,0.0,0.0,0.0,0.0,0.0,0.0,0.0,0.0,0.0,0.0,0.0,0.0,0.0,0.0,0.0,0.0,0.0,0.0,0.0,0.0,0.0,0.774725317955,-0.0392265990376,9.91452312469,0.0,0.0,0.0,0.0,0.0,0.0,0.0,0.0,0.0
1104137900,454911,1644543929592222452,1,0.0,0.0,0.0,0.0,0.0,0.0,0.0,0.0,0.0,0.0,0.0,0.0,0.0,0.0,0.0,0.0,0.0,0.0,0.0,0.0,0.0,0.0,0.0,0.0,0.0,0.804145276546,-0.00980664975941,9.8949098587,0.0,0.0,0.0,0.0,0.0,0.0,0.0,0.0,0.0
1106136800,454912,1644543929594236374,1,0.0,0.0,0.0,0.0,0.0,0.0,0.0,0.0,0.0,0.0,0.0,0.0,0.0,0.0,0.0,0.0,0.0,0.0,0.0,0.0,0.0,0.0,0.0,0.0,0.0,0.813951909542,-0.00980664975941,9.88510322571,0.0,0.0,0.0,0.0,0.0,0.0,0.0,0.0,0.0
1108209700,454913,1644543929596248388,1,0.0,0.0,0.0,0.0,0.0,0.0,0.0,0.0,0.0,0.0,0.0,0.0,0.0,0.0,0.0,0.0,0.0,0.0,0.0,0.0,0.0,0.0,0.0,0.0,0.0,0.813951909542,-0.0392265990376,9.91452312469,0.0,0.0,0.0,0.0,0.0,0.0,0.0,0.0,0.0
1110264300,454914,1644543929598262310,1,0.0,0.0,0.0,0.0,0.0,0.0,0.0,0.0,0.0,0.0,0.0,0.0,0.0,0.0,0.0,0.0,0.0,0.0,0.0,0.0,0.0,0.0,0.0,0.0,0.0,0.764918684959,-0.0392265990376,9.88510322571,0.0,0.0,0.0,0.0,0.0,0.0,0.0,0.0,0.0
1112716800,454915,1644543929600274086,1,0.0,0.0,0.0,0.0,0.0,0.0,0.0,0.0,0.0,0.0,0.0,0.0,0.0,0.0,0.0,0.0,0.0,0.0,0.0,0.0,0.0,0.0,0.0,0.0,0.0,0.774725317955,-0.00980664975941,9.88510322571,0.0,0.0,0.0,0.0,0.0,0.0,0.0,0.0,0.0
1114195700,454916,1644543929602288008,1,0.0,0.0,0.0,0.0,0.0,0.0,0.0,0.0,0.0,0.0,0.0,0.0,0.0,0.0,0.0,0.0,0.0,0.0,0.0,0.0,0.0,0.0,0.0,0.0,0.0,0.764918684959,0.00980664975941,9.86548995972,0.0,0.0,0.0,0.0,0.0,0.0,0.0,0.0,0.0
1116149100,454917,1644543929604301691,1,0.0,0.0,0.0,0.0,0.0,0.0,0.0,0.0,0.0,0.0,0.0,0.0,0.0,0.0,0.0,0.0,0.0,0.0,0.0,0.0,0.0,0.0,0.0,0.0,0.0,0.735498726368,-0.0294199492782,9.8949098587,0.0,0.0,0.0,0.0,0.0,0.0,0.0,0.0,0.0
1118306000,454918,1644543929606313705,1,0.0,0.0,0.0,0.0,0.0,0.0,0.0,0.0,0.0,0.0,0.0,0.0,0.0,0.0,0.0,0.0,0.0,0.0,0.0,0.0,0.0,0.0,0.0,0.0,0.0,0.774725317955,0.0,9.91452312469,0.0,0.0,0.0,0.0,0.0,0.0,0.0,0.0,0.0
1120215200,454919,1644543929608327627,1,0.0,0.0,0.0,0.0,0.0,0.0,0.0,0.0,0.0,0.0,0.0,0.0,0.0,0.0,0.0,0.0,0.0,0.0,0.0,0.0,0.0,0.0,0.0,0.0,0.0,0.764918684959,-0.0686465501785,9.8949098587,0.0,0.0,0.0,0.0,0.0,0.0,0.0,0.0,0.0
1122254300,454920,1644543929610339642,1,0.0,0.0,0.0,0.0,0.0,0.0,0.0,0.0,0.0,0.0,0.0,0.0,0.0,0.0,0.0,0.0,0.0,0.0,0.0,0.0,0.0,0.0,0.0,0.0,0.0,0.774725317955,0.00980664975941,9.88510322571,0.0,0.0,0.0,0.0,0.0,0.0,0.0,0.0,0.0
1124178300,454921,1644543929612353563,1,0.0,0.0,0.0,0.0,0.0,0.0,0.0,0.0,0.0,0.0,0.0,0.0,0.0,0.0,0.0,0.0,0.0,0.0,0.0,0.0,0.0,0.0,0.0,0.0,0.0,0.804145276546,-0.00980664975941,9.96355628967,0.0,0.0,0.0,0.0,0.0,0.0,0.0,0.0,0.0
1126166700,454922,1644543929614367485,1,0.0,0.0,0.0,0.0,0.0,0.0,0.0,0.0,0.0,0.0,0.0,0.0,0.0,0.0,0.0,0.0,0.0,0.0,0.0,0.0,0.0,0.0,0.0,0.0,0.0,0.774725317955,0.0,9.98316955566,0.0,0.0,0.0,0.0,0.0,0.0,0.0,0.0,0.0
1128147200,454923,1644543929616381407,1,0.0,0.0,0.0,0.0,0.0,0.0,0.0,0.0,0.0,0.0,0.0,0.0,0.0,0.0,0.0,0.0,0.0,0.0,0.0,0.0,0.0,0.0,0.0,0.0,0.0,0.872791826725,-0.00980664975941,9.96355628967,0.0,0.0,0.0,0.0,0.0,0.0,0.0,0.0,0.0
1130307700,454924,1644543929618393421,1,0.0,0.0,0.0,0.0,0.0,0.0,0.0,0.0,0.0,0.0,0.0,0.0,0.0,0.0,0.0,0.0,0.0,0.0,0.0,0.0,0.0,0.0,0.0,0.0,0.0,0.872791826725,0.0294199492782,9.98316955566,0.0,0.0,0.0,0.0,0.0,0.0,0.0,0.0,0.0
1132162300,454925,1644543929620404959,1,0.0,0.0,0.0,0.0,0.0,0.0,0.0,0.0,0.0,0.0,0.0,0.0,0.0,0.0,0.0,0.0,0.0,0.0,0.0,0.0,0.0,0.0,0.0,0.0,0.0,0.882598459721,0.0784531980753,9.91452312469,0.0,0.0,0.0,0.0,0.0,0.0,0.0,0.0,0.0
1134156900,454926,1644543929622418880,1,0.0,0.0,0.0,0.0,0.0,0.0,0.0,0.0,0.0,0.0,0.0,0.0,0.0,0.0,0.0,0.0,0.0,0.0,0.0,0.0,0.0,0.0,0.0,0.0,0.0,0.882598459721,0.0784531980753,9.96355628967,0.0,0.0,0.0,0.0,0.0,0.0,0.0,0.0,0.0
1136136200,454927,1644543929624430895,1,0.0,0.0,0.0,0.0,0.0,0.0,0.0,0.0,0.0,0.0,0.0,0.0,0.0,0.0,0.0,0.0,0.0,0.0,0.0,0.0,0.0,0.0,0.0,0.0,0.0,0.872791826725,0.0784531980753,9.94394302368,0.0,0.0,0.0,0.0,0.0,0.0,0.0,0.0,0.0
1138137100,454928,1644543929626444817,1,0.0,0.0,0.0,0.0,0.0,0.0,0.0,0.0,0.0,0.0,0.0,0.0,0.0,0.0,0.0,0.0,0.0,0.0,0.0,0.0,0.0,0.0,0.0,0.0,0.0,0.882598459721,0.166713044047,9.94394302368,0.0,0.0,0.0,0.0,0.0,0.0,0.0,0.0,0.0
1140233000,454929,1644543929628456831,1,0.0,0.0,0.0,0.0,0.0,0.0,0.0,0.0,0.0,0.0,0.0,0.0,0.0,0.0,0.0,0.0,0.0,0.0,0.0,0.0,0.0,0.0,0.0,0.0,0.0,0.833565235138,0.166713044047,9.96355628967,0.0,0.0,0.0,0.0,0.0,0.0,0.0,0.0,0.0
1142252100,454930,1644543929630470753,1,0.0,0.0,0.0,0.0,0.0,0.0,0.0,0.0,0.0,0.0,0.0,0.0,0.0,0.0,0.0,0.0,0.0,0.0,0.0,0.0,0.0,0.0,0.0,0.0,0.0,0.833565235138,0.225552946329,9.99297618866,0.0,0.0,0.0,0.0,0.0,0.0,0.0,0.0,0.0
1144491100,454931,1644543929632484674,1,0.0,0.0,0.0,0.0,0.0,0.0,0.0,0.0,0.0,0.0,0.0,0.0,0.0,0.0,0.0,0.0,0.0,0.0,0.0,0.0,0.0,0.0,0.0,0.0,0.0,0.804145276546,0.176519691944,9.96355628967,0.0,0.0,0.0,0.0,0.0,0.0,0.0,0.0,0.0
1146175100,454932,1644543929634496689,1,0.0,0.0,0.0,0.0,0.0,0.0,0.0,0.0,0.0,0.0,0.0,0.0,0.0,0.0,0.0,0.0,0.0,0.0,0.0,0.0,0.0,0.0,0.0,0.0,0.0,0.735498726368,0.196132987738,9.8949098587,0.0,0.0,0.0,0.0,0.0,0.0,0.0,0.0,0.0
1148285600,454933,1644543929636510611,1,0.0,0.0,0.0,0.0,0.0,0.0,0.0,0.0,0.0,0.0,0.0,0.0,0.0,0.0,0.0,0.0,0.0,0.0,0.0,0.0,0.0,0.0,0.0,0.0,0.0,0.804145276546,0.245166242123,9.94394302368,0.0,0.0,0.0,0.0,0.0,0.0,0.0,0.0,0.0
1150177000,454934,1644543929638522148,1,0.0,0.0,0.0,0.0,0.0,0.0,0.0,0.0,0.0,0.0,0.0,0.0,0.0,0.0,0.0,0.0,0.0,0.0,0.0,0.0,0.0,0.0,0.0,0.0,0.0,0.804145276546,0.225552946329,9.91452312469,0.0,0.0,0.0,0.0,0.0,0.0,0.0,0.0,0.0
1152263400,454935,1644543929640536070,1,0.0,0.0,0.0,0.0,0.0,0.0,0.0,0.0,0.0,0.0,0.0,0.0,0.0,0.0,0.0,0.0,0.0,0.0,0.0,0.0,0.0,0.0,0.0,0.0,0.0,0.764918684959,0.264779537916,9.96355628967,0.0,0.0,0.0,0.0,0.0,0.0,0.0,0.0,0.0
1154331900,454936,1644543929642549992,1,0.0,0.0,0.0,0.0,0.0,0.0,0.0,0.0,0.0,0.0,0.0,0.0,0.0,0.0,0.0,0.0,0.0,0.0,0.0,0.0,0.0,0.0,0.0,0.0,0.0,0.804145276546,0.196132987738,9.98316955566,0.0,0.0,0.0,0.0,0.0,0.0,0.0,0.0,0.0
1156159400,454937,1644543929644562006,1,0.0,0.0,0.0,0.0,0.0,0.0,0.0,0.0,0.0,0.0,0.0,0.0,0.0,0.0,0.0,0.0,0.0,0.0,0.0,0.0,0.0,0.0,0.0,0.0,0.0,0.813951909542,0.225552946329,9.96355628967,0.0,0.0,0.0,0.0,0.0,0.0,0.0,0.0,0.0
1158695300,454938,1644543929646575928,1,0.0,0.0,0.0,0.0,0.0,0.0,0.0,0.0,0.0,0.0,0.0,0.0,0.0,0.0,0.0,0.0,0.0,0.0,0.0,0.0,0.0,0.0,0.0,0.0,0.0,0.833565235138,0.264779537916,9.91452312469,0.0,0.0,0.0,0.0,0.0,0.0,0.0,0.0,0.0
1160479500,454939,1644543929648589849,1,0.0,0.0,0.0,0.0,0.0,0.0,0.0,0.0,0.0,0.0,0.0,0.0,0.0,0.0,0.0,0.0,0.0,0.0,0.0,0.0,0.0,0.0,0.0,0.0,0.0,0.833565235138,0.225552946329,9.96355628967,0.0,0.0,0.0,0.0,0.0,0.0,0.0,0.0,0.0
1162155800,454940,1644543929650601864,1,0.0,0.0,0.0,0.0,0.0,0.0,0.0,0.0,0.0,0.0,0.0,0.0,0.0,0.0,0.0,0.0,0.0,0.0,0.0,0.0,0.0,0.0,0.0,0.0,0.0,0.813951909542,0.245166242123,9.98316955566,0.0,0.0,0.0,0.0,0.0,0.0,0.0,0.0,0.0
1164379700,454941,1644543929652615786,1,0.0,0.0,0.0,0.0,0.0,0.0,0.0,0.0,0.0,0.0,0.0,0.0,0.0,0.0,0.0,0.0,0.0,0.0,0.0,0.0,0.0,0.0,0.0,0.0,0.0,0.833565235138,0.274586200714,9.94394302368,0.0,0.0,0.0,0.0,0.0,0.0,0.0,0.0,0.0
1166360300,454942,1644543929654629707,1,0.0,0.0,0.0,0.0,0.0,0.0,0.0,0.0,0.0,0.0,0.0,0.0,0.0,0.0,0.0,0.0,0.0,0.0,0.0,0.0,0.0,0.0,0.0,0.0,0.0,0.843371868134,0.245166242123,10.0125894547,0.0,0.0,0.0,0.0,0.0,0.0,0.0,0.0,0.0
1168350400,454943,1644543929656641245,1,0.0,0.0,0.0,0.0,0.0,0.0,0.0,0.0,0.0,0.0,0.0,0.0,0.0,0.0,0.0,0.0,0.0,0.0,0.0,0.0,0.0,0.0,0.0,0.0,0.0,0.843371868134,0.176519691944,9.8949098587,0.0,0.0,0.0,0.0,0.0,0.0,0.0,0.0,0.0
1170398200,454944,1644543929658655167,1,0.0,0.0,0.0,0.0,0.0,0.0,0.0,0.0,0.0,0.0,0.0,0.0,0.0,0.0,0.0,0.0,0.0,0.0,0.0,0.0,0.0,0.0,0.0,0.0,0.0,0.813951909542,0.176519691944,9.94394302368,0.0,0.0,0.0,0.0,0.0,0.0,0.0,0.0,0.0
1172502700,454945,1644543929660669088,1,0.0,0.0,0.0,0.0,0.0,0.0,0.0,0.0,0.0,0.0,0.0,0.0,0.0,0.0,0.0,0.0,0.0,0.0,0.0,0.0,0.0,0.0,0.0,0.0,0.0,0.813951909542,0.176519691944,9.94394302368,0.0,0.0,0.0,0.0,0.0,0.0,0.0,0.0,0.0
1174737100,454946,1644543929662681103,1,0.0,0.0,0.0,0.0,0.0,0.0,0.0,0.0,0.0,0.0,0.0,0.0,0.0,0.0,0.0,0.0,0.0,0.0,0.0,0.0,0.0,0.0,0.0,0.0,0.0,0.813951909542,0.196132987738,9.96355628967,0.0,0.0,0.0,0.0,0.0,0.0,0.0,0.0,0.0
1176479900,454947,1644543929664695024,1,0.0,0.0,0.0,0.0,0.0,0.0,0.0,0.0,0.0,0.0,0.0,0.0,0.0,0.0,0.0,0.0,0.0,0.0,0.0,0.0,0.0,0.0,0.0,0.0,0.0,0.774725317955,0.12748645246,9.96355628967,0.0,0.0,0.0,0.0,0.0,0.0,0.0,0.0,0.0
1178365000,454948,1644543929666708946,1,0.0,0.0,0.0,0.0,0.0,0.0,0.0,0.0,0.0,0.0,0.0,0.0,0.0,0.0,0.0,0.0,0.0,0.0,0.0,0.0,0.0,0.0,0.0,0.0,0.0,0.804145276546,0.12748645246,9.96355628967,0.0,0.0,0.0,0.0,0.0,0.0,0.0,0.0,0.0
1180758800,454949,1644543929668720961,1,0.0,0.0,0.0,0.0,0.0,0.0,0.0,0.0,0.0,0.0,0.0,0.0,0.0,0.0,0.0,0.0,0.0,0.0,0.0,0.0,0.0,0.0,0.0,0.0,0.0,0.774725317955,0.166713044047,9.98316955566,0.0,0.0,0.0,0.0,0.0,0.0,0.0,0.0,0.0
1182453200,454950,1644543929670734882,1,0.0,0.0,0.0,0.0,0.0,0.0,0.0,0.0,0.0,0.0,0.0,0.0,0.0,0.0,0.0,0.0,0.0,0.0,0.0,0.0,0.0,0.0,0.0,0.0,0.0,0.813951909542,0.0980664938688,9.94394302368,0.0,0.0,0.0,0.0,0.0,0.0,0.0,0.0,0.0
1184518900,454951,1644543929672748804,1,0.0,0.0,0.0,0.0,0.0,0.0,0.0,0.0,0.0,0.0,0.0,0.0,0.0,0.0,0.0,0.0,0.0,0.0,0.0,0.0,0.0,0.0,0.0,0.0,0.0,0.843371868134,0.0686465501785,9.91452312469,0.0,0.0,0.0,0.0,0.0,0.0,0.0,0.0,0.0
1186416900,454952,1644543929674760580,1,0.0,0.0,0.0,0.0,0.0,0.0,0.0,0.0,0.0,0.0,0.0,0.0,0.0,0.0,0.0,0.0,0.0,0.0,0.0,0.0,0.0,0.0,0.0,0.0,0.0,0.804145276546,0.0784531980753,9.96355628967,0.0,0.0,0.0,0.0,0.0,0.0,0.0,0.0,0.0
1188403700,454953,1644543929676774502,1,0.0,0.0,0.0,0.0,0.0,0.0,0.0,0.0,0.0,0.0,0.0,0.0,0.0,0.0,0.0,0.0,0.0,0.0,0.0,0.0,0.0,0.0,0.0,0.0,0.0,0.813951909542,0.00980664975941,9.98316955566,0.0,0.0,0.0,0.0,0.0,0.0,0.0,0.0,0.0
1190612200,454954,1644543929678788424,1,0.0,0.0,0.0,0.0,0.0,0.0,0.0,0.0,0.0,0.0,0.0,0.0,0.0,0.0,0.0,0.0,0.0,0.0,0.0,0.0,0.0,0.0,0.0,0.0,0.0,0.774725317955,0.0686465501785,9.88510322571,0.0,0.0,0.0,0.0,0.0,0.0,0.0,0.0,0.0
1192427500,454955,1644543929680802345,1,0.0,0.0,0.0,0.0,0.0,0.0,0.0,0.0,0.0,0.0,0.0,0.0,0.0,0.0,0.0,0.0,0.0,0.0,0.0,0.0,0.0,0.0,0.0,0.0,0.0,0.764918684959,0.0,9.96355628967,0.0,0.0,0.0,0.0,0.0,0.0,0.0,0.0,0.0
1194357000,454956,1644543929682814121,1,0.0,0.0,0.0,0.0,0.0,0.0,0.0,0.0,0.0,0.0,0.0,0.0,0.0,0.0,0.0,0.0,0.0,0.0,0.0,0.0,0.0,0.0,0.0,0.0,0.0,0.813951909542,0.00980664975941,9.96355628967,0.0,0.0,0.0,0.0,0.0,0.0,0.0,0.0,0.0
1196354900,454957,1644543929684830189,1,0.0,0.0,0.0,0.0,0.0,0.0,0.0,0.0,0.0,0.0,0.0,0.0,0.0,0.0,0.0,0.0,0.0,0.0,0.0,0.0,0.0,0.0,0.0,0.0,0.0,0.833565235138,-0.0294199492782,9.96355628967,0.0,0.0,0.0,0.0,0.0,0.0,0.0,0.0,0.0
1198660000,454958,1644543929686841965,1,0.0,0.0,0.0,0.0,0.0,0.0,0.0,0.0,0.0,0.0,0.0,0.0,0.0,0.0,0.0,0.0,0.0,0.0,0.0,0.0,0.0,0.0,0.0,0.0,0.0,0.833565235138,-0.00980664975941,9.91452312469,0.0,0.0,0.0,0.0,0.0,0.0,0.0,0.0,0.0
1200732200,454959,1644543929688855886,1,0.0,0.0,0.0,0.0,0.0,0.0,0.0,0.0,0.0,0.0,0.0,0.0,0.0,0.0,0.0,0.0,0.0,0.0,0.0,0.0,0.0,0.0,0.0,0.0,0.0,0.872791826725,-0.0294199492782,9.94394302368,0.0,0.0,0.0,0.0,0.0,0.0,0.0,0.0,0.0
1202640900,454960,1644543929690867901,1,0.0,0.0,0.0,0.0,0.0,0.0,0.0,0.0,0.0,0.0,0.0,0.0,0.0,0.0,0.0,0.0,0.0,0.0,0.0,0.0,0.0,0.0,0.0,0.0,0.0,0.774725317955,-0.00980664975941,9.94394302368,0.0,0.0,0.0,0.0,0.0,0.0,0.0,0.0,0.0
1204874300,454961,1644543929692881584,1,0.0,0.0,0.0,0.0,0.0,0.0,0.0,0.0,0.0,0.0,0.0,0.0,0.0,0.0,0.0,0.0,0.0,0.0,0.0,0.0,0.0,0.0,0.0,0.0,0.0,0.843371868134,-0.0294199492782,9.94394302368,0.0,0.0,0.0,0.0,0.0,0.0,0.0,0.0,0.0
1206687800,454962,1644543929694893599,1,0.0,0.0,0.0,0.0,0.0,0.0,0.0,0.0,0.0,0.0,0.0,0.0,0.0,0.0,0.0,0.0,0.0,0.0,0.0,0.0,0.0,0.0,0.0,0.0,0.0,0.833565235138,-0.00980664975941,9.8949098587,0.0,0.0,0.0,0.0,0.0,0.0,0.0,0.0,0.0
1208896400,454963,1644543929696907520,1,0.0,0.0,0.0,0.0,0.0,0.0,0.0,0.0,0.0,0.0,0.0,0.0,0.0,0.0,0.0,0.0,0.0,0.0,0.0,0.0,0.0,0.0,0.0,0.0,0.0,0.804145276546,-0.00980664975941,9.86548995972,0.0,0.0,0.0,0.0,0.0,0.0,0.0,0.0,0.0
1210941800,454964,1644543929698921442,1,0.0,0.0,0.0,0.0,0.0,0.0,0.0,0.0,0.0,0.0,0.0,0.0,0.0,0.0,0.0,0.0,0.0,0.0,0.0,0.0,0.0,0.0,0.0,0.0,0.0,0.774725317955,-0.0686465501785,9.98316955566,0.0,0.0,0.0,0.0,0.0,0.0,0.0,0.0,0.0
1213061800,454965,1644543929700933456,1,0.0,0.0,0.0,0.0,0.0,0.0,0.0,0.0,0.0,0.0,0.0,0.0,0.0,0.0,0.0,0.0,0.0,0.0,0.0,0.0,0.0,0.0,0.0,0.0,0.0,0.774725317955,-0.0294199492782,9.91452312469,0.0,0.0,0.0,0.0,0.0,0.0,0.0,0.0,0.0
1215202200,454966,1644543929702947378,1,0.0,0.0,0.0,0.0,0.0,0.0,0.0,0.0,0.0,0.0,0.0,0.0,0.0,0.0,0.0,0.0,0.0,0.0,0.0,0.0,0.0,0.0,0.0,0.0,0.0,0.735498726368,0.0,9.88510322571,0.0,0.0,0.0,0.0,0.0,0.0,0.0,0.0,0.0
1216900000,454967,1644543929704961300,1,0.0,0.0,0.0,0.0,0.0,0.0,0.0,0.0,0.0,0.0,0.0,0.0,0.0,0.0,0.0,0.0,0.0,0.0,0.0,0.0,0.0,0.0,0.0,0.0,0.0,0.735498726368,-0.0294199492782,9.96355628967,0.0,0.0,0.0,0.0,0.0,0.0,0.0,0.0,0.0
1218958800,454968,1644543929706972837,1,0.0,0.0,0.0,0.0,0.0,0.0,0.0,0.0,0.0,0.0,0.0,0.0,0.0,0.0,0.0,0.0,0.0,0.0,0.0,0.0,0.0,0.0,0.0,0.0,0.0,0.764918684959,-0.0294199492782,9.91452312469,0.0,0.0,0.0,0.0,0.0,0.0,0.0,0.0,0.0
1221090900,454969,1644543929708986759,1,0.0,0.0,0.0,0.0,0.0,0.0,0.0,0.0,0.0,0.0,0.0,0.0,0.0,0.0,0.0,0.0,0.0,0.0,0.0,0.0,0.0,0.0,0.0,0.0,0.0,0.774725317955,-0.0294199492782,9.88510322571,0.0,0.0,0.0,0.0,0.0,0.0,0.0,0.0,0.0
1222911000,454970,1644543929711000681,1,0.0,0.0,0.0,0.0,0.0,0.0,0.0,0.0,0.0,0.0,0.0,0.0,0.0,0.0,0.0,0.0,0.0,0.0,0.0,0.0,0.0,0.0,0.0,0.0,0.0,0.774725317955,-0.0784531980753,9.8949098587,0.0,0.0,0.0,0.0,0.0,0.0,0.0,0.0,0.0
1224887500,454971,1644543929713014603,1,0.0,0.0,0.0,0.0,0.0,0.0,0.0,0.0,0.0,0.0,0.0,0.0,0.0,0.0,0.0,0.0,0.0,0.0,0.0,0.0,0.0,0.0,0.0,0.0,0.0,0.804145276546,-0.0392265990376,9.88510322571,0.0,0.0,0.0,0.0,0.0,0.0,0.0,0.0,0.0
1226888400,454972,1644543929715026617,1,0.0,0.0,0.0,0.0,0.0,0.0,0.0,0.0,0.0,0.0,0.0,0.0,0.0,0.0,0.0,0.0,0.0,0.0,0.0,0.0,0.0,0.0,0.0,0.0,0.0,0.813951909542,-0.0294199492782,9.91452312469,0.0,0.0,0.0,0.0,0.0,0.0,0.0,0.0,0.0
1228895200,454973,1644543929717040539,1,0.0,0.0,0.0,0.0,0.0,0.0,0.0,0.0,0.0,0.0,0.0,0.0,0.0,0.0,0.0,0.0,0.0,0.0,0.0,0.0,0.0,0.0,0.0,0.0,0.0,0.774725317955,-0.0686465501785,9.86548995972,0.0,0.0,0.0,0.0,0.0,0.0,0.0,0.0,0.0
1231231200,454974,1644543929719054461,1,0.0,0.0,0.0,0.0,0.0,0.0,0.0,0.0,0.0,0.0,0.0,0.0,0.0,0.0,0.0,0.0,0.0,0.0,0.0,0.0,0.0,0.0,0.0,0.0,0.0,0.833565235138,-0.0686465501785,9.8949098587,0.0,0.0,0.0,0.0,0.0,0.0,0.0,0.0,0.0
1232963200,454975,1644543929721068382,1,0.0,0.0,0.0,0.0,0.0,0.0,0.0,0.0,0.0,0.0,0.0,0.0,0.0,0.0,0.0,0.0,0.0,0.0,0.0,0.0,0.0,0.0,0.0,0.0,0.0,0.774725317955,-0.0392265990376,9.88510322571,0.0,0.0,0.0,0.0,0.0,0.0,0.0,0.0,0.0
1235231300,454976,1644543929723080397,1,0.0,0.0,0.0,0.0,0.0,0.0,0.0,0.0,0.0,0.0,0.0,0.0,0.0,0.0,0.0,0.0,0.0,0.0,0.0,0.0,0.0,0.0,0.0,0.0,0.0,0.804145276546,-0.0686465501785,9.91452312469,0.0,0.0,0.0,0.0,0.0,0.0,0.0,0.0,0.0
1237006500,454977,1644543929725094318,1,0.0,0.0,0.0,0.0,0.0,0.0,0.0,0.0,0.0,0.0,0.0,0.0,0.0,0.0,0.0,0.0,0.0,0.0,0.0,0.0,0.0,0.0,0.0,0.0,0.0,0.833565235138,-0.0784531980753,9.91452312469,0.0,0.0,0.0,0.0,0.0,0.0,0.0,0.0,0.0
1238897300,454978,1644543929727108002,1,0.0,0.0,0.0,0.0,0.0,0.0,0.0,0.0,0.0,0.0,0.0,0.0,0.0,0.0,0.0,0.0,0.0,0.0,0.0,0.0,0.0,0.0,0.0,0.0,0.0,0.774725317955,-0.0392265990376,9.94394302368,0.0,0.0,0.0,0.0,0.0,0.0,0.0,0.0,0.0
1240895500,454979,1644543929729121923,1,0.0,0.0,0.0,0.0,0.0,0.0,0.0,0.0,0.0,0.0,0.0,0.0,0.0,0.0,0.0,0.0,0.0,0.0,0.0,0.0,0.0,0.0,0.0,0.0,0.0,0.833565235138,-0.0686465501785,9.91452312469,0.0,0.0,0.0,0.0,0.0,0.0,0.0,0.0,0.0
1242882700,454980,1644543929731133699,1,0.0,0.0,0.0,0.0,0.0,0.0,0.0,0.0,0.0,0.0,0.0,0.0,0.0,0.0,0.0,0.0,0.0,0.0,0.0,0.0,0.0,0.0,0.0,0.0,0.0,0.774725317955,-0.0686465501785,9.88510322571,0.0,0.0,0.0,0.0,0.0,0.0,0.0,0.0,0.0
1244927300,454981,1644543929733147621,1,0.0,0.0,0.0,0.0,0.0,0.0,0.0,0.0,0.0,0.0,0.0,0.0,0.0,0.0,0.0,0.0,0.0,0.0,0.0,0.0,0.0,0.0,0.0,0.0,0.0,0.774725317955,-0.0784531980753,9.88510322571,0.0,0.0,0.0,0.0,0.0,0.0,0.0,0.0,0.0
1246978200,454982,1644543929735161543,1,0.0,0.0,0.0,0.0,0.0,0.0,0.0,0.0,0.0,0.0,0.0,0.0,0.0,0.0,0.0,0.0,0.0,0.0,0.0,0.0,0.0,0.0,0.0,0.0,0.0,0.804145276546,-0.0392265990376,9.8949098587,0.0,0.0,0.0,0.0,0.0,0.0,0.0,0.0,0.0
1249010100,454983,1644543929737173557,1,0.0,0.0,0.0,0.0,0.0,0.0,0.0,0.0,0.0,0.0,0.0,0.0,0.0,0.0,0.0,0.0,0.0,0.0,0.0,0.0,0.0,0.0,0.0,0.0,0.0,0.774725317955,-0.0392265990376,9.8949098587,0.0,0.0,0.0,0.0,0.0,0.0,0.0,0.0,0.0
1251023400,454984,1644543929739187479,1,0.0,0.0,0.0,0.0,0.0,0.0,0.0,0.0,0.0,0.0,0.0,0.0,0.0,0.0,0.0,0.0,0.0,0.0,0.0,0.0,0.0,0.0,0.0,0.0,0.0,0.804145276546,-0.0686465501785,9.88510322571,0.0,0.0,0.0,0.0,0.0,0.0,0.0,0.0,0.0
1253216900,454985,1644543929741201401,1,0.0,0.0,0.0,0.0,0.0,0.0,0.0,0.0,0.0,0.0,0.0,0.0,0.0,0.0,0.0,0.0,0.0,0.0,0.0,0.0,0.0,0.0,0.0,0.0,0.0,0.804145276546,-0.0392265990376,9.88510322571,0.0,0.0,0.0,0.0,0.0,0.0,0.0,0.0,0.0
1254900400,454986,1644543929743213177,1,0.0,0.0,0.0,0.0,0.0,0.0,0.0,0.0,0.0,0.0,0.0,0.0,0.0,0.0,0.0,0.0,0.0,0.0,0.0,0.0,0.0,0.0,0.0,0.0,0.0,0.833565235138,-0.0686465501785,9.94394302368,0.0,0.0,0.0,0.0,0.0,0.0,0.0,0.0,0.0
1256893200,454987,1644543929745227098,1,0.0,0.0,0.0,0.0,0.0,0.0,0.0,0.0,0.0,0.0,0.0,0.0,0.0,0.0,0.0,0.0,0.0,0.0,0.0,0.0,0.0,0.0,0.0,0.0,0.0,0.725692093372,-0.0294199492782,9.88510322571,0.0,0.0,0.0,0.0,0.0,0.0,0.0,0.0,0.0
1258914500,454988,1644543929747241020,1,0.0,0.0,0.0,0.0,0.0,0.0,0.0,0.0,0.0,0.0,0.0,0.0,0.0,0.0,0.0,0.0,0.0,0.0,0.0,0.0,0.0,0.0,0.0,0.0,0.0,0.764918684959,-0.0294199492782,9.83607006073,0.0,0.0,0.0,0.0,0.0,0.0,0.0,0.0,0.0
1261052000,454989,1644543929749253035,1,0.0,0.0,0.0,0.0,0.0,0.0,0.0,0.0,0.0,0.0,0.0,0.0,0.0,0.0,0.0,0.0,0.0,0.0,0.0,0.0,0.0,0.0,0.0,0.0,0.0,0.843371868134,-0.0686465501785,9.91452312469,0.0,0.0,0.0,0.0,0.0,0.0,0.0,0.0,0.0
1263007600,454990,1644543929751266956,1,0.0,0.0,0.0,0.0,0.0,0.0,0.0,0.0,0.0,0.0,0.0,0.0,0.0,0.0,0.0,0.0,0.0,0.0,0.0,0.0,0.0,0.0,0.0,0.0,0.0,0.804145276546,-0.0392265990376,9.91452312469,0.0,0.0,0.0,0.0,0.0,0.0,0.0,0.0,0.0
1264932100,454991,1644543929753278732,1,0.0,0.0,0.0,0.0,0.0,0.0,0.0,0.0,0.0,0.0,0.0,0.0,0.0,0.0,0.0,0.0,0.0,0.0,0.0,0.0,0.0,0.0,0.0,0.0,0.0,0.764918684959,0.0,9.88510322571,0.0,0.0,0.0,0.0,0.0,0.0,0.0,0.0,0.0
1266968200,454992,1644543929755292654,1,0.0,0.0,0.0,0.0,0.0,0.0,0.0,0.0,0.0,0.0,0.0,0.0,0.0,0.0,0.0,0.0,0.0,0.0,0.0,0.0,0.0,0.0,0.0,0.0,0.0,0.774725317955,0.0,9.8949098587,0.0,0.0,0.0,0.0,0.0,0.0,0.0,0.0,0.0
1268944600,454993,1644543929757304430,1,0.0,0.0,0.0,0.0,0.0,0.0,0.0,0.0,0.0,0.0,0.0,0.0,0.0,0.0,0.0,0.0,0.0,0.0,0.0,0.0,0.0,0.0,0.0,0.0,0.0,0.813951909542,-0.00980664975941,9.8949098587,0.0,0.0,0.0,0.0,0.0,0.0,0.0,0.0,0.0
1270953600,454994,1644543929759318352,1,0.0,0.0,0.0,0.0,0.0,0.0,0.0,0.0,0.0,0.0,0.0,0.0,0.0,0.0,0.0,0.0,0.0,0.0,0.0,0.0,0.0,0.0,0.0,0.0,0.0,0.735498726368,-0.00980664975941,9.8949098587,0.0,0.0,0.0,0.0,0.0,0.0,0.0,0.0,0.0
1272933500,454995,1644543929761332273,1,0.0,0.0,0.0,0.0,0.0,0.0,0.0,0.0,0.0,0.0,0.0,0.0,0.0,0.0,0.0,0.0,0.0,0.0,0.0,0.0,0.0,0.0,0.0,0.0,0.0,0.804145276546,-0.0294199492782,9.86548995972,0.0,0.0,0.0,0.0,0.0,0.0,0.0,0.0,0.0
1274951800,454996,1644543929763346195,1,0.0,0.0,0.0,0.0,0.0,0.0,0.0,0.0,0.0,0.0,0.0,0.0,0.0,0.0,0.0,0.0,0.0,0.0,0.0,0.0,0.0,0.0,0.0,0.0,0.0,0.774725317955,-0.00980664975941,9.8949098587,0.0,0.0,0.0,0.0,0.0,0.0,0.0,0.0,0.0
1276931800,454997,1644543929765360117,1,0.0,0.0,0.0,0.0,0.0,0.0,0.0,0.0,0.0,0.0,0.0,0.0,0.0,0.0,0.0,0.0,0.0,0.0,0.0,0.0,0.0,0.0,0.0,0.0,0.0,0.804145276546,-0.0686465501785,9.91452312469,0.0,0.0,0.0,0.0,0.0,0.0,0.0,0.0,0.0
1279150400,454998,1644543929767372131,1,0.0,0.0,0.0,0.0,0.0,0.0,0.0,0.0,0.0,0.0,0.0,0.0,0.0,0.0,0.0,0.0,0.0,0.0,0.0,0.0,0.0,0.0,0.0,0.0,0.0,0.804145276546,-0.0686465501785,9.96355628967,0.0,0.0,0.0,0.0,0.0,0.0,0.0,0.0,0.0
1281274300,454999,1644543929769386053,1,0.0,0.0,0.0,0.0,0.0,0.0,0.0,0.0,0.0,0.0,0.0,0.0,0.0,0.0,0.0,0.0,0.0,0.0,0.0,0.0,0.0,0.0,0.0,0.0,0.0,0.813951909542,-0.0392265990376,9.8949098587,0.0,0.0,0.0,0.0,0.0,0.0,0.0,0.0,0.0
1283205700,455000,1644543929771399975,1,0.0,0.0,0.0,0.0,0.0,0.0,0.0,0.0,0.0,0.0,0.0,0.0,0.0,0.0,0.0,0.0,0.0,0.0,0.0,0.0,0.0,0.0,0.0,0.0,0.0,0.813951909542,-0.0686465501785,9.96355628967,0.0,0.0,0.0,0.0,0.0,0.0,0.0,0.0,0.0
1285202000,455001,1644543929773411512,1,0.0,0.0,0.0,0.0,0.0,0.0,0.0,0.0,0.0,0.0,0.0,0.0,0.0,0.0,0.0,0.0,0.0,0.0,0.0,0.0,0.0,0.0,0.0,0.0,0.0,0.813951909542,-0.0392265990376,9.88510322571,0.0,0.0,0.0,0.0,0.0,0.0,0.0,0.0,0.0
1287105200,455002,1644543929775425434,1,0.0,0.0,0.0,0.0,0.0,0.0,0.0,0.0,0.0,0.0,0.0,0.0,0.0,0.0,0.0,0.0,0.0,0.0,0.0,0.0,0.0,0.0,0.0,0.0,0.0,0.833565235138,-0.0294199492782,9.88510322571,0.0,0.0,0.0,0.0,0.0,0.0,0.0,0.0,0.0
1289099800,455003,1644543929777437449,1,0.0,0.0,0.0,0.0,0.0,0.0,0.0,0.0,0.0,0.0,0.0,0.0,0.0,0.0,0.0,0.0,0.0,0.0,0.0,0.0,0.0,0.0,0.0,0.0,0.0,0.774725317955,0.0,9.88510322571,0.0,0.0,0.0,0.0,0.0,0.0,0.0,0.0,0.0
1291104800,455004,1644543929779451370,1,0.0,0.0,0.0,0.0,0.0,0.0,0.0,0.0,0.0,0.0,0.0,0.0,0.0,0.0,0.0,0.0,0.0,0.0,0.0,0.0,0.0,0.0,0.0,0.0,0.0,0.774725317955,0.0,9.81645679474,0.0,0.0,0.0,0.0,0.0,0.0,0.0,0.0,0.0
1293445200,455005,1644543929781465292,1,0.0,0.0,0.0,0.0,0.0,0.0,0.0,0.0,0.0,0.0,0.0,0.0,0.0,0.0,0.0,0.0,0.0,0.0,0.0,0.0,0.0,0.0,0.0,0.0,0.0,0.843371868134,-0.12748645246,9.91452312469,0.0,0.0,0.0,0.0,0.0,0.0,0.0,0.0,0.0
1295378400,455006,1644543929783477306,1,0.0,0.0,0.0,0.0,0.0,0.0,0.0,0.0,0.0,0.0,0.0,0.0,0.0,0.0,0.0,0.0,0.0,0.0,0.0,0.0,0.0,0.0,0.0,0.0,0.0,1.01989161968,-0.0784531980753,9.98316955566,0.0,0.0,0.0,0.0,0.0,0.0,0.0,0.0,0.0
1297607900,455007,1644543929785491228,1,0.0,0.0,0.0,0.0,0.0,0.0,0.0,0.0,0.0,0.0,0.0,0.0,0.0,0.0,0.0,0.0,0.0,0.0,0.0,0.0,0.0,0.0,0.0,0.0,0.0,0.774725317955,-0.0392265990376,9.80665016174,0.0,0.0,0.0,0.0,0.0,0.0,0.0,0.0,0.0
1299313000,455008,1644543929787503004,1,0.0,0.0,0.0,0.0,0.0,0.0,0.0,0.0,0.0,0.0,0.0,0.0,0.0,0.0,0.0,0.0,0.0,0.0,0.0,0.0,0.0,0.0,0.0,0.0,0.0,0.774725317955,0.0,9.78703689575,0.0,0.0,0.0,0.0,0.0,0.0,0.0,0.0,0.0
1301168800,455009,1644543929789516926,1,0.0,0.0,0.0,0.0,0.0,0.0,0.0,0.0,0.0,0.0,0.0,0.0,0.0,0.0,0.0,0.0,0.0,0.0,0.0,0.0,0.0,0.0,0.0,0.0,0.0,0.843371868134,-0.0784531980753,9.88510322571,0.0,0.0,0.0,0.0,0.0,0.0,0.0,0.0,0.0
1303189900,455010,1644543929791530848,1,0.0,0.0,0.0,0.0,0.0,0.0,0.0,0.0,0.0,0.0,0.0,0.0,0.0,0.0,0.0,0.0,0.0,0.0,0.0,0.0,0.0,0.0,0.0,0.0,0.0,0.843371868134,-0.12748645246,9.91452312469,0.0,0.0,0.0,0.0,0.0,0.0,0.0,0.0,0.0
1305245400,455011,1644543929793542624,1,0.0,0.0,0.0,0.0,0.0,0.0,0.0,0.0,0.0,0.0,0.0,0.0,0.0,0.0,0.0,0.0,0.0,0.0,0.0,0.0,0.0,0.0,0.0,0.0,0.0,0.804145276546,-0.0686465501785,9.91452312469,0.0,0.0,0.0,0.0,0.0,0.0,0.0,0.0,0.0
1307241000,455012,1644543929795556545,1,0.0,0.0,0.0,0.0,0.0,0.0,0.0,0.0,0.0,0.0,0.0,0.0,0.0,0.0,0.0,0.0,0.0,0.0,0.0,0.0,0.0,0.0,0.0,0.0,0.0,0.833565235138,-0.0784531980753,9.88510322571,0.0,0.0,0.0,0.0,0.0,0.0,0.0,0.0,0.0
1309311200,455013,1644543929797570467,1,0.0,0.0,0.0,0.0,0.0,0.0,0.0,0.0,0.0,0.0,0.0,0.0,0.0,0.0,0.0,0.0,0.0,0.0,0.0,0.0,0.0,0.0,0.0,0.0,0.0,0.813951909542,-0.0980664938688,9.96355628967,0.0,0.0,0.0,0.0,0.0,0.0,0.0,0.0,0.0
1311390100,455014,1644543929799582243,1,0.0,0.0,0.0,0.0,0.0,0.0,0.0,0.0,0.0,0.0,0.0,0.0,0.0,0.0,0.0,0.0,0.0,0.0,0.0,0.0,0.0,0.0,0.0,0.0,0.0,0.813951909542,-0.0294199492782,9.86548995972,0.0,0.0,0.0,0.0,0.0,0.0,0.0,0.0,0.0
1313312700,455015,1644543929801596165,1,0.0,0.0,0.0,0.0,0.0,0.0,0.0,0.0,0.0,0.0,0.0,0.0,0.0,0.0,0.0,0.0,0.0,0.0,0.0,0.0,0.0,0.0,0.0,0.0,0.0,0.813951909542,-0.0686465501785,9.8949098587,0.0,0.0,0.0,0.0,0.0,0.0,0.0,0.0,0.0
1315559400,455016,1644543929803610086,1,0.0,0.0,0.0,0.0,0.0,0.0,0.0,0.0,0.0,0.0,0.0,0.0,0.0,0.0,0.0,0.0,0.0,0.0,0.0,0.0,0.0,0.0,0.0,0.0,0.0,0.833565235138,-0.0686465501785,9.99297618866,0.0,0.0,0.0,0.0,0.0,0.0,0.0,0.0,0.0
1317727600,455017,1644543929805622101,1,0.0,0.0,0.0,0.0,0.0,0.0,0.0,0.0,0.0,0.0,0.0,0.0,0.0,0.0,0.0,0.0,0.0,0.0,0.0,0.0,0.0,0.0,0.0,0.0,0.0,0.833565235138,-0.0392265990376,9.96355628967,0.0,0.0,0.0,0.0,0.0,0.0,0.0,0.0,0.0
1319736100,455018,1644543929807636023,1,0.0,0.0,0.0,0.0,0.0,0.0,0.0,0.0,0.0,0.0,0.0,0.0,0.0,0.0,0.0,0.0,0.0,0.0,0.0,0.0,0.0,0.0,0.0,0.0,0.0,0.804145276546,-0.0294199492782,9.91452312469,0.0,0.0,0.0,0.0,0.0,0.0,0.0,0.0,0.0
1321676500,455019,1644543929809649944,1,0.0,0.0,0.0,0.0,0.0,0.0,0.0,0.0,0.0,0.0,0.0,0.0,0.0,0.0,0.0,0.0,0.0,0.0,0.0,0.0,0.0,0.0,0.0,0.0,0.0,0.804145276546,-0.00980664975941,9.91452312469,0.0,0.0,0.0,0.0,0.0,0.0,0.0,0.0,0.0
1323751300,455020,1644543929811661959,1,0.0,0.0,0.0,0.0,0.0,0.0,0.0,0.0,0.0,0.0,0.0,0.0,0.0,0.0,0.0,0.0,0.0,0.0,0.0,0.0,0.0,0.0,0.0,0.0,0.0,0.872791826725,-0.0686465501785,9.91452312469,0.0,0.0,0.0,0.0,0.0,0.0,0.0,0.0,0.0
1325512300,455021,1644543929813675642,1,0.0,0.0,0.0,0.0,0.0,0.0,0.0,0.0,0.0,0.0,0.0,0.0,0.0,0.0,0.0,0.0,0.0,0.0,0.0,0.0,0.0,0.0,0.0,0.0,0.0,0.813951909542,-0.0392265990376,9.8949098587,0.0,0.0,0.0,0.0,0.0,0.0,0.0,0.0,0.0
1327741100,455022,1644543929815689564,1,0.0,0.0,0.0,0.0,0.0,0.0,0.0,0.0,0.0,0.0,0.0,0.0,0.0,0.0,0.0,0.0,0.0,0.0,0.0,0.0,0.0,0.0,0.0,0.0,0.0,0.804145276546,-0.0686465501785,9.8949098587,0.0,0.0,0.0,0.0,0.0,0.0,0.0,0.0,0.0
1329670400,455023,1644543929817701340,1,0.0,0.0,0.0,0.0,0.0,0.0,0.0,0.0,0.0,0.0,0.0,0.0,0.0,0.0,0.0,0.0,0.0,0.0,0.0,0.0,0.0,0.0,0.0,0.0,0.0,0.774725317955,-0.0686465501785,9.8949098587,0.0,0.0,0.0,0.0,0.0,0.0,0.0,0.0,0.0
1331654800,455024,1644543929819715261,1,0.0,0.0,0.0,0.0,0.0,0.0,0.0,0.0,0.0,0.0,0.0,0.0,0.0,0.0,0.0,0.0,0.0,0.0,0.0,0.0,0.0,0.0,0.0,0.0,0.0,0.804145276546,-0.0784531980753,9.8949098587,0.0,0.0,0.0,0.0,0.0,0.0,0.0,0.0,0.0
1333638400,455025,1644543929821729183,1,0.0,0.0,0.0,0.0,0.0,0.0,0.0,0.0,0.0,0.0,0.0,0.0,0.0,0.0,0.0,0.0,0.0,0.0,0.0,0.0,0.0,0.0,0.0,0.0,0.0,0.813951909542,-0.0686465501785,9.8949098587,0.0,0.0,0.0,0.0,0.0,0.0,0.0,0.0,0.0
1335649800,455026,1644543929823741198,1,0.0,0.0,0.0,0.0,0.0,0.0,0.0,0.0,0.0,0.0,0.0,0.0,0.0,0.0,0.0,0.0,0.0,0.0,0.0,0.0,0.0,0.0,0.0,0.0,0.0,0.764918684959,-0.0686465501785,9.8949098587,0.0,0.0,0.0,0.0,0.0,0.0,0.0,0.0,0.0
1337638300,455027,1644543929825755119,1,0.0,0.0,0.0,0.0,0.0,0.0,0.0,0.0,0.0,0.0,0.0,0.0,0.0,0.0,0.0,0.0,0.0,0.0,0.0,0.0,0.0,0.0,0.0,0.0,0.0,0.735498726368,-0.0392265990376,9.94394302368,0.0,0.0,0.0,0.0,0.0,0.0,0.0,0.0,0.0
1339729300,455028,1644543929827766895,1,0.0,0.0,0.0,0.0,0.0,0.0,0.0,0.0,0.0,0.0,0.0,0.0,0.0,0.0,0.0,0.0,0.0,0.0,0.0,0.0,0.0,0.0,0.0,0.0,0.0,0.725692093372,-0.0686465501785,9.91452312469,0.0,0.0,0.0,0.0,0.0,0.0,0.0,0.0,0.0
1341807200,455029,1644543929829780817,1,0.0,0.0,0.0,0.0,0.0,0.0,0.0,0.0,0.0,0.0,0.0,0.0,0.0,0.0,0.0,0.0,0.0,0.0,0.0,0.0,0.0,0.0,0.0,0.0,0.0,0.774725317955,-0.0294199492782,9.91452312469,0.0,0.0,0.0,0.0,0.0,0.0,0.0,0.0,0.0
1343717400,455030,1644543929831794739,1,0.0,0.0,0.0,0.0,0.0,0.0,0.0,0.0,0.0,0.0,0.0,0.0,0.0,0.0,0.0,0.0,0.0,0.0,0.0,0.0,0.0,0.0,0.0,0.0,0.0,0.735498726368,-0.0392265990376,9.94394302368,0.0,0.0,0.0,0.0,0.0,0.0,0.0,0.0,0.0
1345662200,455031,1644543929833806753,1,0.0,0.0,0.0,0.0,0.0,0.0,0.0,0.0,0.0,0.0,0.0,0.0,0.0,0.0,0.0,0.0,0.0,0.0,0.0,0.0,0.0,0.0,0.0,0.0,0.0,0.774725317955,-0.0392265990376,9.8949098587,0.0,0.0,0.0,0.0,0.0,0.0,0.0,0.0,0.0
1347682400,455032,1644543929835820675,1,0.0,0.0,0.0,0.0,0.0,0.0,0.0,0.0,0.0,0.0,0.0,0.0,0.0,0.0,0.0,0.0,0.0,0.0,0.0,0.0,0.0,0.0,0.0,0.0,0.0,0.764918684959,-0.0392265990376,9.86548995972,0.0,0.0,0.0,0.0,0.0,0.0,0.0,0.0,0.0
1349666600,455033,1644543929837832212,1,0.0,0.0,0.0,0.0,0.0,0.0,0.0,0.0,0.0,0.0,0.0,0.0,0.0,0.0,0.0,0.0,0.0,0.0,0.0,0.0,0.0,0.0,0.0,0.0,0.0,0.764918684959,-0.0392265990376,9.94394302368,0.0,0.0,0.0,0.0,0.0,0.0,0.0,0.0,0.0
1351701900,455034,1644543929839846134,1,0.0,0.0,0.0,0.0,0.0,0.0,0.0,0.0,0.0,0.0,0.0,0.0,0.0,0.0,0.0,0.0,0.0,0.0,0.0,0.0,0.0,0.0,0.0,0.0,0.0,0.774725317955,-0.0392265990376,9.94394302368,0.0,0.0,0.0,0.0,0.0,0.0,0.0,0.0,0.0
1353661600,455035,1644543929841860056,1,0.0,0.0,0.0,0.0,0.0,0.0,0.0,0.0,0.0,0.0,0.0,0.0,0.0,0.0,0.0,0.0,0.0,0.0,0.0,0.0,0.0,0.0,0.0,0.0,0.0,0.764918684959,-0.0686465501785,9.98316955566,0.0,0.0,0.0,0.0,0.0,0.0,0.0,0.0,0.0
1355704000,455036,1644543929843873978,1,0.0,0.0,0.0,0.0,0.0,0.0,0.0,0.0,0.0,0.0,0.0,0.0,0.0,0.0,0.0,0.0,0.0,0.0,0.0,0.0,0.0,0.0,0.0,0.0,0.0,0.774725317955,-0.0392265990376,9.88510322571,0.0,0.0,0.0,0.0,0.0,0.0,0.0,0.0,0.0
1357931400,455037,1644543929845885992,1,0.0,0.0,0.0,0.0,0.0,0.0,0.0,0.0,0.0,0.0,0.0,0.0,0.0,0.0,0.0,0.0,0.0,0.0,0.0,0.0,0.0,0.0,0.0,0.0,0.0,0.764918684959,-0.0686465501785,9.88510322571,0.0,0.0,0.0,0.0,0.0,0.0,0.0,0.0,0.0
1359961400,455038,1644543929847899914,1,0.0,0.0,0.0,0.0,0.0,0.0,0.0,0.0,0.0,0.0,0.0,0.0,0.0,0.0,0.0,0.0,0.0,0.0,0.0,0.0,0.0,0.0,0.0,0.0,0.0,0.774725317955,-0.0686465501785,9.91452312469,0.0,0.0,0.0,0.0,0.0,0.0,0.0,0.0,0.0
1362225700,455039,1644543929849911928,1,0.0,0.0,0.0,0.0,0.0,0.0,0.0,0.0,0.0,0.0,0.0,0.0,0.0,0.0,0.0,0.0,0.0,0.0,0.0,0.0,0.0,0.0,0.0,0.0,0.0,0.764918684959,-0.0392265990376,9.88510322571,0.0,0.0,0.0,0.0,0.0,0.0,0.0,0.0,0.0
1363822300,455040,1644543929851925611,1,0.0,0.0,0.0,0.0,0.0,0.0,0.0,0.0,0.0,0.0,0.0,0.0,0.0,0.0,0.0,0.0,0.0,0.0,0.0,0.0,0.0,0.0,0.0,0.0,0.0,0.774725317955,-0.0686465501785,9.94394302368,0.0,0.0,0.0,0.0,0.0,0.0,0.0,0.0,0.0
1365687200,455041,1644543929853939533,1,0.0,0.0,0.0,0.0,0.0,0.0,0.0,0.0,0.0,0.0,0.0,0.0,0.0,0.0,0.0,0.0,0.0,0.0,0.0,0.0,0.0,0.0,0.0,0.0,0.0,0.735498726368,-0.0686465501785,9.86548995972,0.0,0.0,0.0,0.0,0.0,0.0,0.0,0.0,0.0
1367653700,455042,1644543929855951309,1,0.0,0.0,0.0,0.0,0.0,0.0,0.0,0.0,0.0,0.0,0.0,0.0,0.0,0.0,0.0,0.0,0.0,0.0,0.0,0.0,0.0,0.0,0.0,0.0,0.0,0.764918684959,-0.0392265990376,9.8949098587,0.0,0.0,0.0,0.0,0.0,0.0,0.0,0.0,0.0
1369693700,455043,1644543929857965231,1,0.0,0.0,0.0,0.0,0.0,0.0,0.0,0.0,0.0,0.0,0.0,0.0,0.0,0.0,0.0,0.0,0.0,0.0,0.0,0.0,0.0,0.0,0.0,0.0,0.0,0.774725317955,-0.0784531980753,9.8949098587,0.0,0.0,0.0,0.0,0.0,0.0,0.0,0.0,0.0
1371713200,455044,1644543929859979153,1,0.0,0.0,0.0,0.0,0.0,0.0,0.0,0.0,0.0,0.0,0.0,0.0,0.0,0.0,0.0,0.0,0.0,0.0,0.0,0.0,0.0,0.0,0.0,0.0,0.0,0.725692093372,-0.0686465501785,9.8949098587,0.0,0.0,0.0,0.0,0.0,0.0,0.0,0.0,0.0
1373677000,455045,1644543929861991167,1,0.0,0.0,0.0,0.0,0.0,0.0,0.0,0.0,0.0,0.0,0.0,0.0,0.0,0.0,0.0,0.0,0.0,0.0,0.0,0.0,0.0,0.0,0.0,0.0,0.0,0.764918684959,-0.0784531980753,9.94394302368,0.0,0.0,0.0,0.0,0.0,0.0,0.0,0.0,0.0
1375672000,455046,1644543929864004850,1,0.0,0.0,0.0,0.0,0.0,0.0,0.0,0.0,0.0,0.0,0.0,0.0,0.0,0.0,0.0,0.0,0.0,0.0,0.0,0.0,0.0,0.0,0.0,0.0,0.0,0.764918684959,-0.0392265990376,9.91452312469,0.0,0.0,0.0,0.0,0.0,0.0,0.0,0.0,0.0
1377677700,455047,1644543929866018772,1,0.0,0.0,0.0,0.0,0.0,0.0,0.0,0.0,0.0,0.0,0.0,0.0,0.0,0.0,0.0,0.0,0.0,0.0,0.0,0.0,0.0,0.0,0.0,0.0,0.0,0.774725317955,-0.0980664938688,9.91452312469,0.0,0.0,0.0,0.0,0.0,0.0,0.0,0.0,0.0
1379726400,455048,1644543929868030787,1,0.0,0.0,0.0,0.0,0.0,0.0,0.0,0.0,0.0,0.0,0.0,0.0,0.0,0.0,0.0,0.0,0.0,0.0,0.0,0.0,0.0,0.0,0.0,0.0,0.0,0.774725317955,-0.0784531980753,9.98316955566,0.0,0.0,0.0,0.0,0.0,0.0,0.0,0.0,0.0
1381669300,455049,1644543929870044708,1,0.0,0.0,0.0,0.0,0.0,0.0,0.0,0.0,0.0,0.0,0.0,0.0,0.0,0.0,0.0,0.0,0.0,0.0,0.0,0.0,0.0,0.0,0.0,0.0,0.0,0.804145276546,-0.0980664938688,9.94394302368,0.0,0.0,0.0,0.0,0.0,0.0,0.0,0.0,0.0
1383719000,455050,1644543929872058630,1,0.0,0.0,0.0,0.0,0.0,0.0,0.0,0.0,0.0,0.0,0.0,0.0,0.0,0.0,0.0,0.0,0.0,0.0,0.0,0.0,0.0,0.0,0.0,0.0,0.0,0.804145276546,-0.0980664938688,9.91452312469,0.0,0.0,0.0,0.0,0.0,0.0,0.0,0.0,0.0
1385758300,455051,1644543929874070644,1,0.0,0.0,0.0,0.0,0.0,0.0,0.0,0.0,0.0,0.0,0.0,0.0,0.0,0.0,0.0,0.0,0.0,0.0,0.0,0.0,0.0,0.0,0.0,0.0,0.0,0.774725317955,-0.0784531980753,9.91452312469,0.0,0.0,0.0,0.0,0.0,0.0,0.0,0.0,0.0
1387991600,455052,1644543929876084566,1,0.0,0.0,0.0,0.0,0.0,0.0,0.0,0.0,0.0,0.0,0.0,0.0,0.0,0.0,0.0,0.0,0.0,0.0,0.0,0.0,0.0,0.0,0.0,0.0,0.0,0.774725317955,-0.0686465501785,9.91452312469,0.0,0.0,0.0,0.0,0.0,0.0,0.0,0.0,0.0
1389980400,455053,1644543929878096104,1,0.0,0.0,0.0,0.0,0.0,0.0,0.0,0.0,0.0,0.0,0.0,0.0,0.0,0.0,0.0,0.0,0.0,0.0,0.0,0.0,0.0,0.0,0.0,0.0,0.0,0.833565235138,-0.12748645246,9.86548995972,0.0,0.0,0.0,0.0,0.0,0.0,0.0,0.0,0.0
1391758000,455054,1644543929880110025,1,0.0,0.0,0.0,0.0,0.0,0.0,0.0,0.0,0.0,0.0,0.0,0.0,0.0,0.0,0.0,0.0,0.0,0.0,0.0,0.0,0.0,0.0,0.0,0.0,0.0,0.764918684959,-0.12748645246,9.86548995972,0.0,0.0,0.0,0.0,0.0,0.0,0.0,0.0,0.0
1394024200,455055,1644543929882122040,1,0.0,0.0,0.0,0.0,0.0,0.0,0.0,0.0,0.0,0.0,0.0,0.0,0.0,0.0,0.0,0.0,0.0,0.0,0.0,0.0,0.0,0.0,0.0,0.0,0.0,0.804145276546,-0.0686465501785,9.88510322571,0.0,0.0,0.0,0.0,0.0,0.0,0.0,0.0,0.0
1395966000,455056,1644543929884135962,1,0.0,0.0,0.0,0.0,0.0,0.0,0.0,0.0,0.0,0.0,0.0,0.0,0.0,0.0,0.0,0.0,0.0,0.0,0.0,0.0,0.0,0.0,0.0,0.0,0.0,0.804145276546,-0.0784531980753,9.91452312469,0.0,0.0,0.0,0.0,0.0,0.0,0.0,0.0,0.0
1398017000,455057,1644543929886149883,1,0.0,0.0,0.0,0.0,0.0,0.0,0.0,0.0,0.0,0.0,0.0,0.0,0.0,0.0,0.0,0.0,0.0,0.0,0.0,0.0,0.0,0.0,0.0,0.0,0.0,0.764918684959,-0.0392265990376,9.88510322571,0.0,0.0,0.0,0.0,0.0,0.0,0.0,0.0,0.0
1399928200,455058,1644543929888161659,1,0.0,0.0,0.0,0.0,0.0,0.0,0.0,0.0,0.0,0.0,0.0,0.0,0.0,0.0,0.0,0.0,0.0,0.0,0.0,0.0,0.0,0.0,0.0,0.0,0.0,0.774725317955,-0.0784531980753,9.91452312469,0.0,0.0,0.0,0.0,0.0,0.0,0.0,0.0,0.0
1401930700,455059,1644543929890175581,1,0.0,0.0,0.0,0.0,0.0,0.0,0.0,0.0,0.0,0.0,0.0,0.0,0.0,0.0,0.0,0.0,0.0,0.0,0.0,0.0,0.0,0.0,0.0,0.0,0.0,0.813951909542,-0.0686465501785,9.96355628967,0.0,0.0,0.0,0.0,0.0,0.0,0.0,0.0,0.0
1403982600,455060,1644543929892187595,1,0.0,0.0,0.0,0.0,0.0,0.0,0.0,0.0,0.0,0.0,0.0,0.0,0.0,0.0,0.0,0.0,0.0,0.0,0.0,0.0,0.0,0.0,0.0,0.0,0.0,0.804145276546,-0.0980664938688,9.8949098587,0.0,0.0,0.0,0.0,0.0,0.0,0.0,0.0,0.0
1405967500,455061,1644543929894201517,1,0.0,0.0,0.0,0.0,0.0,0.0,0.0,0.0,0.0,0.0,0.0,0.0,0.0,0.0,0.0,0.0,0.0,0.0,0.0,0.0,0.0,0.0,0.0,0.0,0.0,0.774725317955,-0.0784531980753,9.88510322571,0.0,0.0,0.0,0.0,0.0,0.0,0.0,0.0,0.0
1407913000,455062,1644543929896213293,1,0.0,0.0,0.0,0.0,0.0,0.0,0.0,0.0,0.0,0.0,0.0,0.0,0.0,0.0,0.0,0.0,0.0,0.0,0.0,0.0,0.0,0.0,0.0,0.0,0.0,0.774725317955,-0.0686465501785,9.91452312469,0.0,0.0,0.0,0.0,0.0,0.0,0.0,0.0,0.0
1410027900,455063,1644543929898226976,1,0.0,0.0,0.0,0.0,0.0,0.0,0.0,0.0,0.0,0.0,0.0,0.0,0.0,0.0,0.0,0.0,0.0,0.0,0.0,0.0,0.0,0.0,0.0,0.0,0.0,0.804145276546,-0.0686465501785,9.91452312469,0.0,0.0,0.0,0.0,0.0,0.0,0.0,0.0,0.0
1411860700,455064,1644543929900240898,1,0.0,0.0,0.0,0.0,0.0,0.0,0.0,0.0,0.0,0.0,0.0,0.0,0.0,0.0,0.0,0.0,0.0,0.0,0.0,0.0,0.0,0.0,0.0,0.0,0.0,0.764918684959,-0.0686465501785,9.96355628967,0.0,0.0,0.0,0.0,0.0,0.0,0.0,0.0,0.0
1413897100,455065,1644543929902252913,1,0.0,0.0,0.0,0.0,0.0,0.0,0.0,0.0,0.0,0.0,0.0,0.0,0.0,0.0,0.0,0.0,0.0,0.0,0.0,0.0,0.0,0.0,0.0,0.0,0.0,0.804145276546,-0.0294199492782,9.8949098587,0.0,0.0,0.0,0.0,0.0,0.0,0.0,0.0,0.0
1415930500,455066,1644543929904266834,1,0.0,0.0,0.0,0.0,0.0,0.0,0.0,0.0,0.0,0.0,0.0,0.0,0.0,0.0,0.0,0.0,0.0,0.0,0.0,0.0,0.0,0.0,0.0,0.0,0.0,0.804145276546,-0.0686465501785,9.8949098587,0.0,0.0,0.0,0.0,0.0,0.0,0.0,0.0,0.0
1417905900,455067,1644543929906278849,1,0.0,0.0,0.0,0.0,0.0,0.0,0.0,0.0,0.0,0.0,0.0,0.0,0.0,0.0,0.0,0.0,0.0,0.0,0.0,0.0,0.0,0.0,0.0,0.0,0.0,0.774725317955,-0.0294199492782,9.8949098587,0.0,0.0,0.0,0.0,0.0,0.0,0.0,0.0,0.0
1420037600,455068,1644543929908292770,1,0.0,0.0,0.0,0.0,0.0,0.0,0.0,0.0,0.0,0.0,0.0,0.0,0.0,0.0,0.0,0.0,0.0,0.0,0.0,0.0,0.0,0.0,0.0,0.0,0.0,0.804145276546,-0.0294199492782,9.91452312469,0.0,0.0,0.0,0.0,0.0,0.0,0.0,0.0,0.0
1422201000,455069,1644543929910306454,1,0.0,0.0,0.0,0.0,0.0,0.0,0.0,0.0,0.0,0.0,0.0,0.0,0.0,0.0,0.0,0.0,0.0,0.0,0.0,0.0,0.0,0.0,0.0,0.0,0.0,0.804145276546,-0.0784531980753,9.96355628967,0.0,0.0,0.0,0.0,0.0,0.0,0.0,0.0,0.0
1423958800,455070,1644543929912318468,1,0.0,0.0,0.0,0.0,0.0,0.0,0.0,0.0,0.0,0.0,0.0,0.0,0.0,0.0,0.0,0.0,0.0,0.0,0.0,0.0,0.0,0.0,0.0,0.0,0.0,0.813951909542,-0.0980664938688,9.94394302368,0.0,0.0,0.0,0.0,0.0,0.0,0.0,0.0,0.0
1425969800,455071,1644543929914332390,1,0.0,0.0,0.0,0.0,0.0,0.0,0.0,0.0,0.0,0.0,0.0,0.0,0.0,0.0,0.0,0.0,0.0,0.0,0.0,0.0,0.0,0.0,0.0,0.0,0.0,0.774725317955,-0.0294199492782,9.91452312469,0.0,0.0,0.0,0.0,0.0,0.0,0.0,0.0,0.0
1427975700,455072,1644543929916344166,1,0.0,0.0,0.0,0.0,0.0,0.0,0.0,0.0,0.0,0.0,0.0,0.0,0.0,0.0,0.0,0.0,0.0,0.0,0.0,0.0,0.0,0.0,0.0,0.0,0.0,0.804145276546,-0.0686465501785,9.88510322571,0.0,0.0,0.0,0.0,0.0,0.0,0.0,0.0,0.0
1430003200,455073,1644543929918358088,1,0.0,0.0,0.0,0.0,0.0,0.0,0.0,0.0,0.0,0.0,0.0,0.0,0.0,0.0,0.0,0.0,0.0,0.0,0.0,0.0,0.0,0.0,0.0,0.0,0.0,0.813951909542,-0.0392265990376,9.88510322571,0.0,0.0,0.0,0.0,0.0,0.0,0.0,0.0,0.0
1432418500,455074,1644543929920372009,1,0.0,0.0,0.0,0.0,0.0,0.0,0.0,0.0,0.0,0.0,0.0,0.0,0.0,0.0,0.0,0.0,0.0,0.0,0.0,0.0,0.0,0.0,0.0,0.0,0.0,0.804145276546,-0.0294199492782,9.94394302368,0.0,0.0,0.0,0.0,0.0,0.0,0.0,0.0,0.0
1434264900,455075,1644543929922383785,1,0.0,0.0,0.0,0.0,0.0,0.0,0.0,0.0,0.0,0.0,0.0,0.0,0.0,0.0,0.0,0.0,0.0,0.0,0.0,0.0,0.0,0.0,0.0,0.0,0.0,0.764918684959,-0.00980664975941,9.8949098587,0.0,0.0,0.0,0.0,0.0,0.0,0.0,0.0,0.0
1436736100,455076,1644543929924397707,1,0.0,0.0,0.0,0.0,0.0,0.0,0.0,0.0,0.0,0.0,0.0,0.0,0.0,0.0,0.0,0.0,0.0,0.0,0.0,0.0,0.0,0.0,0.0,0.0,0.0,0.774725317955,-0.0686465501785,9.99297618866,0.0,0.0,0.0,0.0,0.0,0.0,0.0,0.0,0.0
1438187500,455077,1644543929926409721,1,0.0,0.0,0.0,0.0,0.0,0.0,0.0,0.0,0.0,0.0,0.0,0.0,0.0,0.0,0.0,0.0,0.0,0.0,0.0,0.0,0.0,0.0,0.0,0.0,0.0,0.764918684959,-0.0784531980753,9.86548995972,0.0,0.0,0.0,0.0,0.0,0.0,0.0,0.0,0.0
1440408200,455078,1644543929928423643,1,0.0,0.0,0.0,0.0,0.0,0.0,0.0,0.0,0.0,0.0,0.0,0.0,0.0,0.0,0.0,0.0,0.0,0.0,0.0,0.0,0.0,0.0,0.0,0.0,0.0,0.774725317955,-0.0392265990376,9.86548995972,0.0,0.0,0.0,0.0,0.0,0.0,0.0,0.0,0.0
1442392400,455079,1644543929930437565,1,0.0,0.0,0.0,0.0,0.0,0.0,0.0,0.0,0.0,0.0,0.0,0.0,0.0,0.0,0.0,0.0,0.0,0.0,0.0,0.0,0.0,0.0,0.0,0.0,0.0,0.774725317955,-0.0294199492782,9.8949098587,0.0,0.0,0.0,0.0,0.0,0.0,0.0,0.0,0.0
1444382800,455080,1644543929932449102,1,0.0,0.0,0.0,0.0,0.0,0.0,0.0,0.0,0.0,0.0,0.0,0.0,0.0,0.0,0.0,0.0,0.0,0.0,0.0,0.0,0.0,0.0,0.0,0.0,0.0,0.764918684959,-0.0686465501785,9.94394302368,0.0,0.0,0.0,0.0,0.0,0.0,0.0,0.0,0.0
1446424900,455081,1644543929934463024,1,0.0,0.0,0.0,0.0,0.0,0.0,0.0,0.0,0.0,0.0,0.0,0.0,0.0,0.0,0.0,0.0,0.0,0.0,0.0,0.0,0.0,0.0,0.0,0.0,0.0,0.804145276546,-0.0392265990376,9.94394302368,0.0,0.0,0.0,0.0,0.0,0.0,0.0,0.0,0.0
1448441600,455082,1644543929936475039,1,0.0,0.0,0.0,0.0,0.0,0.0,0.0,0.0,0.0,0.0,0.0,0.0,0.0,0.0,0.0,0.0,0.0,0.0,0.0,0.0,0.0,0.0,0.0,0.0,0.0,0.833565235138,-0.12748645246,9.88510322571,0.0,0.0,0.0,0.0,0.0,0.0,0.0,0.0,0.0
1450460900,455083,1644543929938488960,1,0.0,0.0,0.0,0.0,0.0,0.0,0.0,0.0,0.0,0.0,0.0,0.0,0.0,0.0,0.0,0.0,0.0,0.0,0.0,0.0,0.0,0.0,0.0,0.0,0.0,0.774725317955,-0.0980664938688,9.8949098587,0.0,0.0,0.0,0.0,0.0,0.0,0.0,0.0,0.0
1452498700,455084,1644543929940502882,1,0.0,0.0,0.0,0.0,0.0,0.0,0.0,0.0,0.0,0.0,0.0,0.0,0.0,0.0,0.0,0.0,0.0,0.0,0.0,0.0,0.0,0.0,0.0,0.0,0.0,0.774725317955,-0.0980664938688,9.91452312469,0.0,0.0,0.0,0.0,0.0,0.0,0.0,0.0,0.0
1454514500,455085,1644543929942514658,1,0.0,0.0,0.0,0.0,0.0,0.0,0.0,0.0,0.0,0.0,0.0,0.0,0.0,0.0,0.0,0.0,0.0,0.0,0.0,0.0,0.0,0.0,0.0,0.0,0.0,0.833565235138,-0.0980664938688,9.86548995972,0.0,0.0,0.0,0.0,0.0,0.0,0.0,0.0,0.0
1456515800,455086,1644543929944528580,1,0.0,0.0,0.0,0.0,0.0,0.0,0.0,0.0,0.0,0.0,0.0,0.0,0.0,0.0,0.0,0.0,0.0,0.0,0.0,0.0,0.0,0.0,0.0,0.0,0.0,0.813951909542,-0.0784531980753,9.88510322571,0.0,0.0,0.0,0.0,0.0,0.0,0.0,0.0,0.0
1458444500,455087,1644543929946540594,1,0.0,0.0,0.0,0.0,0.0,0.0,0.0,0.0,0.0,0.0,0.0,0.0,0.0,0.0,0.0,0.0,0.0,0.0,0.0,0.0,0.0,0.0,0.0,0.0,0.0,0.833565235138,-0.0294199492782,9.83607006073,0.0,0.0,0.0,0.0,0.0,0.0,0.0,0.0,0.0
1460461400,455088,1644543929948552608,1,0.0,0.0,0.0,0.0,0.0,0.0,0.0,0.0,0.0,0.0,0.0,0.0,0.0,0.0,0.0,0.0,0.0,0.0,0.0,0.0,0.0,0.0,0.0,0.0,0.0,0.813951909542,-0.0980664938688,9.91452312469,0.0,0.0,0.0,0.0,0.0,0.0,0.0,0.0,0.0
1462532800,455089,1644543929950566053,1,0.0,0.0,0.0,0.0,0.0,0.0,0.0,0.0,0.0,0.0,0.0,0.0,0.0,0.0,0.0,0.0,0.0,0.0,0.0,0.0,0.0,0.0,0.0,0.0,0.0,0.804145276546,-0.12748645246,9.91452312469,0.0,0.0,0.0,0.0,0.0,0.0,0.0,0.0,0.0
1465226500,455090,1644543929952578068,1,0.0,0.0,0.0,0.0,0.0,0.0,0.0,0.0,0.0,0.0,0.0,0.0,0.0,0.0,0.0,0.0,0.0,0.0,0.0,0.0,0.0,0.0,0.0,0.0,0.0,0.804145276546,-0.12748645246,9.94394302368,0.0,0.0,0.0,0.0,0.0,0.0,0.0,0.0,0.0
1466584000,455091,1644543929954591990,1,0.0,0.0,0.0,0.0,0.0,0.0,0.0,0.0,0.0,0.0,0.0,0.0,0.0,0.0,0.0,0.0,0.0,0.0,0.0,0.0,0.0,0.0,0.0,0.0,0.0,0.804145276546,-0.0980664938688,9.91452312469,0.0,0.0,0.0,0.0,0.0,0.0,0.0,0.0,0.0
1468424000,455092,1644543929956605911,1,0.0,0.0,0.0,0.0,0.0,0.0,0.0,0.0,0.0,0.0,0.0,0.0,0.0,0.0,0.0,0.0,0.0,0.0,0.0,0.0,0.0,0.0,0.0,0.0,0.0,0.774725317955,-0.0784531980753,9.91452312469,0.0,0.0,0.0,0.0,0.0,0.0,0.0,0.0,0.0
1470437400,455093,1644543929958617926,1,0.0,0.0,0.0,0.0,0.0,0.0,0.0,0.0,0.0,0.0,0.0,0.0,0.0,0.0,0.0,0.0,0.0,0.0,0.0,0.0,0.0,0.0,0.0,0.0,0.0,0.774725317955,-0.0980664938688,9.91452312469,0.0,0.0,0.0,0.0,0.0,0.0,0.0,0.0,0.0
1472391500,455094,1644543929960631609,1,0.0,0.0,0.0,0.0,0.0,0.0,0.0,0.0,0.0,0.0,0.0,0.0,0.0,0.0,0.0,0.0,0.0,0.0,0.0,0.0,0.0,0.0,0.0,0.0,0.0,0.774725317955,-0.0784531980753,9.91452312469,0.0,0.0,0.0,0.0,0.0,0.0,0.0,0.0,0.0
1474390400,455095,1644543929962643623,1,0.0,0.0,0.0,0.0,0.0,0.0,0.0,0.0,0.0,0.0,0.0,0.0,0.0,0.0,0.0,0.0,0.0,0.0,0.0,0.0,0.0,0.0,0.0,0.0,0.0,0.813951909542,-0.12748645246,9.94394302368,0.0,0.0,0.0,0.0,0.0,0.0,0.0,0.0,0.0
1476399200,455096,1644543929964657545,1,0.0,0.0,0.0,0.0,0.0,0.0,0.0,0.0,0.0,0.0,0.0,0.0,0.0,0.0,0.0,0.0,0.0,0.0,0.0,0.0,0.0,0.0,0.0,0.0,0.0,0.774725317955,-0.0784531980753,9.91452312469,0.0,0.0,0.0,0.0,0.0,0.0,0.0,0.0,0.0
1478492900,455097,1644543929966671467,1,0.0,0.0,0.0,0.0,0.0,0.0,0.0,0.0,0.0,0.0,0.0,0.0,0.0,0.0,0.0,0.0,0.0,0.0,0.0,0.0,0.0,0.0,0.0,0.0,0.0,0.804145276546,-0.0686465501785,9.8949098587,0.0,0.0,0.0,0.0,0.0,0.0,0.0,0.0,0.0
1480744000,455098,1644543929968683243,1,0.0,0.0,0.0,0.0,0.0,0.0,0.0,0.0,0.0,0.0,0.0,0.0,0.0,0.0,0.0,0.0,0.0,0.0,0.0,0.0,0.0,0.0,0.0,0.0,0.0,0.774725317955,-0.0784531980753,9.86548995972,0.0,0.0,0.0,0.0,0.0,0.0,0.0,0.0,0.0
1482739900,455099,1644543929970695019,1,0.0,0.0,0.0,0.0,0.0,0.0,0.0,0.0,0.0,0.0,0.0,0.0,0.0,0.0,0.0,0.0,0.0,0.0,0.0,0.0,0.0,0.0,0.0,0.0,0.0,0.813951909542,-0.0686465501785,9.91452312469,0.0,0.0,0.0,0.0,0.0,0.0,0.0,0.0,0.0
1484539600,455100,1644543929972708941,1,0.0,0.0,0.0,0.0,0.0,0.0,0.0,0.0,0.0,0.0,0.0,0.0,0.0,0.0,0.0,0.0,0.0,0.0,0.0,0.0,0.0,0.0,0.0,0.0,0.0,0.774725317955,-0.0686465501785,9.94394302368,0.0,0.0,0.0,0.0,0.0,0.0,0.0,0.0,0.0
1486483900,455101,1644543929974722862,1,0.0,0.0,0.0,0.0,0.0,0.0,0.0,0.0,0.0,0.0,0.0,0.0,0.0,0.0,0.0,0.0,0.0,0.0,0.0,0.0,0.0,0.0,0.0,0.0,0.0,0.764918684959,-0.0784531980753,9.88510322571,0.0,0.0,0.0,0.0,0.0,0.0,0.0,0.0,0.0
1488501000,455102,1644543929976734877,1,0.0,0.0,0.0,0.0,0.0,0.0,0.0,0.0,0.0,0.0,0.0,0.0,0.0,0.0,0.0,0.0,0.0,0.0,0.0,0.0,0.0,0.0,0.0,0.0,0.0,0.774725317955,-0.0686465501785,9.8949098587,0.0,0.0,0.0,0.0,0.0,0.0,0.0,0.0,0.0
1490580000,455103,1644543929978748798,1,0.0,0.0,0.0,0.0,0.0,0.0,0.0,0.0,0.0,0.0,0.0,0.0,0.0,0.0,0.0,0.0,0.0,0.0,0.0,0.0,0.0,0.0,0.0,0.0,0.0,0.774725317955,-0.0392265990376,9.88510322571,0.0,0.0,0.0,0.0,0.0,0.0,0.0,0.0,0.0
1492475000,455104,1644543929980762720,1,0.0,0.0,0.0,0.0,0.0,0.0,0.0,0.0,0.0,0.0,0.0,0.0,0.0,0.0,0.0,0.0,0.0,0.0,0.0,0.0,0.0,0.0,0.0,0.0,0.0,0.764918684959,-0.0392265990376,9.91452312469,0.0,0.0,0.0,0.0,0.0,0.0,0.0,0.0,0.0
1494516000,455105,1644543929982774496,1,0.0,0.0,0.0,0.0,0.0,0.0,0.0,0.0,0.0,0.0,0.0,0.0,0.0,0.0,0.0,0.0,0.0,0.0,0.0,0.0,0.0,0.0,0.0,0.0,0.0,0.774725317955,-0.0686465501785,9.96355628967,0.0,0.0,0.0,0.0,0.0,0.0,0.0,0.0,0.0
1496478200,455106,1644543929984788418,1,0.0,0.0,0.0,0.0,0.0,0.0,0.0,0.0,0.0,0.0,0.0,0.0,0.0,0.0,0.0,0.0,0.0,0.0,0.0,0.0,0.0,0.0,0.0,0.0,0.0,0.764918684959,-0.0980664938688,9.91452312469,0.0,0.0,0.0,0.0,0.0,0.0,0.0,0.0,0.0
1498460400,455107,1644543929986802340,1,0.0,0.0,0.0,0.0,0.0,0.0,0.0,0.0,0.0,0.0,0.0,0.0,0.0,0.0,0.0,0.0,0.0,0.0,0.0,0.0,0.0,0.0,0.0,0.0,0.0,0.804145276546,-0.0294199492782,9.96355628967,0.0,0.0,0.0,0.0,0.0,0.0,0.0,0.0,0.0
1500404800,455108,1644543929988814116,1,0.0,0.0,0.0,0.0,0.0,0.0,0.0,0.0,0.0,0.0,0.0,0.0,0.0,0.0,0.0,0.0,0.0,0.0,0.0,0.0,0.0,0.0,0.0,0.0,0.0,0.764918684959,-0.0392265990376,9.98316955566,0.0,0.0,0.0,0.0,0.0,0.0,0.0,0.0,0.0
1502389700,455109,1644543929990828037,1,0.0,0.0,0.0,0.0,0.0,0.0,0.0,0.0,0.0,0.0,0.0,0.0,0.0,0.0,0.0,0.0,0.0,0.0,0.0,0.0,0.0,0.0,0.0,0.0,0.0,0.774725317955,-0.0784531980753,9.96355628967,0.0,0.0,0.0,0.0,0.0,0.0,0.0,0.0,0.0
1504387100,455110,1644543929992841721,1,0.0,0.0,0.0,0.0,0.0,0.0,0.0,0.0,0.0,0.0,0.0,0.0,0.0,0.0,0.0,0.0,0.0,0.0,0.0,0.0,0.0,0.0,0.0,0.0,0.0,0.764918684959,-0.0784531980753,9.8949098587,0.0,0.0,0.0,0.0,0.0,0.0,0.0,0.0,0.0
1506482700,455111,1644543929994853735,1,0.0,0.0,0.0,0.0,0.0,0.0,0.0,0.0,0.0,0.0,0.0,0.0,0.0,0.0,0.0,0.0,0.0,0.0,0.0,0.0,0.0,0.0,0.0,0.0,0.0,0.774725317955,-0.0392265990376,9.86548995972,0.0,0.0,0.0,0.0,0.0,0.0,0.0,0.0,0.0
1508974700,455112,1644543929996867657,1,0.0,0.0,0.0,0.0,0.0,0.0,0.0,0.0,0.0,0.0,0.0,0.0,0.0,0.0,0.0,0.0,0.0,0.0,0.0,0.0,0.0,0.0,0.0,0.0,0.0,0.774725317955,-0.0392265990376,9.91452312469,0.0,0.0,0.0,0.0,0.0,0.0,0.0,0.0,0.0
1510737300,455113,1644543929998881578,1,0.0,0.0,0.0,0.0,0.0,0.0,0.0,0.0,0.0,0.0,0.0,0.0,0.0,0.0,0.0,0.0,0.0,0.0,0.0,0.0,0.0,0.0,0.0,0.0,0.0,0.764918684959,-0.0392265990376,9.96355628967,0.0,0.0,0.0,0.0,0.0,0.0,0.0,0.0,0.0
1512723500,455114,1644543930000893354,1,0.0,0.0,0.0,0.0,0.0,0.0,0.0,0.0,0.0,0.0,0.0,0.0,0.0,0.0,0.0,0.0,0.0,0.0,0.0,0.0,0.0,0.0,0.0,0.0,0.0,0.764918684959,-0.12748645246,9.91452312469,0.0,0.0,0.0,0.0,0.0,0.0,0.0,0.0,0.0
1514704200,455115,1644543930002907276,1,0.0,0.0,0.0,0.0,0.0,0.0,0.0,0.0,0.0,0.0,0.0,0.0,0.0,0.0,0.0,0.0,0.0,0.0,0.0,0.0,0.0,0.0,0.0,0.0,0.0,0.804145276546,-0.0980664938688,9.91452312469,0.0,0.0,0.0,0.0,0.0,0.0,0.0,0.0,0.0
1516876100,455116,1644543930004919291,1,0.0,0.0,0.0,0.0,0.0,0.0,0.0,0.0,0.0,0.0,0.0,0.0,0.0,0.0,0.0,0.0,0.0,0.0,0.0,0.0,0.0,0.0,0.0,0.0,0.0,0.774725317955,-0.0980664938688,9.8949098587,0.0,0.0,0.0,0.0,0.0,0.0,0.0,0.0,0.0
1518748000,455117,1644543930006933212,1,0.0,0.0,0.0,0.0,0.0,0.0,0.0,0.0,0.0,0.0,0.0,0.0,0.0,0.0,0.0,0.0,0.0,0.0,0.0,0.0,0.0,0.0,0.0,0.0,0.0,0.764918684959,-0.0686465501785,9.94394302368,0.0,0.0,0.0,0.0,0.0,0.0,0.0,0.0,0.0
1520812500,455118,1644543930008944988,1,0.0,0.0,0.0,0.0,0.0,0.0,0.0,0.0,0.0,0.0,0.0,0.0,0.0,0.0,0.0,0.0,0.0,0.0,0.0,0.0,0.0,0.0,0.0,0.0,0.0,0.774725317955,-0.0686465501785,9.98316955566,0.0,0.0,0.0,0.0,0.0,0.0,0.0,0.0,0.0
1522715600,455119,1644543930010958672,1,0.0,0.0,0.0,0.0,0.0,0.0,0.0,0.0,0.0,0.0,0.0,0.0,0.0,0.0,0.0,0.0,0.0,0.0,0.0,0.0,0.0,0.0,0.0,0.0,0.0,0.804145276546,-0.0784531980753,9.94394302368,0.0,0.0,0.0,0.0,0.0,0.0,0.0,0.0,0.0
1524775800,455120,1644543930012970686,1,0.0,0.0,0.0,0.0,0.0,0.0,0.0,0.0,0.0,0.0,0.0,0.0,0.0,0.0,0.0,0.0,0.0,0.0,0.0,0.0,0.0,0.0,0.0,0.0,0.0,0.774725317955,-0.12748645246,9.91452312469,0.0,0.0,0.0,0.0,0.0,0.0,0.0,0.0,0.0
1526750700,455121,1644543930014984608,1,0.0,0.0,0.0,0.0,0.0,0.0,0.0,0.0,0.0,0.0,0.0,0.0,0.0,0.0,0.0,0.0,0.0,0.0,0.0,0.0,0.0,0.0,0.0,0.0,0.0,0.735498726368,-0.0980664938688,9.94394302368,0.0,0.0,0.0,0.0,0.0,0.0,0.0,0.0,0.0
1528646300,455122,1644543930016998529,1,0.0,0.0,0.0,0.0,0.0,0.0,0.0,0.0,0.0,0.0,0.0,0.0,0.0,0.0,0.0,0.0,0.0,0.0,0.0,0.0,0.0,0.0,0.0,0.0,0.0,0.774725317955,-0.0980664938688,9.98316955566,0.0,0.0,0.0,0.0,0.0,0.0,0.0,0.0,0.0
1530703400,455123,1644543930019010544,1,0.0,0.0,0.0,0.0,0.0,0.0,0.0,0.0,0.0,0.0,0.0,0.0,0.0,0.0,0.0,0.0,0.0,0.0,0.0,0.0,0.0,0.0,0.0,0.0,0.0,0.774725317955,-0.0784531980753,9.86548995972,0.0,0.0,0.0,0.0,0.0,0.0,0.0,0.0,0.0
1532680000,455124,1644543930021024227,1,0.0,0.0,0.0,0.0,0.0,0.0,0.0,0.0,0.0,0.0,0.0,0.0,0.0,0.0,0.0,0.0,0.0,0.0,0.0,0.0,0.0,0.0,0.0,0.0,0.0,0.774725317955,-0.0980664938688,9.91452312469,0.0,0.0,0.0,0.0,0.0,0.0,0.0,0.0,0.0
1534648500,455125,1644543930023036242,1,0.0,0.0,0.0,0.0,0.0,0.0,0.0,0.0,0.0,0.0,0.0,0.0,0.0,0.0,0.0,0.0,0.0,0.0,0.0,0.0,0.0,0.0,0.0,0.0,0.0,0.804145276546,-0.0980664938688,9.8949098587,0.0,0.0,0.0,0.0,0.0,0.0,0.0,0.0,0.0
1536638600,455126,1644543930025050163,1,0.0,0.0,0.0,0.0,0.0,0.0,0.0,0.0,0.0,0.0,0.0,0.0,0.0,0.0,0.0,0.0,0.0,0.0,0.0,0.0,0.0,0.0,0.0,0.0,0.0,0.735498726368,-0.0980664938688,9.8949098587,0.0,0.0,0.0,0.0,0.0,0.0,0.0,0.0,0.0
1538716800,455127,1644543930027061939,1,0.0,0.0,0.0,0.0,0.0,0.0,0.0,0.0,0.0,0.0,0.0,0.0,0.0,0.0,0.0,0.0,0.0,0.0,0.0,0.0,0.0,0.0,0.0,0.0,0.0,0.804145276546,-0.0784531980753,9.91452312469,0.0,0.0,0.0,0.0,0.0,0.0,0.0,0.0,0.0
1540695200,455128,1644543930029076099,1,0.0,0.0,0.0,0.0,0.0,0.0,0.0,0.0,0.0,0.0,0.0,0.0,0.0,0.0,0.0,0.0,0.0,0.0,0.0,0.0,0.0,0.0,0.0,0.0,0.0,0.813951909542,-0.0686465501785,9.91452312469,0.0,0.0,0.0,0.0,0.0,0.0,0.0,0.0,0.0
1542684600,455129,1644543930031090260,1,0.0,0.0,0.0,0.0,0.0,0.0,0.0,0.0,0.0,0.0,0.0,0.0,0.0,0.0,0.0,0.0,0.0,0.0,0.0,0.0,0.0,0.0,0.0,0.0,0.0,0.813951909542,-0.0784531980753,9.91452312469,0.0,0.0,0.0,0.0,0.0,0.0,0.0,0.0,0.0
1544667600,455130,1644543930033102512,1,0.0,0.0,0.0,0.0,0.0,0.0,0.0,0.0,0.0,0.0,0.0,0.0,0.0,0.0,0.0,0.0,0.0,0.0,0.0,0.0,0.0,0.0,0.0,0.0,0.0,0.804145276546,-0.0980664938688,9.8949098587,0.0,0.0,0.0,0.0,0.0,0.0,0.0,0.0,0.0
1546775900,455131,1644543930035116673,1,0.0,0.0,0.0,0.0,0.0,0.0,0.0,0.0,0.0,0.0,0.0,0.0,0.0,0.0,0.0,0.0,0.0,0.0,0.0,0.0,0.0,0.0,0.0,0.0,0.0,0.804145276546,-0.0294199492782,9.8949098587,0.0,0.0,0.0,0.0,0.0,0.0,0.0,0.0,0.0
1549119700,455132,1644543930037130833,1,0.0,0.0,0.0,0.0,0.0,0.0,0.0,0.0,0.0,0.0,0.0,0.0,0.0,0.0,0.0,0.0,0.0,0.0,0.0,0.0,0.0,0.0,0.0,0.0,0.0,0.774725317955,-0.0294199492782,9.8949098587,0.0,0.0,0.0,0.0,0.0,0.0,0.0,0.0,0.0
1551007500,455133,1644543930039143085,1,0.0,0.0,0.0,0.0,0.0,0.0,0.0,0.0,0.0,0.0,0.0,0.0,0.0,0.0,0.0,0.0,0.0,0.0,0.0,0.0,0.0,0.0,0.0,0.0,0.0,0.804145276546,-0.0686465501785,9.91452312469,0.0,0.0,0.0,0.0,0.0,0.0,0.0,0.0,0.0
1552934200,455134,1644543930041157484,1,0.0,0.0,0.0,0.0,0.0,0.0,0.0,0.0,0.0,0.0,0.0,0.0,0.0,0.0,0.0,0.0,0.0,0.0,0.0,0.0,0.0,0.0,0.0,0.0,0.0,0.764918684959,-0.0980664938688,9.94394302368,0.0,0.0,0.0,0.0,0.0,0.0,0.0,0.0,0.0
1554979400,455135,1644543930043169737,1,0.0,0.0,0.0,0.0,0.0,0.0,0.0,0.0,0.0,0.0,0.0,0.0,0.0,0.0,0.0,0.0,0.0,0.0,0.0,0.0,0.0,0.0,0.0,0.0,0.0,0.774725317955,-0.0686465501785,9.88510322571,0.0,0.0,0.0,0.0,0.0,0.0,0.0,0.0,0.0
1557562300,455136,1644543930045183897,1,0.0,0.0,0.0,0.0,0.0,0.0,0.0,0.0,0.0,0.0,0.0,0.0,0.0,0.0,0.0,0.0,0.0,0.0,0.0,0.0,0.0,0.0,0.0,0.0,0.0,0.813951909542,-0.0686465501785,9.91452312469,0.0,0.0,0.0,0.0,0.0,0.0,0.0,0.0,0.0
1559308400,455137,1644543930047198057,1,0.0,0.0,0.0,0.0,0.0,0.0,0.0,0.0,0.0,0.0,0.0,0.0,0.0,0.0,0.0,0.0,0.0,0.0,0.0,0.0,0.0,0.0,0.0,0.0,0.0,0.764918684959,-0.0784531980753,9.91452312469,0.0,0.0,0.0,0.0,0.0,0.0,0.0,0.0,0.0
1560941600,455138,1644543930049210310,1,0.0,0.0,0.0,0.0,0.0,0.0,0.0,0.0,0.0,0.0,0.0,0.0,0.0,0.0,0.0,0.0,0.0,0.0,0.0,0.0,0.0,0.0,0.0,0.0,0.0,0.764918684959,-0.0784531980753,9.94394302368,0.0,0.0,0.0,0.0,0.0,0.0,0.0,0.0,0.0
1563169600,455139,1644543930051224470,1,0.0,0.0,0.0,0.0,0.0,0.0,0.0,0.0,0.0,0.0,0.0,0.0,0.0,0.0,0.0,0.0,0.0,0.0,0.0,0.0,0.0,0.0,0.0,0.0,0.0,0.764918684959,-0.0686465501785,9.91452312469,0.0,0.0,0.0,0.0,0.0,0.0,0.0,0.0,0.0
1565205000,455140,1644543930053236485,1,0.0,0.0,0.0,0.0,0.0,0.0,0.0,0.0,0.0,0.0,0.0,0.0,0.0,0.0,0.0,0.0,0.0,0.0,0.0,0.0,0.0,0.0,0.0,0.0,0.0,0.804145276546,-0.0686465501785,9.8949098587,0.0,0.0,0.0,0.0,0.0,0.0,0.0,0.0,0.0
1567197900,455141,1644543930055250645,1,0.0,0.0,0.0,0.0,0.0,0.0,0.0,0.0,0.0,0.0,0.0,0.0,0.0,0.0,0.0,0.0,0.0,0.0,0.0,0.0,0.0,0.0,0.0,0.0,0.0,0.804145276546,-0.0980664938688,9.91452312469,0.0,0.0,0.0,0.0,0.0,0.0,0.0,0.0,0.0
1569163500,455142,1644543930057265043,1,0.0,0.0,0.0,0.0,0.0,0.0,0.0,0.0,0.0,0.0,0.0,0.0,0.0,0.0,0.0,0.0,0.0,0.0,0.0,0.0,0.0,0.0,0.0,0.0,0.0,0.804145276546,-0.0392265990376,9.88510322571,0.0,0.0,0.0,0.0,0.0,0.0,0.0,0.0,0.0
1571184200,455143,1644543930059277296,1,0.0,0.0,0.0,0.0,0.0,0.0,0.0,0.0,0.0,0.0,0.0,0.0,0.0,0.0,0.0,0.0,0.0,0.0,0.0,0.0,0.0,0.0,0.0,0.0,0.0,0.833565235138,-0.0392265990376,9.96355628967,0.0,0.0,0.0,0.0,0.0,0.0,0.0,0.0,0.0
1573204700,455144,1644543930061291456,1,0.0,0.0,0.0,0.0,0.0,0.0,0.0,0.0,0.0,0.0,0.0,0.0,0.0,0.0,0.0,0.0,0.0,0.0,0.0,0.0,0.0,0.0,0.0,0.0,0.0,0.774725317955,-0.0686465501785,9.96355628967,0.0,0.0,0.0,0.0,0.0,0.0,0.0,0.0,0.0
1575179700,455145,1644543930063305616,1,0.0,0.0,0.0,0.0,0.0,0.0,0.0,0.0,0.0,0.0,0.0,0.0,0.0,0.0,0.0,0.0,0.0,0.0,0.0,0.0,0.0,0.0,0.0,0.0,0.0,0.774725317955,-0.0784531980753,9.83607006073,0.0,0.0,0.0,0.0,0.0,0.0,0.0,0.0,0.0
1577222800,455146,1644543930065319777,1,0.0,0.0,0.0,0.0,0.0,0.0,0.0,0.0,0.0,0.0,0.0,0.0,0.0,0.0,0.0,0.0,0.0,0.0,0.0,0.0,0.0,0.0,0.0,0.0,0.0,0.774725317955,-0.0686465501785,9.91452312469,0.0,0.0,0.0,0.0,0.0,0.0,0.0,0.0,0.0
1579240100,455147,1644543930067332029,1,0.0,0.0,0.0,0.0,0.0,0.0,0.0,0.0,0.0,0.0,0.0,0.0,0.0,0.0,0.0,0.0,0.0,0.0,0.0,0.0,0.0,0.0,0.0,0.0,0.0,0.735498726368,-0.0686465501785,9.88510322571,0.0,0.0,0.0,0.0,0.0,0.0,0.0,0.0,0.0
1581409700,455148,1644543930069346189,1,0.0,0.0,0.0,0.0,0.0,0.0,0.0,0.0,0.0,0.0,0.0,0.0,0.0,0.0,0.0,0.0,0.0,0.0,0.0,0.0,0.0,0.0,0.0,0.0,0.0,0.764918684959,-0.0686465501785,9.83607006073,0.0,0.0,0.0,0.0,0.0,0.0,0.0,0.0,0.0
1583270200,455149,1644543930071360588,1,0.0,0.0,0.0,0.0,0.0,0.0,0.0,0.0,0.0,0.0,0.0,0.0,0.0,0.0,0.0,0.0,0.0,0.0,0.0,0.0,0.0,0.0,0.0,0.0,0.0,0.804145276546,-0.0784531980753,9.8949098587,0.0,0.0,0.0,0.0,0.0,0.0,0.0,0.0,0.0
1585295200,455150,1644543930073372841,1,0.0,0.0,0.0,0.0,0.0,0.0,0.0,0.0,0.0,0.0,0.0,0.0,0.0,0.0,0.0,0.0,0.0,0.0,0.0,0.0,0.0,0.0,0.0,0.0,0.0,0.804145276546,-0.0784531980753,9.88510322571,0.0,0.0,0.0,0.0,0.0,0.0,0.0,0.0,0.0
1588160600,455151,1644543930075387001,1,0.0,0.0,0.0,0.0,0.0,0.0,0.0,0.0,0.0,0.0,0.0,0.0,0.0,0.0,0.0,0.0,0.0,0.0,0.0,0.0,0.0,0.0,0.0,0.0,0.0,0.804145276546,-0.0980664938688,9.88510322571,0.0,0.0,0.0,0.0,0.0,0.0,0.0,0.0,0.0
1589210600,455152,1644543930077401400,1,0.0,0.0,0.0,0.0,0.0,0.0,0.0,0.0,0.0,0.0,0.0,0.0,0.0,0.0,0.0,0.0,0.0,0.0,0.0,0.0,0.0,0.0,0.0,0.0,0.0,0.774725317955,-0.0392265990376,9.8949098587,0.0,0.0,0.0,0.0,0.0,0.0,0.0,0.0,0.0
1591265800,455153,1644543930079413652,1,0.0,0.0,0.0,0.0,0.0,0.0,0.0,0.0,0.0,0.0,0.0,0.0,0.0,0.0,0.0,0.0,0.0,0.0,0.0,0.0,0.0,0.0,0.0,0.0,0.0,0.774725317955,-0.0686465501785,9.8949098587,0.0,0.0,0.0,0.0,0.0,0.0,0.0,0.0,0.0
1593150500,455154,1644543930081427813,1,0.0,0.0,0.0,0.0,0.0,0.0,0.0,0.0,0.0,0.0,0.0,0.0,0.0,0.0,0.0,0.0,0.0,0.0,0.0,0.0,0.0,0.0,0.0,0.0,0.0,0.813951909542,-0.0980664938688,9.94394302368,0.0,0.0,0.0,0.0,0.0,0.0,0.0,0.0,0.0
1595137500,455155,1644543930083442211,1,0.0,0.0,0.0,0.0,0.0,0.0,0.0,0.0,0.0,0.0,0.0,0.0,0.0,0.0,0.0,0.0,0.0,0.0,0.0,0.0,0.0,0.0,0.0,0.0,0.0,0.833565235138,-0.0392265990376,9.8949098587,0.0,0.0,0.0,0.0,0.0,0.0,0.0,0.0,0.0
1597187600,455156,1644543930085454464,1,0.0,0.0,0.0,0.0,0.0,0.0,0.0,0.0,0.0,0.0,0.0,0.0,0.0,0.0,0.0,0.0,0.0,0.0,0.0,0.0,0.0,0.0,0.0,0.0,0.0,0.764918684959,-0.0294199492782,9.88510322571,0.0,0.0,0.0,0.0,0.0,0.0,0.0,0.0,0.0
1599157900,455157,1644543930087468624,1,0.0,0.0,0.0,0.0,0.0,0.0,0.0,0.0,0.0,0.0,0.0,0.0,0.0,0.0,0.0,0.0,0.0,0.0,0.0,0.0,0.0,0.0,0.0,0.0,0.0,0.804145276546,-0.0784531980753,9.96355628967,0.0,0.0,0.0,0.0,0.0,0.0,0.0,0.0,0.0
1601253000,455158,1644543930089483023,1,0.0,0.0,0.0,0.0,0.0,0.0,0.0,0.0,0.0,0.0,0.0,0.0,0.0,0.0,0.0,0.0,0.0,0.0,0.0,0.0,0.0,0.0,0.0,0.0,0.0,0.804145276546,-0.0686465501785,9.8949098587,0.0,0.0,0.0,0.0,0.0,0.0,0.0,0.0,0.0
1603237900,455159,1644543930091495037,1,0.0,0.0,0.0,0.0,0.0,0.0,0.0,0.0,0.0,0.0,0.0,0.0,0.0,0.0,0.0,0.0,0.0,0.0,0.0,0.0,0.0,0.0,0.0,0.0,0.0,0.774725317955,-0.0784531980753,9.98316955566,0.0,0.0,0.0,0.0,0.0,0.0,0.0,0.0,0.0
1605138700,455160,1644543930093509197,1,0.0,0.0,0.0,0.0,0.0,0.0,0.0,0.0,0.0,0.0,0.0,0.0,0.0,0.0,0.0,0.0,0.0,0.0,0.0,0.0,0.0,0.0,0.0,0.0,0.0,0.804145276546,-0.0784531980753,9.8949098587,0.0,0.0,0.0,0.0,0.0,0.0,0.0,0.0,0.0
1607138000,455161,1644543930095523357,1,0.0,0.0,0.0,0.0,0.0,0.0,0.0,0.0,0.0,0.0,0.0,0.0,0.0,0.0,0.0,0.0,0.0,0.0,0.0,0.0,0.0,0.0,0.0,0.0,0.0,0.764918684959,-0.0294199492782,9.86548995972,0.0,0.0,0.0,0.0,0.0,0.0,0.0,0.0,0.0
1609130500,455162,1644543930097537756,1,0.0,0.0,0.0,0.0,0.0,0.0,0.0,0.0,0.0,0.0,0.0,0.0,0.0,0.0,0.0,0.0,0.0,0.0,0.0,0.0,0.0,0.0,0.0,0.0,0.0,0.764918684959,-0.0980664938688,9.88510322571,0.0,0.0,0.0,0.0,0.0,0.0,0.0,0.0,0.0
1611387300,455163,1644543930099550009,1,0.0,0.0,0.0,0.0,0.0,0.0,0.0,0.0,0.0,0.0,0.0,0.0,0.0,0.0,0.0,0.0,0.0,0.0,0.0,0.0,0.0,0.0,0.0,0.0,0.0,0.774725317955,-0.0392265990376,9.8949098587,0.0,0.0,0.0,0.0,0.0,0.0,0.0,0.0,0.0
1613675500,455164,1644543930101564169,1,0.0,0.0,0.0,0.0,0.0,0.0,0.0,0.0,0.0,0.0,0.0,0.0,0.0,0.0,0.0,0.0,0.0,0.0,0.0,0.0,0.0,0.0,0.0,0.0,0.0,0.774725317955,-0.0392265990376,9.94394302368,0.0,0.0,0.0,0.0,0.0,0.0,0.0,0.0,0.0
1615382500,455165,1644543930103578568,1,0.0,0.0,0.0,0.0,0.0,0.0,0.0,0.0,0.0,0.0,0.0,0.0,0.0,0.0,0.0,0.0,0.0,0.0,0.0,0.0,0.0,0.0,0.0,0.0,0.0,0.804145276546,-0.0294199492782,9.96355628967,0.0,0.0,0.0,0.0,0.0,0.0,0.0,0.0,0.0
1617624700,455166,1644543930105590820,1,0.0,0.0,0.0,0.0,0.0,0.0,0.0,0.0,0.0,0.0,0.0,0.0,0.0,0.0,0.0,0.0,0.0,0.0,0.0,0.0,0.0,0.0,0.0,0.0,0.0,0.774725317955,-0.0294199492782,9.96355628967,0.0,0.0,0.0,0.0,0.0,0.0,0.0,0.0,0.0
1619480600,455167,1644543930107604980,1,0.0,0.0,0.0,0.0,0.0,0.0,0.0,0.0,0.0,0.0,0.0,0.0,0.0,0.0,0.0,0.0,0.0,0.0,0.0,0.0,0.0,0.0,0.0,0.0,0.0,0.872791826725,-0.0980664938688,9.96355628967,0.0,0.0,0.0,0.0,0.0,0.0,0.0,0.0,0.0
1621628800,455168,1644543930109619379,1,0.0,0.0,0.0,0.0,0.0,0.0,0.0,0.0,0.0,0.0,0.0,0.0,0.0,0.0,0.0,0.0,0.0,0.0,0.0,0.0,0.0,0.0,0.0,0.0,0.0,0.774725317955,-0.0686465501785,9.91452312469,0.0,0.0,0.0,0.0,0.0,0.0,0.0,0.0,0.0
1623241100,455169,1644543930111633539,1,0.0,0.0,0.0,0.0,0.0,0.0,0.0,0.0,0.0,0.0,0.0,0.0,0.0,0.0,0.0,0.0,0.0,0.0,0.0,0.0,0.0,0.0,0.0,0.0,0.0,0.804145276546,-0.0686465501785,9.94394302368,0.0,0.0,0.0,0.0,0.0,0.0,0.0,0.0,0.0
1625391100,455170,1644543930113645792,1,0.0,0.0,0.0,0.0,0.0,0.0,0.0,0.0,0.0,0.0,0.0,0.0,0.0,0.0,0.0,0.0,0.0,0.0,0.0,0.0,0.0,0.0,0.0,0.0,0.0,0.804145276546,-0.0392265990376,9.94394302368,0.0,0.0,0.0,0.0,0.0,0.0,0.0,0.0,0.0
1627405900,455171,1644543930115660191,1,0.0,0.0,0.0,0.0,0.0,0.0,0.0,0.0,0.0,0.0,0.0,0.0,0.0,0.0,0.0,0.0,0.0,0.0,0.0,0.0,0.0,0.0,0.0,0.0,0.0,0.813951909542,-0.0784531980753,9.96355628967,0.0,0.0,0.0,0.0,0.0,0.0,0.0,0.0,0.0
1629381500,455172,1644543930117672443,1,0.0,0.0,0.0,0.0,0.0,0.0,0.0,0.0,0.0,0.0,0.0,0.0,0.0,0.0,0.0,0.0,0.0,0.0,0.0,0.0,0.0,0.0,0.0,0.0,0.0,0.813951909542,-0.0686465501785,9.94394302368,0.0,0.0,0.0,0.0,0.0,0.0,0.0,0.0,0.0
1631480600,455173,1644543930119686604,1,0.0,0.0,0.0,0.0,0.0,0.0,0.0,0.0,0.0,0.0,0.0,0.0,0.0,0.0,0.0,0.0,0.0,0.0,0.0,0.0,0.0,0.0,0.0,0.0,0.0,0.833565235138,-0.0686465501785,9.83607006073,0.0,0.0,0.0,0.0,0.0,0.0,0.0,0.0,0.0
1633380800,455174,1644543930121700764,1,0.0,0.0,0.0,0.0,0.0,0.0,0.0,0.0,0.0,0.0,0.0,0.0,0.0,0.0,0.0,0.0,0.0,0.0,0.0,0.0,0.0,0.0,0.0,0.0,0.0,0.804145276546,-0.0686465501785,9.88510322571,0.0,0.0,0.0,0.0,0.0,0.0,0.0,0.0,0.0
1635455300,455175,1644543930123713017,1,0.0,0.0,0.0,0.0,0.0,0.0,0.0,0.0,0.0,0.0,0.0,0.0,0.0,0.0,0.0,0.0,0.0,0.0,0.0,0.0,0.0,0.0,0.0,0.0,0.0,0.804145276546,-0.0784531980753,9.86548995972,0.0,0.0,0.0,0.0,0.0,0.0,0.0,0.0,0.0
1637416700,455176,1644543930125727177,1,0.0,0.0,0.0,0.0,0.0,0.0,0.0,0.0,0.0,0.0,0.0,0.0,0.0,0.0,0.0,0.0,0.0,0.0,0.0,0.0,0.0,0.0,0.0,0.0,0.0,0.804145276546,-0.0686465501785,9.94394302368,0.0,0.0,0.0,0.0,0.0,0.0,0.0,0.0,0.0
1639443800,455177,1644543930127741337,1,0.0,0.0,0.0,0.0,0.0,0.0,0.0,0.0,0.0,0.0,0.0,0.0,0.0,0.0,0.0,0.0,0.0,0.0,0.0,0.0,0.0,0.0,0.0,0.0,0.0,0.804145276546,-0.0784531980753,9.94394302368,0.0,0.0,0.0,0.0,0.0,0.0,0.0,0.0,0.0
1641429300,455178,1644543930129753828,1,0.0,0.0,0.0,0.0,0.0,0.0,0.0,0.0,0.0,0.0,0.0,0.0,0.0,0.0,0.0,0.0,0.0,0.0,0.0,0.0,0.0,0.0,0.0,0.0,0.0,0.764918684959,-0.0686465501785,9.88510322571,0.0,0.0,0.0,0.0,0.0,0.0,0.0,0.0,0.0
1643440800,455179,1644543930131767988,1,0.0,0.0,0.0,0.0,0.0,0.0,0.0,0.0,0.0,0.0,0.0,0.0,0.0,0.0,0.0,0.0,0.0,0.0,0.0,0.0,0.0,0.0,0.0,0.0,0.0,0.764918684959,-0.0686465501785,9.91452312469,0.0,0.0,0.0,0.0,0.0,0.0,0.0,0.0,0.0
1645427700,455180,1644543930133782148,1,0.0,0.0,0.0,0.0,0.0,0.0,0.0,0.0,0.0,0.0,0.0,0.0,0.0,0.0,0.0,0.0,0.0,0.0,0.0,0.0,0.0,0.0,0.0,0.0,0.0,0.804145276546,-0.0784531980753,9.8949098587,0.0,0.0,0.0,0.0,0.0,0.0,0.0,0.0,0.0
1647676600,455181,1644543930135794401,1,0.0,0.0,0.0,0.0,0.0,0.0,0.0,0.0,0.0,0.0,0.0,0.0,0.0,0.0,0.0,0.0,0.0,0.0,0.0,0.0,0.0,0.0,0.0,0.0,0.0,0.764918684959,-0.0392265990376,9.94394302368,0.0,0.0,0.0,0.0,0.0,0.0,0.0,0.0,0.0
1649791000,455182,1644543930137808800,1,0.0,0.0,0.0,0.0,0.0,0.0,0.0,0.0,0.0,0.0,0.0,0.0,0.0,0.0,0.0,0.0,0.0,0.0,0.0,0.0,0.0,0.0,0.0,0.0,0.0,0.735498726368,-0.0294199492782,9.91452312469,0.0,0.0,0.0,0.0,0.0,0.0,0.0,0.0,0.0
1651437800,455183,1644543930139821053,1,0.0,0.0,0.0,0.0,0.0,0.0,0.0,0.0,0.0,0.0,0.0,0.0,0.0,0.0,0.0,0.0,0.0,0.0,0.0,0.0,0.0,0.0,0.0,0.0,0.0,0.804145276546,-0.00980664975941,9.96355628967,0.0,0.0,0.0,0.0,0.0,0.0,0.0,0.0,0.0
1653394400,455184,1644543930141835213,1,0.0,0.0,0.0,0.0,0.0,0.0,0.0,0.0,0.0,0.0,0.0,0.0,0.0,0.0,0.0,0.0,0.0,0.0,0.0,0.0,0.0,0.0,0.0,0.0,0.0,0.804145276546,-0.0294199492782,9.91452312469,0.0,0.0,0.0,0.0,0.0,0.0,0.0,0.0,0.0
1655383500,455185,1644543930143849611,1,0.0,0.0,0.0,0.0,0.0,0.0,0.0,0.0,0.0,0.0,0.0,0.0,0.0,0.0,0.0,0.0,0.0,0.0,0.0,0.0,0.0,0.0,0.0,0.0,0.0,0.764918684959,-0.0686465501785,9.96355628967,0.0,0.0,0.0,0.0,0.0,0.0,0.0,0.0,0.0
1657411500,455186,1644543930145861864,1,0.0,0.0,0.0,0.0,0.0,0.0,0.0,0.0,0.0,0.0,0.0,0.0,0.0,0.0,0.0,0.0,0.0,0.0,0.0,0.0,0.0,0.0,0.0,0.0,0.0,0.764918684959,-0.00980664975941,9.96355628967,0.0,0.0,0.0,0.0,0.0,0.0,0.0,0.0,0.0
1659390600,455187,1644543930147876024,1,0.0,0.0,0.0,0.0,0.0,0.0,0.0,0.0,0.0,0.0,0.0,0.0,0.0,0.0,0.0,0.0,0.0,0.0,0.0,0.0,0.0,0.0,0.0,0.0,0.0,0.774725317955,0.0,9.94394302368,0.0,0.0,0.0,0.0,0.0,0.0,0.0,0.0,0.0
1661416700,455188,1644543930149890423,1,0.0,0.0,0.0,0.0,0.0,0.0,0.0,0.0,0.0,0.0,0.0,0.0,0.0,0.0,0.0,0.0,0.0,0.0,0.0,0.0,0.0,0.0,0.0,0.0,0.0,0.813951909542,-0.0294199492782,9.91452312469,0.0,0.0,0.0,0.0,0.0,0.0,0.0,0.0,0.0
1664052900,455189,1644543930151904583,1,0.0,0.0,0.0,0.0,0.0,0.0,0.0,0.0,0.0,0.0,0.0,0.0,0.0,0.0,0.0,0.0,0.0,0.0,0.0,0.0,0.0,0.0,0.0,0.0,0.0,0.774725317955,-0.0294199492782,9.94394302368,0.0,0.0,0.0,0.0,0.0,0.0,0.0,0.0,0.0
1665932400,455190,1644543930153916836,1,0.0,0.0,0.0,0.0,0.0,0.0,0.0,0.0,0.0,0.0,0.0,0.0,0.0,0.0,0.0,0.0,0.0,0.0,0.0,0.0,0.0,0.0,0.0,0.0,0.0,0.764918684959,-0.0294199492782,9.88510322571,0.0,0.0,0.0,0.0,0.0,0.0,0.0,0.0,0.0
1667642000,455191,1644543930155928850,1,0.0,0.0,0.0,0.0,0.0,0.0,0.0,0.0,0.0,0.0,0.0,0.0,0.0,0.0,0.0,0.0,0.0,0.0,0.0,0.0,0.0,0.0,0.0,0.0,0.0,0.764918684959,0.00980664975941,9.94394302368,0.0,0.0,0.0,0.0,0.0,0.0,0.0,0.0,0.0
1669638600,455192,1644543930157943249,1,0.0,0.0,0.0,0.0,0.0,0.0,0.0,0.0,0.0,0.0,0.0,0.0,0.0,0.0,0.0,0.0,0.0,0.0,0.0,0.0,0.0,0.0,0.0,0.0,0.0,0.764918684959,0.0,9.96355628967,0.0,0.0,0.0,0.0,0.0,0.0,0.0,0.0,0.0
1671652300,455193,1644543930159957409,1,0.0,0.0,0.0,0.0,0.0,0.0,0.0,0.0,0.0,0.0,0.0,0.0,0.0,0.0,0.0,0.0,0.0,0.0,0.0,0.0,0.0,0.0,0.0,0.0,0.0,0.764918684959,0.0,9.96355628967,0.0,0.0,0.0,0.0,0.0,0.0,0.0,0.0,0.0
1673602600,455194,1644543930161973953,1,0.0,0.0,0.0,0.0,0.0,0.0,0.0,0.0,0.0,0.0,0.0,0.0,0.0,0.0,0.0,0.0,0.0,0.0,0.0,0.0,0.0,0.0,0.0,0.0,0.0,0.804145276546,-0.0392265990376,9.94394302368,0.0,0.0,0.0,0.0,0.0,0.0,0.0,0.0,0.0
1675881200,455195,1644543930163985968,1,0.0,0.0,0.0,0.0,0.0,0.0,0.0,0.0,0.0,0.0,0.0,0.0,0.0,0.0,0.0,0.0,0.0,0.0,0.0,0.0,0.0,0.0,0.0,0.0,0.0,0.764918684959,-0.0686465501785,9.91452312469,0.0,0.0,0.0,0.0,0.0,0.0,0.0,0.0,0.0
1678023000,455196,1644543930166000128,1,0.0,0.0,0.0,0.0,0.0,0.0,0.0,0.0,0.0,0.0,0.0,0.0,0.0,0.0,0.0,0.0,0.0,0.0,0.0,0.0,0.0,0.0,0.0,0.0,0.0,0.725692093372,-0.0294199492782,9.8949098587,0.0,0.0,0.0,0.0,0.0,0.0,0.0,0.0,0.0
1680216000,455197,1644543930168014765,1,0.0,0.0,0.0,0.0,0.0,0.0,0.0,0.0,0.0,0.0,0.0,0.0,0.0,0.0,0.0,0.0,0.0,0.0,0.0,0.0,0.0,0.0,0.0,0.0,0.0,0.774725317955,-0.0392265990376,9.96355628967,0.0,0.0,0.0,0.0,0.0,0.0,0.0,0.0,0.0
1681928500,455198,1644543930170026779,1,0.0,0.0,0.0,0.0,0.0,0.0,0.0,0.0,0.0,0.0,0.0,0.0,0.0,0.0,0.0,0.0,0.0,0.0,0.0,0.0,0.0,0.0,0.0,0.0,0.0,0.725692093372,-0.00980664975941,9.99297618866,0.0,0.0,0.0,0.0,0.0,0.0,0.0,0.0,0.0
1683603100,455199,1644543930172040939,1,0.0,0.0,0.0,0.0,0.0,0.0,0.0,0.0,0.0,0.0,0.0,0.0,0.0,0.0,0.0,0.0,0.0,0.0,0.0,0.0,0.0,0.0,0.0,0.0,0.0,0.804145276546,0.0,9.98316955566,0.0,0.0,0.0,0.0,0.0,0.0,0.0,0.0,0.0
1685917600,455200,1644543930174055338,1,0.0,0.0,0.0,0.0,0.0,0.0,0.0,0.0,0.0,0.0,0.0,0.0,0.0,0.0,0.0,0.0,0.0,0.0,0.0,0.0,0.0,0.0,0.0,0.0,0.0,0.774725317955,-0.0686465501785,9.91452312469,0.0,0.0,0.0,0.0,0.0,0.0,0.0,0.0,0.0
1687913800,455201,1644543930176069498,1,0.0,0.0,0.0,0.0,0.0,0.0,0.0,0.0,0.0,0.0,0.0,0.0,0.0,0.0,0.0,0.0,0.0,0.0,0.0,0.0,0.0,0.0,0.0,0.0,0.0,0.774725317955,-0.0392265990376,9.91452312469,0.0,0.0,0.0,0.0,0.0,0.0,0.0,0.0,0.0
1689973500,455202,1644543930178083658,1,0.0,0.0,0.0,0.0,0.0,0.0,0.0,0.0,0.0,0.0,0.0,0.0,0.0,0.0,0.0,0.0,0.0,0.0,0.0,0.0,0.0,0.0,0.0,0.0,0.0,0.813951909542,-0.0392265990376,9.91452312469,0.0,0.0,0.0,0.0,0.0,0.0,0.0,0.0,0.0
1691912000,455203,1644543930180098057,1,0.0,0.0,0.0,0.0,0.0,0.0,0.0,0.0,0.0,0.0,0.0,0.0,0.0,0.0,0.0,0.0,0.0,0.0,0.0,0.0,0.0,0.0,0.0,0.0,0.0,0.774725317955,-0.12748645246,9.88510322571,0.0,0.0,0.0,0.0,0.0,0.0,0.0,0.0,0.0
1694237700,455204,1644543930182110310,1,0.0,0.0,0.0,0.0,0.0,0.0,0.0,0.0,0.0,0.0,0.0,0.0,0.0,0.0,0.0,0.0,0.0,0.0,0.0,0.0,0.0,0.0,0.0,0.0,0.0,0.804145276546,-0.00980664975941,9.96355628967,0.0,0.0,0.0,0.0,0.0,0.0,0.0,0.0,0.0
1696368500,455205,1644543930184124470,1,0.0,0.0,0.0,0.0,0.0,0.0,0.0,0.0,0.0,0.0,0.0,0.0,0.0,0.0,0.0,0.0,0.0,0.0,0.0,0.0,0.0,0.0,0.0,0.0,0.0,0.833565235138,-0.0392265990376,9.91452312469,0.0,0.0,0.0,0.0,0.0,0.0,0.0,0.0,0.0
1698141800,455206,1644543930186138868,1,0.0,0.0,0.0,0.0,0.0,0.0,0.0,0.0,0.0,0.0,0.0,0.0,0.0,0.0,0.0,0.0,0.0,0.0,0.0,0.0,0.0,0.0,0.0,0.0,0.0,0.833565235138,-0.0392265990376,9.94394302368,0.0,0.0,0.0,0.0,0.0,0.0,0.0,0.0,0.0
1699967800,455207,1644543930188151121,1,0.0,0.0,0.0,0.0,0.0,0.0,0.0,0.0,0.0,0.0,0.0,0.0,0.0,0.0,0.0,0.0,0.0,0.0,0.0,0.0,0.0,0.0,0.0,0.0,0.0,0.804145276546,-0.0294199492782,9.91452312469,0.0,0.0,0.0,0.0,0.0,0.0,0.0,0.0,0.0
1701916700,455208,1644543930190165281,1,0.0,0.0,0.0,0.0,0.0,0.0,0.0,0.0,0.0,0.0,0.0,0.0,0.0,0.0,0.0,0.0,0.0,0.0,0.0,0.0,0.0,0.0,0.0,0.0,0.0,0.813951909542,-0.0686465501785,9.96355628967,0.0,0.0,0.0,0.0,0.0,0.0,0.0,0.0,0.0
1703978200,455209,1644543930192177534,1,0.0,0.0,0.0,0.0,0.0,0.0,0.0,0.0,0.0,0.0,0.0,0.0,0.0,0.0,0.0,0.0,0.0,0.0,0.0,0.0,0.0,0.0,0.0,0.0,0.0,0.833565235138,-0.00980664975941,9.96355628967,0.0,0.0,0.0,0.0,0.0,0.0,0.0,0.0,0.0
1705999100,455210,1644543930194191933,1,0.0,0.0,0.0,0.0,0.0,0.0,0.0,0.0,0.0,0.0,0.0,0.0,0.0,0.0,0.0,0.0,0.0,0.0,0.0,0.0,0.0,0.0,0.0,0.0,0.0,0.813951909542,-0.0686465501785,9.91452312469,0.0,0.0,0.0,0.0,0.0,0.0,0.0,0.0,0.0
1707980600,455211,1644543930196206093,1,0.0,0.0,0.0,0.0,0.0,0.0,0.0,0.0,0.0,0.0,0.0,0.0,0.0,0.0,0.0,0.0,0.0,0.0,0.0,0.0,0.0,0.0,0.0,0.0,0.0,0.804145276546,-0.0392265990376,9.91452312469,0.0,0.0,0.0,0.0,0.0,0.0,0.0,0.0,0.0
1710067400,455212,1644543930198220253,1,0.0,0.0,0.0,0.0,0.0,0.0,0.0,0.0,0.0,0.0,0.0,0.0,0.0,0.0,0.0,0.0,0.0,0.0,0.0,0.0,0.0,0.0,0.0,0.0,0.0,0.774725317955,-0.0686465501785,9.91452312469,0.0,0.0,0.0,0.0,0.0,0.0,0.0,0.0,0.0
1711929600,455213,1644543930200232506,1,0.0,0.0,0.0,0.0,0.0,0.0,0.0,0.0,0.0,0.0,0.0,0.0,0.0,0.0,0.0,0.0,0.0,0.0,0.0,0.0,0.0,0.0,0.0,0.0,0.0,0.804145276546,-0.0686465501785,9.8949098587,0.0,0.0,0.0,0.0,0.0,0.0,0.0,0.0,0.0
1713991300,455214,1644543930202246904,1,0.0,0.0,0.0,0.0,0.0,0.0,0.0,0.0,0.0,0.0,0.0,0.0,0.0,0.0,0.0,0.0,0.0,0.0,0.0,0.0,0.0,0.0,0.0,0.0,0.0,0.804145276546,-0.0392265990376,9.88510322571,0.0,0.0,0.0,0.0,0.0,0.0,0.0,0.0,0.0
1715920900,455215,1644543930204261065,1,0.0,0.0,0.0,0.0,0.0,0.0,0.0,0.0,0.0,0.0,0.0,0.0,0.0,0.0,0.0,0.0,0.0,0.0,0.0,0.0,0.0,0.0,0.0,0.0,0.0,0.804145276546,-0.0294199492782,9.96355628967,0.0,0.0,0.0,0.0,0.0,0.0,0.0,0.0,0.0
1717949900,455216,1644543930206273079,1,0.0,0.0,0.0,0.0,0.0,0.0,0.0,0.0,0.0,0.0,0.0,0.0,0.0,0.0,0.0,0.0,0.0,0.0,0.0,0.0,0.0,0.0,0.0,0.0,0.0,0.774725317955,-0.0686465501785,9.91452312469,0.0,0.0,0.0,0.0,0.0,0.0,0.0,0.0,0.0
1720020000,455217,1644543930208287716,1,0.0,0.0,0.0,0.0,0.0,0.0,0.0,0.0,0.0,0.0,0.0,0.0,0.0,0.0,0.0,0.0,0.0,0.0,0.0,0.0,0.0,0.0,0.0,0.0,0.0,0.735498726368,-0.0686465501785,9.91452312469,0.0,0.0,0.0,0.0,0.0,0.0,0.0,0.0,0.0
1722181700,455218,1644543930210299730,1,0.0,0.0,0.0,0.0,0.0,0.0,0.0,0.0,0.0,0.0,0.0,0.0,0.0,0.0,0.0,0.0,0.0,0.0,0.0,0.0,0.0,0.0,0.0,0.0,0.0,0.813951909542,-0.0686465501785,9.94394302368,0.0,0.0,0.0,0.0,0.0,0.0,0.0,0.0,0.0
1724335400,455219,1644543930212313890,1,0.0,0.0,0.0,0.0,0.0,0.0,0.0,0.0,0.0,0.0,0.0,0.0,0.0,0.0,0.0,0.0,0.0,0.0,0.0,0.0,0.0,0.0,0.0,0.0,0.0,0.804145276546,-0.0784531980753,9.91452312469,0.0,0.0,0.0,0.0,0.0,0.0,0.0,0.0,0.0
1726105200,455220,1644543930214328289,1,0.0,0.0,0.0,0.0,0.0,0.0,0.0,0.0,0.0,0.0,0.0,0.0,0.0,0.0,0.0,0.0,0.0,0.0,0.0,0.0,0.0,0.0,0.0,0.0,0.0,0.774725317955,-0.0784531980753,9.86548995972,0.0,0.0,0.0,0.0,0.0,0.0,0.0,0.0,0.0
1728001200,455221,1644543930216340542,1,0.0,0.0,0.0,0.0,0.0,0.0,0.0,0.0,0.0,0.0,0.0,0.0,0.0,0.0,0.0,0.0,0.0,0.0,0.0,0.0,0.0,0.0,0.0,0.0,0.0,0.774725317955,-0.0686465501785,9.91452312469,0.0,0.0,0.0,0.0,0.0,0.0,0.0,0.0,0.0
1730237700,455222,1644543930218354702,1,0.0,0.0,0.0,0.0,0.0,0.0,0.0,0.0,0.0,0.0,0.0,0.0,0.0,0.0,0.0,0.0,0.0,0.0,0.0,0.0,0.0,0.0,0.0,0.0,0.0,0.833565235138,-0.0392265990376,9.91452312469,0.0,0.0,0.0,0.0,0.0,0.0,0.0,0.0,0.0
1731971700,455223,1644543930220366955,1,0.0,0.0,0.0,0.0,0.0,0.0,0.0,0.0,0.0,0.0,0.0,0.0,0.0,0.0,0.0,0.0,0.0,0.0,0.0,0.0,0.0,0.0,0.0,0.0,0.0,0.813951909542,-0.0294199492782,9.8949098587,0.0,0.0,0.0,0.0,0.0,0.0,0.0,0.0,0.0
1734215000,455224,1644543930222381353,1,0.0,0.0,0.0,0.0,0.0,0.0,0.0,0.0,0.0,0.0,0.0,0.0,0.0,0.0,0.0,0.0,0.0,0.0,0.0,0.0,0.0,0.0,0.0,0.0,0.0,0.843371868134,-0.0784531980753,9.88510322571,0.0,0.0,0.0,0.0,0.0,0.0,0.0,0.0,0.0
1735982500,455225,1644543930224393606,1,0.0,0.0,0.0,0.0,0.0,0.0,0.0,0.0,0.0,0.0,0.0,0.0,0.0,0.0,0.0,0.0,0.0,0.0,0.0,0.0,0.0,0.0,0.0,0.0,0.0,0.804145276546,-0.0980664938688,9.91452312469,0.0,0.0,0.0,0.0,0.0,0.0,0.0,0.0,0.0
1738237100,455226,1644543930226407766,1,0.0,0.0,0.0,0.0,0.0,0.0,0.0,0.0,0.0,0.0,0.0,0.0,0.0,0.0,0.0,0.0,0.0,0.0,0.0,0.0,0.0,0.0,0.0,0.0,0.0,0.804145276546,-0.0686465501785,9.94394302368,0.0,0.0,0.0,0.0,0.0,0.0,0.0,0.0,0.0
1740287900,455227,1644543930228420019,1,0.0,0.0,0.0,0.0,0.0,0.0,0.0,0.0,0.0,0.0,0.0,0.0,0.0,0.0,0.0,0.0,0.0,0.0,0.0,0.0,0.0,0.0,0.0,0.0,0.0,0.804145276546,-0.0686465501785,9.91452312469,0.0,0.0,0.0,0.0,0.0,0.0,0.0,0.0,0.0
1742206600,455228,1644543930230434418,1,0.0,0.0,0.0,0.0,0.0,0.0,0.0,0.0,0.0,0.0,0.0,0.0,0.0,0.0,0.0,0.0,0.0,0.0,0.0,0.0,0.0,0.0,0.0,0.0,0.0,0.774725317955,-0.0686465501785,9.8949098587,0.0,0.0,0.0,0.0,0.0,0.0,0.0,0.0,0.0
1744144800,455229,1644543930232448578,1,0.0,0.0,0.0,0.0,0.0,0.0,0.0,0.0,0.0,0.0,0.0,0.0,0.0,0.0,0.0,0.0,0.0,0.0,0.0,0.0,0.0,0.0,0.0,0.0,0.0,0.764918684959,-0.0784531980753,9.91452312469,0.0,0.0,0.0,0.0,0.0,0.0,0.0,0.0,0.0
1746146100,455230,1644543930234460592,1,0.0,0.0,0.0,0.0,0.0,0.0,0.0,0.0,0.0,0.0,0.0,0.0,0.0,0.0,0.0,0.0,0.0,0.0,0.0,0.0,0.0,0.0,0.0,0.0,0.0,0.774725317955,-0.0980664938688,9.8949098587,0.0,0.0,0.0,0.0,0.0,0.0,0.0,0.0,0.0
1748169400,455231,1644543930236474991,1,0.0,0.0,0.0,0.0,0.0,0.0,0.0,0.0,0.0,0.0,0.0,0.0,0.0,0.0,0.0,0.0,0.0,0.0,0.0,0.0,0.0,0.0,0.0,0.0,0.0,0.735498726368,-0.0980664938688,9.88510322571,0.0,0.0,0.0,0.0,0.0,0.0,0.0,0.0,0.0
1750155400,455232,1644543930238487244,1,0.0,0.0,0.0,0.0,0.0,0.0,0.0,0.0,0.0,0.0,0.0,0.0,0.0,0.0,0.0,0.0,0.0,0.0,0.0,0.0,0.0,0.0,0.0,0.0,0.0,0.774725317955,-0.0980664938688,9.88510322571,0.0,0.0,0.0,0.0,0.0,0.0,0.0,0.0,0.0
1752185900,455233,1644543930240501404,1,0.0,0.0,0.0,0.0,0.0,0.0,0.0,0.0,0.0,0.0,0.0,0.0,0.0,0.0,0.0,0.0,0.0,0.0,0.0,0.0,0.0,0.0,0.0,0.0,0.0,0.813951909542,-0.0686465501785,9.96355628967,0.0,0.0,0.0,0.0,0.0,0.0,0.0,0.0,0.0
1754249200,455234,1644543930242513657,1,0.0,0.0,0.0,0.0,0.0,0.0,0.0,0.0,0.0,0.0,0.0,0.0,0.0,0.0,0.0,0.0,0.0,0.0,0.0,0.0,0.0,0.0,0.0,0.0,0.0,0.813951909542,-0.0686465501785,9.94394302368,0.0,0.0,0.0,0.0,0.0,0.0,0.0,0.0,0.0
1756482700,455235,1644543930244528055,1,0.0,0.0,0.0,0.0,0.0,0.0,0.0,0.0,0.0,0.0,0.0,0.0,0.0,0.0,0.0,0.0,0.0,0.0,0.0,0.0,0.0,0.0,0.0,0.0,0.0,0.843371868134,-0.0784531980753,9.96355628967,0.0,0.0,0.0,0.0,0.0,0.0,0.0,0.0,0.0
1758315700,455236,1644543930246540308,1,0.0,0.0,0.0,0.0,0.0,0.0,0.0,0.0,0.0,0.0,0.0,0.0,0.0,0.0,0.0,0.0,0.0,0.0,0.0,0.0,0.0,0.0,0.0,0.0,0.0,0.813951909542,-0.0392265990376,9.98316955566,0.0,0.0,0.0,0.0,0.0,0.0,0.0,0.0,0.0
1760375300,455237,1644543930248554468,1,0.0,0.0,0.0,0.0,0.0,0.0,0.0,0.0,0.0,0.0,0.0,0.0,0.0,0.0,0.0,0.0,0.0,0.0,0.0,0.0,0.0,0.0,0.0,0.0,0.0,0.833565235138,-0.0980664938688,9.91452312469,0.0,0.0,0.0,0.0,0.0,0.0,0.0,0.0,0.0
1762273500,455238,1644543930250568867,1,0.0,0.0,0.0,0.0,0.0,0.0,0.0,0.0,0.0,0.0,0.0,0.0,0.0,0.0,0.0,0.0,0.0,0.0,0.0,0.0,0.0,0.0,0.0,0.0,0.0,0.813951909542,-0.0784531980753,9.8949098587,0.0,0.0,0.0,0.0,0.0,0.0,0.0,0.0,0.0
1764388600,455239,1644543930252583027,1,0.0,0.0,0.0,0.0,0.0,0.0,0.0,0.0,0.0,0.0,0.0,0.0,0.0,0.0,0.0,0.0,0.0,0.0,0.0,0.0,0.0,0.0,0.0,0.0,0.0,0.813951909542,-0.0686465501785,9.96355628967,0.0,0.0,0.0,0.0,0.0,0.0,0.0,0.0,0.0
1766194100,455240,1644543930254595280,1,0.0,0.0,0.0,0.0,0.0,0.0,0.0,0.0,0.0,0.0,0.0,0.0,0.0,0.0,0.0,0.0,0.0,0.0,0.0,0.0,0.0,0.0,0.0,0.0,0.0,0.813951909542,-0.0686465501785,9.8949098587,0.0,0.0,0.0,0.0,0.0,0.0,0.0,0.0,0.0
1768226500,455241,1644543930256609678,1,0.0,0.0,0.0,0.0,0.0,0.0,0.0,0.0,0.0,0.0,0.0,0.0,0.0,0.0,0.0,0.0,0.0,0.0,0.0,0.0,0.0,0.0,0.0,0.0,0.0,0.804145276546,-0.0392265990376,9.94394302368,0.0,0.0,0.0,0.0,0.0,0.0,0.0,0.0,0.0
1770298200,455242,1644543930258621931,1,0.0,0.0,0.0,0.0,0.0,0.0,0.0,0.0,0.0,0.0,0.0,0.0,0.0,0.0,0.0,0.0,0.0,0.0,0.0,0.0,0.0,0.0,0.0,0.0,0.0,0.833565235138,-0.0686465501785,9.96355628967,0.0,0.0,0.0,0.0,0.0,0.0,0.0,0.0,0.0
1772215300,455243,1644543930260636091,1,0.0,0.0,0.0,0.0,0.0,0.0,0.0,0.0,0.0,0.0,0.0,0.0,0.0,0.0,0.0,0.0,0.0,0.0,0.0,0.0,0.0,0.0,0.0,0.0,0.0,0.735498726368,-0.0784531980753,9.8949098587,0.0,0.0,0.0,0.0,0.0,0.0,0.0,0.0,0.0
1774143200,455244,1644543930262648106,1,0.0,0.0,0.0,0.0,0.0,0.0,0.0,0.0,0.0,0.0,0.0,0.0,0.0,0.0,0.0,0.0,0.0,0.0,0.0,0.0,0.0,0.0,0.0,0.0,0.0,0.764918684959,-0.0686465501785,9.86548995972,0.0,0.0,0.0,0.0,0.0,0.0,0.0,0.0,0.0
1776137800,455245,1644543930264662504,1,0.0,0.0,0.0,0.0,0.0,0.0,0.0,0.0,0.0,0.0,0.0,0.0,0.0,0.0,0.0,0.0,0.0,0.0,0.0,0.0,0.0,0.0,0.0,0.0,0.0,0.725692093372,-0.0392265990376,9.86548995972,0.0,0.0,0.0,0.0,0.0,0.0,0.0,0.0,0.0
1778347700,455246,1644543930266676664,1,0.0,0.0,0.0,0.0,0.0,0.0,0.0,0.0,0.0,0.0,0.0,0.0,0.0,0.0,0.0,0.0,0.0,0.0,0.0,0.0,0.0,0.0,0.0,0.0,0.0,0.774725317955,-0.0294199492782,9.8949098587,0.0,0.0,0.0,0.0,0.0,0.0,0.0,0.0,0.0
1780474100,455247,1644543930268688917,1,0.0,0.0,0.0,0.0,0.0,0.0,0.0,0.0,0.0,0.0,0.0,0.0,0.0,0.0,0.0,0.0,0.0,0.0,0.0,0.0,0.0,0.0,0.0,0.0,0.0,0.735498726368,-0.0686465501785,9.91452312469,0.0,0.0,0.0,0.0,0.0,0.0,0.0,0.0,0.0
1782357300,455248,1644543930270703316,1,0.0,0.0,0.0,0.0,0.0,0.0,0.0,0.0,0.0,0.0,0.0,0.0,0.0,0.0,0.0,0.0,0.0,0.0,0.0,0.0,0.0,0.0,0.0,0.0,0.0,0.813951909542,-0.0686465501785,9.98316955566,0.0,0.0,0.0,0.0,0.0,0.0,0.0,0.0,0.0
1784373100,455249,1644543930272715569,1,0.0,0.0,0.0,0.0,0.0,0.0,0.0,0.0,0.0,0.0,0.0,0.0,0.0,0.0,0.0,0.0,0.0,0.0,0.0,0.0,0.0,0.0,0.0,0.0,0.0,0.774725317955,-0.0686465501785,9.88510322571,0.0,0.0,0.0,0.0,0.0,0.0,0.0,0.0,0.0
1786466900,455250,1644543930274729729,1,0.0,0.0,0.0,0.0,0.0,0.0,0.0,0.0,0.0,0.0,0.0,0.0,0.0,0.0,0.0,0.0,0.0,0.0,0.0,0.0,0.0,0.0,0.0,0.0,0.0,0.764918684959,-0.0784531980753,9.8949098587,0.0,0.0,0.0,0.0,0.0,0.0,0.0,0.0,0.0
1788491800,455251,1644543930276743889,1,0.0,0.0,0.0,0.0,0.0,0.0,0.0,0.0,0.0,0.0,0.0,0.0,0.0,0.0,0.0,0.0,0.0,0.0,0.0,0.0,0.0,0.0,0.0,0.0,0.0,0.774725317955,-0.0686465501785,9.8949098587,0.0,0.0,0.0,0.0,0.0,0.0,0.0,0.0,0.0
1790504800,455252,1644543930278756380,1,0.0,0.0,0.0,0.0,0.0,0.0,0.0,0.0,0.0,0.0,0.0,0.0,0.0,0.0,0.0,0.0,0.0,0.0,0.0,0.0,0.0,0.0,0.0,0.0,0.0,0.774725317955,-0.0784531980753,9.91452312469,0.0,0.0,0.0,0.0,0.0,0.0,0.0,0.0,0.0
1792529400,455253,1644543930280770540,1,0.0,0.0,0.0,0.0,0.0,0.0,0.0,0.0,0.0,0.0,0.0,0.0,0.0,0.0,0.0,0.0,0.0,0.0,0.0,0.0,0.0,0.0,0.0,0.0,0.0,0.804145276546,-0.0294199492782,9.88510322571,0.0,0.0,0.0,0.0,0.0,0.0,0.0,0.0,0.0
1794744900,455254,1644543930282784700,1,0.0,0.0,0.0,0.0,0.0,0.0,0.0,0.0,0.0,0.0,0.0,0.0,0.0,0.0,0.0,0.0,0.0,0.0,0.0,0.0,0.0,0.0,0.0,0.0,0.0,0.804145276546,-0.0686465501785,9.94394302368,0.0,0.0,0.0,0.0,0.0,0.0,0.0,0.0,0.0
1796449500,455255,1644543930284796953,1,0.0,0.0,0.0,0.0,0.0,0.0,0.0,0.0,0.0,0.0,0.0,0.0,0.0,0.0,0.0,0.0,0.0,0.0,0.0,0.0,0.0,0.0,0.0,0.0,0.0,0.774725317955,-0.0392265990376,9.88510322571,0.0,0.0,0.0,0.0,0.0,0.0,0.0,0.0,0.0
1799057500,455256,1644543930286811352,1,0.0,0.0,0.0,0.0,0.0,0.0,0.0,0.0,0.0,0.0,0.0,0.0,0.0,0.0,0.0,0.0,0.0,0.0,0.0,0.0,0.0,0.0,0.0,0.0,0.0,0.804145276546,-0.0392265990376,9.91452312469,0.0,0.0,0.0,0.0,0.0,0.0,0.0,0.0,0.0
1800936900,455257,1644543930288823605,1,0.0,0.0,0.0,0.0,0.0,0.0,0.0,0.0,0.0,0.0,0.0,0.0,0.0,0.0,0.0,0.0,0.0,0.0,0.0,0.0,0.0,0.0,0.0,0.0,0.0,0.764918684959,-0.0784531980753,9.91452312469,0.0,0.0,0.0,0.0,0.0,0.0,0.0,0.0,0.0
1802750800,455258,1644543930290837765,1,0.0,0.0,0.0,0.0,0.0,0.0,0.0,0.0,0.0,0.0,0.0,0.0,0.0,0.0,0.0,0.0,0.0,0.0,0.0,0.0,0.0,0.0,0.0,0.0,0.0,0.735498726368,-0.0392265990376,9.91452312469,0.0,0.0,0.0,0.0,0.0,0.0,0.0,0.0,0.0
1804648200,455259,1644543930292852163,1,0.0,0.0,0.0,0.0,0.0,0.0,0.0,0.0,0.0,0.0,0.0,0.0,0.0,0.0,0.0,0.0,0.0,0.0,0.0,0.0,0.0,0.0,0.0,0.0,0.0,0.764918684959,-0.0686465501785,9.94394302368,0.0,0.0,0.0,0.0,0.0,0.0,0.0,0.0,0.0
1806647300,455260,1644543930294864178,1,0.0,0.0,0.0,0.0,0.0,0.0,0.0,0.0,0.0,0.0,0.0,0.0,0.0,0.0,0.0,0.0,0.0,0.0,0.0,0.0,0.0,0.0,0.0,0.0,0.0,0.735498726368,-0.0686465501785,9.88510322571,0.0,0.0,0.0,0.0,0.0,0.0,0.0,0.0,0.0
1808645900,455261,1644543930296878338,1,0.0,0.0,0.0,0.0,0.0,0.0,0.0,0.0,0.0,0.0,0.0,0.0,0.0,0.0,0.0,0.0,0.0,0.0,0.0,0.0,0.0,0.0,0.0,0.0,0.0,0.774725317955,-0.0784531980753,9.94394302368,0.0,0.0,0.0,0.0,0.0,0.0,0.0,0.0,0.0
1810658400,455262,1644543930298892736,1,0.0,0.0,0.0,0.0,0.0,0.0,0.0,0.0,0.0,0.0,0.0,0.0,0.0,0.0,0.0,0.0,0.0,0.0,0.0,0.0,0.0,0.0,0.0,0.0,0.0,0.725692093372,-0.0686465501785,9.96355628967,0.0,0.0,0.0,0.0,0.0,0.0,0.0,0.0,0.0
1812677300,455263,1644543930300904989,1,0.0,0.0,0.0,0.0,0.0,0.0,0.0,0.0,0.0,0.0,0.0,0.0,0.0,0.0,0.0,0.0,0.0,0.0,0.0,0.0,0.0,0.0,0.0,0.0,0.0,0.735498726368,-0.0686465501785,9.98316955566,0.0,0.0,0.0,0.0,0.0,0.0,0.0,0.0,0.0
1814690300,455264,1644543930302919149,1,0.0,0.0,0.0,0.0,0.0,0.0,0.0,0.0,0.0,0.0,0.0,0.0,0.0,0.0,0.0,0.0,0.0,0.0,0.0,0.0,0.0,0.0,0.0,0.0,0.0,0.774725317955,-0.0392265990376,9.94394302368,0.0,0.0,0.0,0.0,0.0,0.0,0.0,0.0,0.0
