%time,field.header.seq,field.header.stamp,field.header.frame_id,field.orientation.x,field.orientation.y,field.orientation.z,field.orientation.w,field.orientation_covariance0,field.orientation_covariance1,field.orientation_covariance2,field.orientation_covariance3,field.orientation_covariance4,field.orientation_covariance5,field.orientation_covariance6,field.orientation_covariance7,field.orientation_covariance8,field.angular_velocity.x,field.angular_velocity.y,field.angular_velocity.z,field.angular_velocity_covariance0,field.angular_velocity_covariance1,field.angular_velocity_covariance2,field.angular_velocity_covariance3,field.angular_velocity_covariance4,field.angular_velocity_covariance5,field.angular_velocity_covariance6,field.angular_velocity_covariance7,field.angular_velocity_covariance8,field.linear_acceleration.x,field.linear_acceleration.y,field.linear_acceleration.z,field.linear_acceleration_covariance0,field.linear_acceleration_covariance1,field.linear_acceleration_covariance2,field.linear_acceleration_covariance3,field.linear_acceleration_covariance4,field.linear_acceleration_covariance5,field.linear_acceleration_covariance6,field.linear_acceleration_covariance7,field.linear_acceleration_covariance8
846700,432907,1644543885290366173,1,0.0,0.0,0.0,0.0,0.0,0.0,0.0,0.0,0.0,0.0,0.0,0.0,0.0,0.0,0.0,0.0,0.0,0.0,0.0,0.0,0.0,0.0,0.0,0.0,0.0,-0.176519691944,-9.58109664917,0.176519691944,0.0,0.0,0.0,0.0,0.0,0.0,0.0,0.0,0.0
2600000,432908,1644543885292378902,1,0.0,0.0,0.0,0.0,0.0,0.0,0.0,0.0,0.0,0.0,0.0,0.0,0.0,0.0,0.0,0.0,0.0,0.0,0.0,0.0,0.0,0.0,0.0,0.0,0.0,-0.176519691944,-9.57129001617,0.196132987738,0.0,0.0,0.0,0.0,0.0,0.0,0.0,0.0,0.0
4840700,432909,1644543885294389486,1,0.0,0.0,0.0,0.0,0.0,0.0,0.0,0.0,0.0,0.0,0.0,0.0,0.0,0.0,0.0,0.0,0.0,0.0,0.0,0.0,0.0,0.0,0.0,0.0,0.0,-0.245166242123,-9.58109664917,0.196132987738,0.0,0.0,0.0,0.0,0.0,0.0,0.0,0.0,0.0
6766900,432910,1644543885296402216,1,0.0,0.0,0.0,0.0,0.0,0.0,0.0,0.0,0.0,0.0,0.0,0.0,0.0,0.0,0.0,0.0,0.0,0.0,0.0,0.0,0.0,0.0,0.0,0.0,0.0,-0.196132987738,-9.62032318115,0.176519691944,0.0,0.0,0.0,0.0,0.0,0.0,0.0,0.0,0.0
8607200,432911,1644543885298414469,1,0.0,0.0,0.0,0.0,0.0,0.0,0.0,0.0,0.0,0.0,0.0,0.0,0.0,0.0,0.0,0.0,0.0,0.0,0.0,0.0,0.0,0.0,0.0,0.0,0.0,-0.12748645246,-9.61051654816,0.225552946329,0.0,0.0,0.0,0.0,0.0,0.0,0.0,0.0,0.0
10609400,432912,1644543885300427198,1,0.0,0.0,0.0,0.0,0.0,0.0,0.0,0.0,0.0,0.0,0.0,0.0,0.0,0.0,0.0,0.0,0.0,0.0,0.0,0.0,0.0,0.0,0.0,0.0,0.0,-0.166713044047,-9.67916297913,0.245166242123,0.0,0.0,0.0,0.0,0.0,0.0,0.0,0.0,0.0
12630000,432913,1644543885302439690,1,0.0,0.0,0.0,0.0,0.0,0.0,0.0,0.0,0.0,0.0,0.0,0.0,0.0,0.0,0.0,0.0,0.0,0.0,0.0,0.0,0.0,0.0,0.0,0.0,0.0,-0.166713044047,-9.61051654816,0.166713044047,0.0,0.0,0.0,0.0,0.0,0.0,0.0,0.0,0.0
14508900,432914,1644543885304452419,1,0.0,0.0,0.0,0.0,0.0,0.0,0.0,0.0,0.0,0.0,0.0,0.0,0.0,0.0,0.0,0.0,0.0,0.0,0.0,0.0,0.0,0.0,0.0,0.0,0.0,-0.196132987738,-9.61051654816,0.176519691944,0.0,0.0,0.0,0.0,0.0,0.0,0.0,0.0,0.0
16574000,432915,1644543885306465149,1,0.0,0.0,0.0,0.0,0.0,0.0,0.0,0.0,0.0,0.0,0.0,0.0,0.0,0.0,0.0,0.0,0.0,0.0,0.0,0.0,0.0,0.0,0.0,0.0,0.0,-0.166713044047,-9.58109664917,0.264779537916,0.0,0.0,0.0,0.0,0.0,0.0,0.0,0.0,0.0
18834000,432916,1644543885308477640,1,0.0,0.0,0.0,0.0,0.0,0.0,0.0,0.0,0.0,0.0,0.0,0.0,0.0,0.0,0.0,0.0,0.0,0.0,0.0,0.0,0.0,0.0,0.0,0.0,0.0,-0.166713044047,-9.62032318115,0.264779537916,0.0,0.0,0.0,0.0,0.0,0.0,0.0,0.0,0.0
20851200,432917,1644543885310487986,1,0.0,0.0,0.0,0.0,0.0,0.0,0.0,0.0,0.0,0.0,0.0,0.0,0.0,0.0,0.0,0.0,0.0,0.0,0.0,0.0,0.0,0.0,0.0,0.0,0.0,-0.137293100357,-9.66935634613,0.225552946329,0.0,0.0,0.0,0.0,0.0,0.0,0.0,0.0,0.0
22834900,432918,1644543885312500715,1,0.0,0.0,0.0,0.0,0.0,0.0,0.0,0.0,0.0,0.0,0.0,0.0,0.0,0.0,0.0,0.0,0.0,0.0,0.0,0.0,0.0,0.0,0.0,0.0,0.0,-0.196132987738,-9.66935634613,0.264779537916,0.0,0.0,0.0,0.0,0.0,0.0,0.0,0.0,0.0
24973200,432919,1644543885314513445,1,0.0,0.0,0.0,0.0,0.0,0.0,0.0,0.0,0.0,0.0,0.0,0.0,0.0,0.0,0.0,0.0,0.0,0.0,0.0,0.0,0.0,0.0,0.0,0.0,0.0,-0.176519691944,-9.62032318115,0.245166242123,0.0,0.0,0.0,0.0,0.0,0.0,0.0,0.0,0.0
27429700,432920,1644543885316525936,1,0.0,0.0,0.0,0.0,0.0,0.0,0.0,0.0,0.0,0.0,0.0,0.0,0.0,0.0,0.0,0.0,0.0,0.0,0.0,0.0,0.0,0.0,0.0,0.0,0.0,-0.166713044047,-9.64974308014,0.225552946329,0.0,0.0,0.0,0.0,0.0,0.0,0.0,0.0,0.0
29000400,432921,1644543885318538666,1,0.0,0.0,0.0,0.0,0.0,0.0,0.0,0.0,0.0,0.0,0.0,0.0,0.0,0.0,0.0,0.0,0.0,0.0,0.0,0.0,0.0,0.0,0.0,0.0,0.0,-0.166713044047,-9.62032318115,0.245166242123,0.0,0.0,0.0,0.0,0.0,0.0,0.0,0.0,0.0
31204400,432922,1644543885320550919,1,0.0,0.0,0.0,0.0,0.0,0.0,0.0,0.0,0.0,0.0,0.0,0.0,0.0,0.0,0.0,0.0,0.0,0.0,0.0,0.0,0.0,0.0,0.0,0.0,0.0,-0.166713044047,-9.58109664917,0.245166242123,0.0,0.0,0.0,0.0,0.0,0.0,0.0,0.0,0.0
800034900,433304,1644543886089203596,1,0.0,0.0,0.0,0.0,0.0,0.0,0.0,0.0,0.0,0.0,0.0,0.0,0.0,0.0,0.0,0.0,0.0,0.0,0.0,0.0,0.0,0.0,0.0,0.0,0.0,-0.166713044047,-9.61051654816,0.245166242123,0.0,0.0,0.0,0.0,0.0,0.0,0.0,0.0,0.0
802052800,433305,1644543886091216087,1,0.0,0.0,0.0,0.0,0.0,0.0,0.0,0.0,0.0,0.0,0.0,0.0,0.0,0.0,0.0,0.0,0.0,0.0,0.0,0.0,0.0,0.0,0.0,0.0,0.0,-0.137293100357,-9.64974308014,0.245166242123,0.0,0.0,0.0,0.0,0.0,0.0,0.0,0.0,0.0
804067500,433306,1644543886093228340,1,0.0,0.0,0.0,0.0,0.0,0.0,0.0,0.0,0.0,0.0,0.0,0.0,0.0,0.0,0.0,0.0,0.0,0.0,0.0,0.0,0.0,0.0,0.0,0.0,0.0,-0.137293100357,-9.61051654816,0.264779537916,0.0,0.0,0.0,0.0,0.0,0.0,0.0,0.0,0.0
806116700,433307,1644543886095240831,1,0.0,0.0,0.0,0.0,0.0,0.0,0.0,0.0,0.0,0.0,0.0,0.0,0.0,0.0,0.0,0.0,0.0,0.0,0.0,0.0,0.0,0.0,0.0,0.0,0.0,-0.137293100357,-9.58109664917,0.166713044047,0.0,0.0,0.0,0.0,0.0,0.0,0.0,0.0,0.0
808071300,433308,1644543886097252846,1,0.0,0.0,0.0,0.0,0.0,0.0,0.0,0.0,0.0,0.0,0.0,0.0,0.0,0.0,0.0,0.0,0.0,0.0,0.0,0.0,0.0,0.0,0.0,0.0,0.0,-0.166713044047,-9.62032318115,0.245166242123,0.0,0.0,0.0,0.0,0.0,0.0,0.0,0.0,0.0
810581000,433309,1644543886099265337,1,0.0,0.0,0.0,0.0,0.0,0.0,0.0,0.0,0.0,0.0,0.0,0.0,0.0,0.0,0.0,0.0,0.0,0.0,0.0,0.0,0.0,0.0,0.0,0.0,0.0,-0.12748645246,-9.64974308014,0.225552946329,0.0,0.0,0.0,0.0,0.0,0.0,0.0,0.0,0.0
812698800,433310,1644543886101277590,1,0.0,0.0,0.0,0.0,0.0,0.0,0.0,0.0,0.0,0.0,0.0,0.0,0.0,0.0,0.0,0.0,0.0,0.0,0.0,0.0,0.0,0.0,0.0,0.0,0.0,-0.166713044047,-9.62032318115,0.264779537916,0.0,0.0,0.0,0.0,0.0,0.0,0.0,0.0,0.0
814501500,433311,1644543886103288174,1,0.0,0.0,0.0,0.0,0.0,0.0,0.0,0.0,0.0,0.0,0.0,0.0,0.0,0.0,0.0,0.0,0.0,0.0,0.0,0.0,0.0,0.0,0.0,0.0,0.0,-0.176519691944,-9.62032318115,0.137293100357,0.0,0.0,0.0,0.0,0.0,0.0,0.0,0.0,0.0
816404000,433312,1644543886105300188,1,0.0,0.0,0.0,0.0,0.0,0.0,0.0,0.0,0.0,0.0,0.0,0.0,0.0,0.0,0.0,0.0,0.0,0.0,0.0,0.0,0.0,0.0,0.0,0.0,0.0,-0.137293100357,-9.58109664917,0.225552946329,0.0,0.0,0.0,0.0,0.0,0.0,0.0,0.0,0.0
818532300,433313,1644543886107312679,1,0.0,0.0,0.0,0.0,0.0,0.0,0.0,0.0,0.0,0.0,0.0,0.0,0.0,0.0,0.0,0.0,0.0,0.0,0.0,0.0,0.0,0.0,0.0,0.0,0.0,-0.166713044047,-9.64974308014,0.166713044047,0.0,0.0,0.0,0.0,0.0,0.0,0.0,0.0,0.0
820167800,433314,1644543886109324932,1,0.0,0.0,0.0,0.0,0.0,0.0,0.0,0.0,0.0,0.0,0.0,0.0,0.0,0.0,0.0,0.0,0.0,0.0,0.0,0.0,0.0,0.0,0.0,0.0,0.0,-0.12748645246,-9.66935634613,0.294199496508,0.0,0.0,0.0,0.0,0.0,0.0,0.0,0.0,0.0
822680100,433315,1644543886111337423,1,0.0,0.0,0.0,0.0,0.0,0.0,0.0,0.0,0.0,0.0,0.0,0.0,0.0,0.0,0.0,0.0,0.0,0.0,0.0,0.0,0.0,0.0,0.0,0.0,0.0,-0.196132987738,-9.64974308014,0.225552946329,0.0,0.0,0.0,0.0,0.0,0.0,0.0,0.0,0.0
824953800,433316,1644543886113349915,1,0.0,0.0,0.0,0.0,0.0,0.0,0.0,0.0,0.0,0.0,0.0,0.0,0.0,0.0,0.0,0.0,0.0,0.0,0.0,0.0,0.0,0.0,0.0,0.0,0.0,-0.166713044047,-9.57129001617,0.196132987738,0.0,0.0,0.0,0.0,0.0,0.0,0.0,0.0,0.0
826273700,433317,1644543886115362167,1,0.0,0.0,0.0,0.0,0.0,0.0,0.0,0.0,0.0,0.0,0.0,0.0,0.0,0.0,0.0,0.0,0.0,0.0,0.0,0.0,0.0,0.0,0.0,0.0,0.0,-0.166713044047,-9.64974308014,0.225552946329,0.0,0.0,0.0,0.0,0.0,0.0,0.0,0.0,0.0
828269900,433318,1644543886117374420,1,0.0,0.0,0.0,0.0,0.0,0.0,0.0,0.0,0.0,0.0,0.0,0.0,0.0,0.0,0.0,0.0,0.0,0.0,0.0,0.0,0.0,0.0,0.0,0.0,0.0,-0.166713044047,-9.62032318115,0.196132987738,0.0,0.0,0.0,0.0,0.0,0.0,0.0,0.0,0.0
830216700,433319,1644543886119384766,1,0.0,0.0,0.0,0.0,0.0,0.0,0.0,0.0,0.0,0.0,0.0,0.0,0.0,0.0,0.0,0.0,0.0,0.0,0.0,0.0,0.0,0.0,0.0,0.0,0.0,-0.166713044047,-9.62032318115,0.196132987738,0.0,0.0,0.0,0.0,0.0,0.0,0.0,0.0,0.0
832248100,433320,1644543886121397018,1,0.0,0.0,0.0,0.0,0.0,0.0,0.0,0.0,0.0,0.0,0.0,0.0,0.0,0.0,0.0,0.0,0.0,0.0,0.0,0.0,0.0,0.0,0.0,0.0,0.0,-0.166713044047,-9.62032318115,0.225552946329,0.0,0.0,0.0,0.0,0.0,0.0,0.0,0.0,0.0
834312500,433321,1644543886123409510,1,0.0,0.0,0.0,0.0,0.0,0.0,0.0,0.0,0.0,0.0,0.0,0.0,0.0,0.0,0.0,0.0,0.0,0.0,0.0,0.0,0.0,0.0,0.0,0.0,0.0,-0.12748645246,-9.67916297913,0.274586200714,0.0,0.0,0.0,0.0,0.0,0.0,0.0,0.0,0.0
836260400,433322,1644543886125421762,1,0.0,0.0,0.0,0.0,0.0,0.0,0.0,0.0,0.0,0.0,0.0,0.0,0.0,0.0,0.0,0.0,0.0,0.0,0.0,0.0,0.0,0.0,0.0,0.0,0.0,-0.176519691944,-9.62032318115,0.176519691944,0.0,0.0,0.0,0.0,0.0,0.0,0.0,0.0,0.0
838602100,433323,1644543886127434015,1,0.0,0.0,0.0,0.0,0.0,0.0,0.0,0.0,0.0,0.0,0.0,0.0,0.0,0.0,0.0,0.0,0.0,0.0,0.0,0.0,0.0,0.0,0.0,0.0,0.0,-0.166713044047,-9.61051654816,0.225552946329,0.0,0.0,0.0,0.0,0.0,0.0,0.0,0.0,0.0
840658300,433324,1644543886129446507,1,0.0,0.0,0.0,0.0,0.0,0.0,0.0,0.0,0.0,0.0,0.0,0.0,0.0,0.0,0.0,0.0,0.0,0.0,0.0,0.0,0.0,0.0,0.0,0.0,0.0,-0.166713044047,-9.58109664917,0.196132987738,0.0,0.0,0.0,0.0,0.0,0.0,0.0,0.0,0.0
842459800,433325,1644543886131458759,1,0.0,0.0,0.0,0.0,0.0,0.0,0.0,0.0,0.0,0.0,0.0,0.0,0.0,0.0,0.0,0.0,0.0,0.0,0.0,0.0,0.0,0.0,0.0,0.0,0.0,-0.166713044047,-9.64974308014,0.225552946329,0.0,0.0,0.0,0.0,0.0,0.0,0.0,0.0,0.0
844270500,433326,1644543886133471251,1,0.0,0.0,0.0,0.0,0.0,0.0,0.0,0.0,0.0,0.0,0.0,0.0,0.0,0.0,0.0,0.0,0.0,0.0,0.0,0.0,0.0,0.0,0.0,0.0,0.0,-0.137293100357,-9.66935634613,0.196132987738,0.0,0.0,0.0,0.0,0.0,0.0,0.0,0.0,0.0
846293100,433327,1644543886135483503,1,0.0,0.0,0.0,0.0,0.0,0.0,0.0,0.0,0.0,0.0,0.0,0.0,0.0,0.0,0.0,0.0,0.0,0.0,0.0,0.0,0.0,0.0,0.0,0.0,0.0,-0.225552946329,-9.58109664917,0.196132987738,0.0,0.0,0.0,0.0,0.0,0.0,0.0,0.0,0.0
848316500,433328,1644543886137495756,1,0.0,0.0,0.0,0.0,0.0,0.0,0.0,0.0,0.0,0.0,0.0,0.0,0.0,0.0,0.0,0.0,0.0,0.0,0.0,0.0,0.0,0.0,0.0,0.0,0.0,-0.196132987738,-9.62032318115,0.196132987738,0.0,0.0,0.0,0.0,0.0,0.0,0.0,0.0,0.0
850261900,433329,1644543886139506102,1,0.0,0.0,0.0,0.0,0.0,0.0,0.0,0.0,0.0,0.0,0.0,0.0,0.0,0.0,0.0,0.0,0.0,0.0,0.0,0.0,0.0,0.0,0.0,0.0,0.0,-0.176519691944,-9.61051654816,0.176519691944,0.0,0.0,0.0,0.0,0.0,0.0,0.0,0.0,0.0
852309500,433330,1644543886141518593,1,0.0,0.0,0.0,0.0,0.0,0.0,0.0,0.0,0.0,0.0,0.0,0.0,0.0,0.0,0.0,0.0,0.0,0.0,0.0,0.0,0.0,0.0,0.0,0.0,0.0,-0.176519691944,-9.61051654816,0.225552946329,0.0,0.0,0.0,0.0,0.0,0.0,0.0,0.0,0.0
854261800,433331,1644543886143530846,1,0.0,0.0,0.0,0.0,0.0,0.0,0.0,0.0,0.0,0.0,0.0,0.0,0.0,0.0,0.0,0.0,0.0,0.0,0.0,0.0,0.0,0.0,0.0,0.0,0.0,-0.196132987738,-9.64974308014,0.196132987738,0.0,0.0,0.0,0.0,0.0,0.0,0.0,0.0,0.0
856763500,433332,1644543886145543098,1,0.0,0.0,0.0,0.0,0.0,0.0,0.0,0.0,0.0,0.0,0.0,0.0,0.0,0.0,0.0,0.0,0.0,0.0,0.0,0.0,0.0,0.0,0.0,0.0,0.0,-0.196132987738,-9.61051654816,0.176519691944,0.0,0.0,0.0,0.0,0.0,0.0,0.0,0.0,0.0
858391000,433333,1644543886147555351,1,0.0,0.0,0.0,0.0,0.0,0.0,0.0,0.0,0.0,0.0,0.0,0.0,0.0,0.0,0.0,0.0,0.0,0.0,0.0,0.0,0.0,0.0,0.0,0.0,0.0,-0.12748645246,-9.62032318115,0.225552946329,0.0,0.0,0.0,0.0,0.0,0.0,0.0,0.0,0.0
860376400,433334,1644543886149567842,1,0.0,0.0,0.0,0.0,0.0,0.0,0.0,0.0,0.0,0.0,0.0,0.0,0.0,0.0,0.0,0.0,0.0,0.0,0.0,0.0,0.0,0.0,0.0,0.0,0.0,-0.166713044047,-9.64974308014,0.225552946329,0.0,0.0,0.0,0.0,0.0,0.0,0.0,0.0,0.0
862353400,433335,1644543886151578188,1,0.0,0.0,0.0,0.0,0.0,0.0,0.0,0.0,0.0,0.0,0.0,0.0,0.0,0.0,0.0,0.0,0.0,0.0,0.0,0.0,0.0,0.0,0.0,0.0,0.0,-0.166713044047,-9.62032318115,0.196132987738,0.0,0.0,0.0,0.0,0.0,0.0,0.0,0.0,0.0
864343000,433336,1644543886153590441,1,0.0,0.0,0.0,0.0,0.0,0.0,0.0,0.0,0.0,0.0,0.0,0.0,0.0,0.0,0.0,0.0,0.0,0.0,0.0,0.0,0.0,0.0,0.0,0.0,0.0,-0.176519691944,-9.61051654816,0.176519691944,0.0,0.0,0.0,0.0,0.0,0.0,0.0,0.0,0.0
866297900,433337,1644543886155602694,1,0.0,0.0,0.0,0.0,0.0,0.0,0.0,0.0,0.0,0.0,0.0,0.0,0.0,0.0,0.0,0.0,0.0,0.0,0.0,0.0,0.0,0.0,0.0,0.0,0.0,-0.166713044047,-9.66935634613,0.274586200714,0.0,0.0,0.0,0.0,0.0,0.0,0.0,0.0,0.0
868273800,433338,1644543886157614946,1,0.0,0.0,0.0,0.0,0.0,0.0,0.0,0.0,0.0,0.0,0.0,0.0,0.0,0.0,0.0,0.0,0.0,0.0,0.0,0.0,0.0,0.0,0.0,0.0,0.0,-0.12748645246,-9.62032318115,0.245166242123,0.0,0.0,0.0,0.0,0.0,0.0,0.0,0.0,0.0
870591000,433339,1644543886159627438,1,0.0,0.0,0.0,0.0,0.0,0.0,0.0,0.0,0.0,0.0,0.0,0.0,0.0,0.0,0.0,0.0,0.0,0.0,0.0,0.0,0.0,0.0,0.0,0.0,0.0,-0.225552946329,-9.58109664917,0.196132987738,0.0,0.0,0.0,0.0,0.0,0.0,0.0,0.0,0.0
872359300,433340,1644543886161639690,1,0.0,0.0,0.0,0.0,0.0,0.0,0.0,0.0,0.0,0.0,0.0,0.0,0.0,0.0,0.0,0.0,0.0,0.0,0.0,0.0,0.0,0.0,0.0,0.0,0.0,-0.196132987738,-9.62032318115,0.264779537916,0.0,0.0,0.0,0.0,0.0,0.0,0.0,0.0,0.0
874293200,433341,1644543886163652182,1,0.0,0.0,0.0,0.0,0.0,0.0,0.0,0.0,0.0,0.0,0.0,0.0,0.0,0.0,0.0,0.0,0.0,0.0,0.0,0.0,0.0,0.0,0.0,0.0,0.0,-0.137293100357,-9.62032318115,0.225552946329,0.0,0.0,0.0,0.0,0.0,0.0,0.0,0.0,0.0
876504300,433342,1644543886165662289,1,0.0,0.0,0.0,0.0,0.0,0.0,0.0,0.0,0.0,0.0,0.0,0.0,0.0,0.0,0.0,0.0,0.0,0.0,0.0,0.0,0.0,0.0,0.0,0.0,0.0,-0.176519691944,-9.64974308014,0.166713044047,0.0,0.0,0.0,0.0,0.0,0.0,0.0,0.0,0.0
878504400,433343,1644543886167674780,1,0.0,0.0,0.0,0.0,0.0,0.0,0.0,0.0,0.0,0.0,0.0,0.0,0.0,0.0,0.0,0.0,0.0,0.0,0.0,0.0,0.0,0.0,0.0,0.0,0.0,-0.137293100357,-9.64974308014,0.225552946329,0.0,0.0,0.0,0.0,0.0,0.0,0.0,0.0,0.0
880536900,433344,1644543886169687033,1,0.0,0.0,0.0,0.0,0.0,0.0,0.0,0.0,0.0,0.0,0.0,0.0,0.0,0.0,0.0,0.0,0.0,0.0,0.0,0.0,0.0,0.0,0.0,0.0,0.0,-0.166713044047,-9.58109664917,0.245166242123,0.0,0.0,0.0,0.0,0.0,0.0,0.0,0.0,0.0
882447800,433345,1644543886171700001,1,0.0,0.0,0.0,0.0,0.0,0.0,0.0,0.0,0.0,0.0,0.0,0.0,0.0,0.0,0.0,0.0,0.0,0.0,0.0,0.0,0.0,0.0,0.0,0.0,0.0,-0.176519691944,-9.61051654816,0.176519691944,0.0,0.0,0.0,0.0,0.0,0.0,0.0,0.0,0.0
884483100,433346,1644543886173713446,1,0.0,0.0,0.0,0.0,0.0,0.0,0.0,0.0,0.0,0.0,0.0,0.0,0.0,0.0,0.0,0.0,0.0,0.0,0.0,0.0,0.0,0.0,0.0,0.0,0.0,-0.12748645246,-9.64974308014,0.245166242123,0.0,0.0,0.0,0.0,0.0,0.0,0.0,0.0,0.0
886722600,433347,1644543886175727129,1,0.0,0.0,0.0,0.0,0.0,0.0,0.0,0.0,0.0,0.0,0.0,0.0,0.0,0.0,0.0,0.0,0.0,0.0,0.0,0.0,0.0,0.0,0.0,0.0,0.0,-0.176519691944,-9.61051654816,0.225552946329,0.0,0.0,0.0,0.0,0.0,0.0,0.0,0.0,0.0
888621100,433348,1644543886177738667,1,0.0,0.0,0.0,0.0,0.0,0.0,0.0,0.0,0.0,0.0,0.0,0.0,0.0,0.0,0.0,0.0,0.0,0.0,0.0,0.0,0.0,0.0,0.0,0.0,0.0,-0.196132987738,-9.58109664917,0.245166242123,0.0,0.0,0.0,0.0,0.0,0.0,0.0,0.0,0.0
890514200,433349,1644543886179752350,1,0.0,0.0,0.0,0.0,0.0,0.0,0.0,0.0,0.0,0.0,0.0,0.0,0.0,0.0,0.0,0.0,0.0,0.0,0.0,0.0,0.0,0.0,0.0,0.0,0.0,-0.166713044047,-9.56148338318,0.225552946329,0.0,0.0,0.0,0.0,0.0,0.0,0.0,0.0,0.0
892468500,433350,1644543886181765795,1,0.0,0.0,0.0,0.0,0.0,0.0,0.0,0.0,0.0,0.0,0.0,0.0,0.0,0.0,0.0,0.0,0.0,0.0,0.0,0.0,0.0,0.0,0.0,0.0,0.0,-0.166713044047,-9.61051654816,0.176519691944,0.0,0.0,0.0,0.0,0.0,0.0,0.0,0.0,0.0
894474000,433351,1644543886183779478,1,0.0,0.0,0.0,0.0,0.0,0.0,0.0,0.0,0.0,0.0,0.0,0.0,0.0,0.0,0.0,0.0,0.0,0.0,0.0,0.0,0.0,0.0,0.0,0.0,0.0,-0.166713044047,-9.61051654816,0.196132987738,0.0,0.0,0.0,0.0,0.0,0.0,0.0,0.0,0.0
896542300,433352,1644543886185793161,1,0.0,0.0,0.0,0.0,0.0,0.0,0.0,0.0,0.0,0.0,0.0,0.0,0.0,0.0,0.0,0.0,0.0,0.0,0.0,0.0,0.0,0.0,0.0,0.0,0.0,-0.176519691944,-9.64974308014,0.225552946329,0.0,0.0,0.0,0.0,0.0,0.0,0.0,0.0,0.0
898482800,433353,1644543886187806845,1,0.0,0.0,0.0,0.0,0.0,0.0,0.0,0.0,0.0,0.0,0.0,0.0,0.0,0.0,0.0,0.0,0.0,0.0,0.0,0.0,0.0,0.0,0.0,0.0,0.0,-0.225552946329,-9.64974308014,0.196132987738,0.0,0.0,0.0,0.0,0.0,0.0,0.0,0.0,0.0
900575600,433354,1644543886189820290,1,0.0,0.0,0.0,0.0,0.0,0.0,0.0,0.0,0.0,0.0,0.0,0.0,0.0,0.0,0.0,0.0,0.0,0.0,0.0,0.0,0.0,0.0,0.0,0.0,0.0,-0.176519691944,-9.64974308014,0.196132987738,0.0,0.0,0.0,0.0,0.0,0.0,0.0,0.0,0.0
902679400,433355,1644543886191833973,1,0.0,0.0,0.0,0.0,0.0,0.0,0.0,0.0,0.0,0.0,0.0,0.0,0.0,0.0,0.0,0.0,0.0,0.0,0.0,0.0,0.0,0.0,0.0,0.0,0.0,-0.166713044047,-9.62032318115,0.196132987738,0.0,0.0,0.0,0.0,0.0,0.0,0.0,0.0,0.0
904665500,433356,1644543886193847656,1,0.0,0.0,0.0,0.0,0.0,0.0,0.0,0.0,0.0,0.0,0.0,0.0,0.0,0.0,0.0,0.0,0.0,0.0,0.0,0.0,0.0,0.0,0.0,0.0,0.0,-0.176519691944,-9.62032318115,0.294199496508,0.0,0.0,0.0,0.0,0.0,0.0,0.0,0.0,0.0
906901800,433357,1644543886195861340,1,0.0,0.0,0.0,0.0,0.0,0.0,0.0,0.0,0.0,0.0,0.0,0.0,0.0,0.0,0.0,0.0,0.0,0.0,0.0,0.0,0.0,0.0,0.0,0.0,0.0,-0.196132987738,-9.61051654816,0.264779537916,0.0,0.0,0.0,0.0,0.0,0.0,0.0,0.0,0.0
908645500,433358,1644543886197874784,1,0.0,0.0,0.0,0.0,0.0,0.0,0.0,0.0,0.0,0.0,0.0,0.0,0.0,0.0,0.0,0.0,0.0,0.0,0.0,0.0,0.0,0.0,0.0,0.0,0.0,-0.166713044047,-9.64974308014,0.225552946329,0.0,0.0,0.0,0.0,0.0,0.0,0.0,0.0,0.0
910829900,433359,1644543886199888468,1,0.0,0.0,0.0,0.0,0.0,0.0,0.0,0.0,0.0,0.0,0.0,0.0,0.0,0.0,0.0,0.0,0.0,0.0,0.0,0.0,0.0,0.0,0.0,0.0,0.0,-0.166713044047,-9.62032318115,0.225552946329,0.0,0.0,0.0,0.0,0.0,0.0,0.0,0.0,0.0
912598500,433360,1644543886201900244,1,0.0,0.0,0.0,0.0,0.0,0.0,0.0,0.0,0.0,0.0,0.0,0.0,0.0,0.0,0.0,0.0,0.0,0.0,0.0,0.0,0.0,0.0,0.0,0.0,0.0,-0.196132987738,-9.61051654816,0.196132987738,0.0,0.0,0.0,0.0,0.0,0.0,0.0,0.0,0.0
914790300,433361,1644543886203913689,1,0.0,0.0,0.0,0.0,0.0,0.0,0.0,0.0,0.0,0.0,0.0,0.0,0.0,0.0,0.0,0.0,0.0,0.0,0.0,0.0,0.0,0.0,0.0,0.0,0.0,-0.196132987738,-9.61051654816,0.264779537916,0.0,0.0,0.0,0.0,0.0,0.0,0.0,0.0,0.0
916825600,433362,1644543886205927134,1,0.0,0.0,0.0,0.0,0.0,0.0,0.0,0.0,0.0,0.0,0.0,0.0,0.0,0.0,0.0,0.0,0.0,0.0,0.0,0.0,0.0,0.0,0.0,0.0,0.0,-0.166713044047,-9.66935634613,0.264779537916,0.0,0.0,0.0,0.0,0.0,0.0,0.0,0.0,0.0
918757100,433363,1644543886207940817,1,0.0,0.0,0.0,0.0,0.0,0.0,0.0,0.0,0.0,0.0,0.0,0.0,0.0,0.0,0.0,0.0,0.0,0.0,0.0,0.0,0.0,0.0,0.0,0.0,0.0,-0.166713044047,-9.66935634613,0.196132987738,0.0,0.0,0.0,0.0,0.0,0.0,0.0,0.0,0.0
920790500,433364,1644543886209954500,1,0.0,0.0,0.0,0.0,0.0,0.0,0.0,0.0,0.0,0.0,0.0,0.0,0.0,0.0,0.0,0.0,0.0,0.0,0.0,0.0,0.0,0.0,0.0,0.0,0.0,-0.176519691944,-9.58109664917,0.245166242123,0.0,0.0,0.0,0.0,0.0,0.0,0.0,0.0,0.0
922807000,433365,1644543886211968184,1,0.0,0.0,0.0,0.0,0.0,0.0,0.0,0.0,0.0,0.0,0.0,0.0,0.0,0.0,0.0,0.0,0.0,0.0,0.0,0.0,0.0,0.0,0.0,0.0,0.0,-0.196132987738,-9.61051654816,0.176519691944,0.0,0.0,0.0,0.0,0.0,0.0,0.0,0.0,0.0
925060700,433366,1644543886213979721,1,0.0,0.0,0.0,0.0,0.0,0.0,0.0,0.0,0.0,0.0,0.0,0.0,0.0,0.0,0.0,0.0,0.0,0.0,0.0,0.0,0.0,0.0,0.0,0.0,0.0,-0.137293100357,-9.62032318115,0.225552946329,0.0,0.0,0.0,0.0,0.0,0.0,0.0,0.0,0.0
927011600,433367,1644543886215993404,1,0.0,0.0,0.0,0.0,0.0,0.0,0.0,0.0,0.0,0.0,0.0,0.0,0.0,0.0,0.0,0.0,0.0,0.0,0.0,0.0,0.0,0.0,0.0,0.0,0.0,-0.166713044047,-9.61051654816,0.225552946329,0.0,0.0,0.0,0.0,0.0,0.0,0.0,0.0,0.0
928971000,433368,1644543886218008041,1,0.0,0.0,0.0,0.0,0.0,0.0,0.0,0.0,0.0,0.0,0.0,0.0,0.0,0.0,0.0,0.0,0.0,0.0,0.0,0.0,0.0,0.0,0.0,0.0,0.0,-0.196132987738,-9.62032318115,0.225552946329,0.0,0.0,0.0,0.0,0.0,0.0,0.0,0.0,0.0
931003200,433369,1644543886220020533,1,0.0,0.0,0.0,0.0,0.0,0.0,0.0,0.0,0.0,0.0,0.0,0.0,0.0,0.0,0.0,0.0,0.0,0.0,0.0,0.0,0.0,0.0,0.0,0.0,0.0,-0.196132987738,-9.62032318115,0.176519691944,0.0,0.0,0.0,0.0,0.0,0.0,0.0,0.0,0.0
932724800,433370,1644543886222035170,1,0.0,0.0,0.0,0.0,0.0,0.0,0.0,0.0,0.0,0.0,0.0,0.0,0.0,0.0,0.0,0.0,0.0,0.0,0.0,0.0,0.0,0.0,0.0,0.0,0.0,-0.137293100357,-9.64974308014,0.225552946329,0.0,0.0,0.0,0.0,0.0,0.0,0.0,0.0,0.0
935031900,433371,1644543886224049807,1,0.0,0.0,0.0,0.0,0.0,0.0,0.0,0.0,0.0,0.0,0.0,0.0,0.0,0.0,0.0,0.0,0.0,0.0,0.0,0.0,0.0,0.0,0.0,0.0,0.0,-0.137293100357,-9.62032318115,0.274586200714,0.0,0.0,0.0,0.0,0.0,0.0,0.0,0.0,0.0
937339100,433372,1644543886226064205,1,0.0,0.0,0.0,0.0,0.0,0.0,0.0,0.0,0.0,0.0,0.0,0.0,0.0,0.0,0.0,0.0,0.0,0.0,0.0,0.0,0.0,0.0,0.0,0.0,0.0,-0.137293100357,-9.66935634613,0.264779537916,0.0,0.0,0.0,0.0,0.0,0.0,0.0,0.0,0.0
939389100,433373,1644543886228078842,1,0.0,0.0,0.0,0.0,0.0,0.0,0.0,0.0,0.0,0.0,0.0,0.0,0.0,0.0,0.0,0.0,0.0,0.0,0.0,0.0,0.0,0.0,0.0,0.0,0.0,-0.166713044047,-9.64974308014,0.225552946329,0.0,0.0,0.0,0.0,0.0,0.0,0.0,0.0,0.0
941032400,433374,1644543886230093479,1,0.0,0.0,0.0,0.0,0.0,0.0,0.0,0.0,0.0,0.0,0.0,0.0,0.0,0.0,0.0,0.0,0.0,0.0,0.0,0.0,0.0,0.0,0.0,0.0,0.0,-0.137293100357,-9.62032318115,0.245166242123,0.0,0.0,0.0,0.0,0.0,0.0,0.0,0.0,0.0
943190200,433375,1644543886232105970,1,0.0,0.0,0.0,0.0,0.0,0.0,0.0,0.0,0.0,0.0,0.0,0.0,0.0,0.0,0.0,0.0,0.0,0.0,0.0,0.0,0.0,0.0,0.0,0.0,0.0,-0.137293100357,-9.66935634613,0.245166242123,0.0,0.0,0.0,0.0,0.0,0.0,0.0,0.0,0.0
945184400,433376,1644543886234120607,1,0.0,0.0,0.0,0.0,0.0,0.0,0.0,0.0,0.0,0.0,0.0,0.0,0.0,0.0,0.0,0.0,0.0,0.0,0.0,0.0,0.0,0.0,0.0,0.0,0.0,-0.137293100357,-9.64974308014,0.166713044047,0.0,0.0,0.0,0.0,0.0,0.0,0.0,0.0,0.0
947178600,433377,1644543886236135244,1,0.0,0.0,0.0,0.0,0.0,0.0,0.0,0.0,0.0,0.0,0.0,0.0,0.0,0.0,0.0,0.0,0.0,0.0,0.0,0.0,0.0,0.0,0.0,0.0,0.0,-0.166713044047,-9.62032318115,0.274586200714,0.0,0.0,0.0,0.0,0.0,0.0,0.0,0.0,0.0
949082700,433378,1644543886238149643,1,0.0,0.0,0.0,0.0,0.0,0.0,0.0,0.0,0.0,0.0,0.0,0.0,0.0,0.0,0.0,0.0,0.0,0.0,0.0,0.0,0.0,0.0,0.0,0.0,0.0,-0.176519691944,-9.62032318115,0.225552946329,0.0,0.0,0.0,0.0,0.0,0.0,0.0,0.0,0.0
951000700,433379,1644543886240164280,1,0.0,0.0,0.0,0.0,0.0,0.0,0.0,0.0,0.0,0.0,0.0,0.0,0.0,0.0,0.0,0.0,0.0,0.0,0.0,0.0,0.0,0.0,0.0,0.0,0.0,-0.137293100357,-9.62032318115,0.225552946329,0.0,0.0,0.0,0.0,0.0,0.0,0.0,0.0,0.0
952996000,433380,1644543886242178917,1,0.0,0.0,0.0,0.0,0.0,0.0,0.0,0.0,0.0,0.0,0.0,0.0,0.0,0.0,0.0,0.0,0.0,0.0,0.0,0.0,0.0,0.0,0.0,0.0,0.0,-0.176519691944,-9.62032318115,0.196132987738,0.0,0.0,0.0,0.0,0.0,0.0,0.0,0.0,0.0
955085200,433381,1644543886244193554,1,0.0,0.0,0.0,0.0,0.0,0.0,0.0,0.0,0.0,0.0,0.0,0.0,0.0,0.0,0.0,0.0,0.0,0.0,0.0,0.0,0.0,0.0,0.0,0.0,0.0,-0.196132987738,-9.62032318115,0.225552946329,0.0,0.0,0.0,0.0,0.0,0.0,0.0,0.0,0.0
957225700,433382,1644543886246207952,1,0.0,0.0,0.0,0.0,0.0,0.0,0.0,0.0,0.0,0.0,0.0,0.0,0.0,0.0,0.0,0.0,0.0,0.0,0.0,0.0,0.0,0.0,0.0,0.0,0.0,-0.137293100357,-9.64974308014,0.264779537916,0.0,0.0,0.0,0.0,0.0,0.0,0.0,0.0,0.0
959078300,433383,1644543886248222589,1,0.0,0.0,0.0,0.0,0.0,0.0,0.0,0.0,0.0,0.0,0.0,0.0,0.0,0.0,0.0,0.0,0.0,0.0,0.0,0.0,0.0,0.0,0.0,0.0,0.0,-0.166713044047,-9.64974308014,0.274586200714,0.0,0.0,0.0,0.0,0.0,0.0,0.0,0.0,0.0
961069100,433384,1644543886250235319,1,0.0,0.0,0.0,0.0,0.0,0.0,0.0,0.0,0.0,0.0,0.0,0.0,0.0,0.0,0.0,0.0,0.0,0.0,0.0,0.0,0.0,0.0,0.0,0.0,0.0,-0.166713044047,-9.62032318115,0.264779537916,0.0,0.0,0.0,0.0,0.0,0.0,0.0,0.0,0.0
962982500,433385,1644543886252249718,1,0.0,0.0,0.0,0.0,0.0,0.0,0.0,0.0,0.0,0.0,0.0,0.0,0.0,0.0,0.0,0.0,0.0,0.0,0.0,0.0,0.0,0.0,0.0,0.0,0.0,-0.137293100357,-9.57129001617,0.245166242123,0.0,0.0,0.0,0.0,0.0,0.0,0.0,0.0,0.0
965005800,433386,1644543886254264355,1,0.0,0.0,0.0,0.0,0.0,0.0,0.0,0.0,0.0,0.0,0.0,0.0,0.0,0.0,0.0,0.0,0.0,0.0,0.0,0.0,0.0,0.0,0.0,0.0,0.0,-0.176519691944,-9.61051654816,0.137293100357,0.0,0.0,0.0,0.0,0.0,0.0,0.0,0.0,0.0
967000700,433387,1644543886256278992,1,0.0,0.0,0.0,0.0,0.0,0.0,0.0,0.0,0.0,0.0,0.0,0.0,0.0,0.0,0.0,0.0,0.0,0.0,0.0,0.0,0.0,0.0,0.0,0.0,0.0,-0.176519691944,-9.66935634613,0.225552946329,0.0,0.0,0.0,0.0,0.0,0.0,0.0,0.0,0.0
968989300,433388,1644543886258293629,1,0.0,0.0,0.0,0.0,0.0,0.0,0.0,0.0,0.0,0.0,0.0,0.0,0.0,0.0,0.0,0.0,0.0,0.0,0.0,0.0,0.0,0.0,0.0,0.0,0.0,-0.137293100357,-9.62032318115,0.264779537916,0.0,0.0,0.0,0.0,0.0,0.0,0.0,0.0,0.0
971004900,433389,1644543886260308027,1,0.0,0.0,0.0,0.0,0.0,0.0,0.0,0.0,0.0,0.0,0.0,0.0,0.0,0.0,0.0,0.0,0.0,0.0,0.0,0.0,0.0,0.0,0.0,0.0,0.0,-0.225552946329,-9.57129001617,0.245166242123,0.0,0.0,0.0,0.0,0.0,0.0,0.0,0.0,0.0
973282400,433390,1644543886262322664,1,0.0,0.0,0.0,0.0,0.0,0.0,0.0,0.0,0.0,0.0,0.0,0.0,0.0,0.0,0.0,0.0,0.0,0.0,0.0,0.0,0.0,0.0,0.0,0.0,0.0,-0.166713044047,-9.62032318115,0.225552946329,0.0,0.0,0.0,0.0,0.0,0.0,0.0,0.0,0.0
975004800,433391,1644543886264335394,1,0.0,0.0,0.0,0.0,0.0,0.0,0.0,0.0,0.0,0.0,0.0,0.0,0.0,0.0,0.0,0.0,0.0,0.0,0.0,0.0,0.0,0.0,0.0,0.0,0.0,-0.166713044047,-9.62032318115,0.176519691944,0.0,0.0,0.0,0.0,0.0,0.0,0.0,0.0,0.0
976989900,433392,1644543886266349792,1,0.0,0.0,0.0,0.0,0.0,0.0,0.0,0.0,0.0,0.0,0.0,0.0,0.0,0.0,0.0,0.0,0.0,0.0,0.0,0.0,0.0,0.0,0.0,0.0,0.0,-0.137293100357,-9.61051654816,0.245166242123,0.0,0.0,0.0,0.0,0.0,0.0,0.0,0.0,0.0
979050500,433393,1644543886268364429,1,0.0,0.0,0.0,0.0,0.0,0.0,0.0,0.0,0.0,0.0,0.0,0.0,0.0,0.0,0.0,0.0,0.0,0.0,0.0,0.0,0.0,0.0,0.0,0.0,0.0,-0.176519691944,-9.61051654816,0.225552946329,0.0,0.0,0.0,0.0,0.0,0.0,0.0,0.0,0.0
981027700,433394,1644543886270379066,1,0.0,0.0,0.0,0.0,0.0,0.0,0.0,0.0,0.0,0.0,0.0,0.0,0.0,0.0,0.0,0.0,0.0,0.0,0.0,0.0,0.0,0.0,0.0,0.0,0.0,-0.176519691944,-9.61051654816,0.225552946329,0.0,0.0,0.0,0.0,0.0,0.0,0.0,0.0,0.0
983265300,433395,1644543886272393703,1,0.0,0.0,0.0,0.0,0.0,0.0,0.0,0.0,0.0,0.0,0.0,0.0,0.0,0.0,0.0,0.0,0.0,0.0,0.0,0.0,0.0,0.0,0.0,0.0,0.0,-0.196132987738,-9.61051654816,0.245166242123,0.0,0.0,0.0,0.0,0.0,0.0,0.0,0.0,0.0
985152300,433396,1644543886274408102,1,0.0,0.0,0.0,0.0,0.0,0.0,0.0,0.0,0.0,0.0,0.0,0.0,0.0,0.0,0.0,0.0,0.0,0.0,0.0,0.0,0.0,0.0,0.0,0.0,0.0,-0.176519691944,-9.64974308014,0.196132987738,0.0,0.0,0.0,0.0,0.0,0.0,0.0,0.0,0.0
987159900,433397,1644543886276420832,1,0.0,0.0,0.0,0.0,0.0,0.0,0.0,0.0,0.0,0.0,0.0,0.0,0.0,0.0,0.0,0.0,0.0,0.0,0.0,0.0,0.0,0.0,0.0,0.0,0.0,-0.196132987738,-9.62032318115,0.176519691944,0.0,0.0,0.0,0.0,0.0,0.0,0.0,0.0,0.0
989668400,433398,1644543886278435469,1,0.0,0.0,0.0,0.0,0.0,0.0,0.0,0.0,0.0,0.0,0.0,0.0,0.0,0.0,0.0,0.0,0.0,0.0,0.0,0.0,0.0,0.0,0.0,0.0,0.0,-0.176519691944,-9.62032318115,0.225552946329,0.0,0.0,0.0,0.0,0.0,0.0,0.0,0.0,0.0
991644400,433399,1644543886280449867,1,0.0,0.0,0.0,0.0,0.0,0.0,0.0,0.0,0.0,0.0,0.0,0.0,0.0,0.0,0.0,0.0,0.0,0.0,0.0,0.0,0.0,0.0,0.0,0.0,0.0,-0.176519691944,-9.62032318115,0.166713044047,0.0,0.0,0.0,0.0,0.0,0.0,0.0,0.0,0.0
993426300,433400,1644543886282464504,1,0.0,0.0,0.0,0.0,0.0,0.0,0.0,0.0,0.0,0.0,0.0,0.0,0.0,0.0,0.0,0.0,0.0,0.0,0.0,0.0,0.0,0.0,0.0,0.0,0.0,-0.12748645246,-9.58109664917,0.225552946329,0.0,0.0,0.0,0.0,0.0,0.0,0.0,0.0,0.0
995349300,433401,1644543886284477234,1,0.0,0.0,0.0,0.0,0.0,0.0,0.0,0.0,0.0,0.0,0.0,0.0,0.0,0.0,0.0,0.0,0.0,0.0,0.0,0.0,0.0,0.0,0.0,0.0,0.0,-0.176519691944,-9.64974308014,0.225552946329,0.0,0.0,0.0,0.0,0.0,0.0,0.0,0.0,0.0
997274800,433402,1644543886286491871,1,0.0,0.0,0.0,0.0,0.0,0.0,0.0,0.0,0.0,0.0,0.0,0.0,0.0,0.0,0.0,0.0,0.0,0.0,0.0,0.0,0.0,0.0,0.0,0.0,0.0,-0.166713044047,-9.61051654816,0.196132987738,0.0,0.0,0.0,0.0,0.0,0.0,0.0,0.0,0.0
999251500,433403,1644543886288506269,1,0.0,0.0,0.0,0.0,0.0,0.0,0.0,0.0,0.0,0.0,0.0,0.0,0.0,0.0,0.0,0.0,0.0,0.0,0.0,0.0,0.0,0.0,0.0,0.0,0.0,-0.12748645246,-9.62032318115,0.245166242123,0.0,0.0,0.0,0.0,0.0,0.0,0.0,0.0,0.0
1001204300,433404,1644543886290520906,1,0.0,0.0,0.0,0.0,0.0,0.0,0.0,0.0,0.0,0.0,0.0,0.0,0.0,0.0,0.0,0.0,0.0,0.0,0.0,0.0,0.0,0.0,0.0,0.0,0.0,-0.166713044047,-9.61051654816,0.176519691944,0.0,0.0,0.0,0.0,0.0,0.0,0.0,0.0,0.0
1003315100,433405,1644543886292535543,1,0.0,0.0,0.0,0.0,0.0,0.0,0.0,0.0,0.0,0.0,0.0,0.0,0.0,0.0,0.0,0.0,0.0,0.0,0.0,0.0,0.0,0.0,0.0,0.0,0.0,-0.176519691944,-9.61051654816,0.225552946329,0.0,0.0,0.0,0.0,0.0,0.0,0.0,0.0,0.0
1005350400,433406,1644543886294548035,1,0.0,0.0,0.0,0.0,0.0,0.0,0.0,0.0,0.0,0.0,0.0,0.0,0.0,0.0,0.0,0.0,0.0,0.0,0.0,0.0,0.0,0.0,0.0,0.0,0.0,-0.176519691944,-9.58109664917,0.166713044047,0.0,0.0,0.0,0.0,0.0,0.0,0.0,0.0,0.0
1007388200,433407,1644543886296562672,1,0.0,0.0,0.0,0.0,0.0,0.0,0.0,0.0,0.0,0.0,0.0,0.0,0.0,0.0,0.0,0.0,0.0,0.0,0.0,0.0,0.0,0.0,0.0,0.0,0.0,-0.137293100357,-9.61051654816,0.176519691944,0.0,0.0,0.0,0.0,0.0,0.0,0.0,0.0,0.0
1009324100,433408,1644543886298577309,1,0.0,0.0,0.0,0.0,0.0,0.0,0.0,0.0,0.0,0.0,0.0,0.0,0.0,0.0,0.0,0.0,0.0,0.0,0.0,0.0,0.0,0.0,0.0,0.0,0.0,-0.137293100357,-9.58109664917,0.196132987738,0.0,0.0,0.0,0.0,0.0,0.0,0.0,0.0,0.0
1011354000,433409,1644543886300591946,1,0.0,0.0,0.0,0.0,0.0,0.0,0.0,0.0,0.0,0.0,0.0,0.0,0.0,0.0,0.0,0.0,0.0,0.0,0.0,0.0,0.0,0.0,0.0,0.0,0.0,-0.166713044047,-9.58109664917,0.166713044047,0.0,0.0,0.0,0.0,0.0,0.0,0.0,0.0,0.0
1013291300,433410,1644543886302606583,1,0.0,0.0,0.0,0.0,0.0,0.0,0.0,0.0,0.0,0.0,0.0,0.0,0.0,0.0,0.0,0.0,0.0,0.0,0.0,0.0,0.0,0.0,0.0,0.0,0.0,-0.166713044047,-9.62032318115,0.176519691944,0.0,0.0,0.0,0.0,0.0,0.0,0.0,0.0,0.0
1015365100,433411,1644543886304619074,1,0.0,0.0,0.0,0.0,0.0,0.0,0.0,0.0,0.0,0.0,0.0,0.0,0.0,0.0,0.0,0.0,0.0,0.0,0.0,0.0,0.0,0.0,0.0,0.0,0.0,-0.166713044047,-9.66935634613,0.137293100357,0.0,0.0,0.0,0.0,0.0,0.0,0.0,0.0,0.0
1017482100,433412,1644543886306633711,1,0.0,0.0,0.0,0.0,0.0,0.0,0.0,0.0,0.0,0.0,0.0,0.0,0.0,0.0,0.0,0.0,0.0,0.0,0.0,0.0,0.0,0.0,0.0,0.0,0.0,-0.166713044047,-9.62032318115,0.0980664938688,0.0,0.0,0.0,0.0,0.0,0.0,0.0,0.0,0.0
1019399300,433413,1644543886308648348,1,0.0,0.0,0.0,0.0,0.0,0.0,0.0,0.0,0.0,0.0,0.0,0.0,0.0,0.0,0.0,0.0,0.0,0.0,0.0,0.0,0.0,0.0,0.0,0.0,0.0,-0.137293100357,-9.62032318115,0.00980664975941,0.0,0.0,0.0,0.0,0.0,0.0,0.0,0.0,0.0
1021348700,433414,1644543886310660839,1,0.0,0.0,0.0,0.0,0.0,0.0,0.0,0.0,0.0,0.0,0.0,0.0,0.0,0.0,0.0,0.0,0.0,0.0,0.0,0.0,0.0,0.0,0.0,0.0,0.0,-0.137293100357,-9.61051654816,-0.00980664975941,0.0,0.0,0.0,0.0,0.0,0.0,0.0,0.0,0.0
1023546000,433415,1644543886312675476,1,0.0,0.0,0.0,0.0,0.0,0.0,0.0,0.0,0.0,0.0,0.0,0.0,0.0,0.0,0.0,0.0,0.0,0.0,0.0,0.0,0.0,0.0,0.0,0.0,0.0,-0.137293100357,-9.62032318115,-0.0294199492782,0.0,0.0,0.0,0.0,0.0,0.0,0.0,0.0,0.0
1025653500,433416,1644543886314690113,1,0.0,0.0,0.0,0.0,0.0,0.0,0.0,0.0,0.0,0.0,0.0,0.0,0.0,0.0,0.0,0.0,0.0,0.0,0.0,0.0,0.0,0.0,0.0,0.0,0.0,-0.137293100357,-9.67916297913,0.0686465501785,0.0,0.0,0.0,0.0,0.0,0.0,0.0,0.0,0.0
1027507000,433417,1644543886316704750,1,0.0,0.0,0.0,0.0,0.0,0.0,0.0,0.0,0.0,0.0,0.0,0.0,0.0,0.0,0.0,0.0,0.0,0.0,0.0,0.0,0.0,0.0,0.0,0.0,0.0,-0.137293100357,-9.64974308014,0.225552946329,0.0,0.0,0.0,0.0,0.0,0.0,0.0,0.0,0.0
1029482900,433418,1644543886318719149,1,0.0,0.0,0.0,0.0,0.0,0.0,0.0,0.0,0.0,0.0,0.0,0.0,0.0,0.0,0.0,0.0,0.0,0.0,0.0,0.0,0.0,0.0,0.0,0.0,0.0,-0.176519691944,-9.62032318115,0.196132987738,0.0,0.0,0.0,0.0,0.0,0.0,0.0,0.0,0.0
1031475000,433419,1644543886320733786,1,0.0,0.0,0.0,0.0,0.0,0.0,0.0,0.0,0.0,0.0,0.0,0.0,0.0,0.0,0.0,0.0,0.0,0.0,0.0,0.0,0.0,0.0,0.0,0.0,0.0,-0.225552946329,-9.62032318115,0.0686465501785,0.0,0.0,0.0,0.0,0.0,0.0,0.0,0.0,0.0
1033452500,433420,1644543886322746515,1,0.0,0.0,0.0,0.0,0.0,0.0,0.0,0.0,0.0,0.0,0.0,0.0,0.0,0.0,0.0,0.0,0.0,0.0,0.0,0.0,0.0,0.0,0.0,0.0,0.0,-0.0980664938688,-9.58109664917,0.0784531980753,0.0,0.0,0.0,0.0,0.0,0.0,0.0,0.0,0.0
1035521800,433421,1644543886324761152,1,0.0,0.0,0.0,0.0,0.0,0.0,0.0,0.0,0.0,0.0,0.0,0.0,0.0,0.0,0.0,0.0,0.0,0.0,0.0,0.0,0.0,0.0,0.0,0.0,0.0,-0.0980664938688,-9.66935634613,0.12748645246,0.0,0.0,0.0,0.0,0.0,0.0,0.0,0.0,0.0
1037761100,433422,1644543886326775551,1,0.0,0.0,0.0,0.0,0.0,0.0,0.0,0.0,0.0,0.0,0.0,0.0,0.0,0.0,0.0,0.0,0.0,0.0,0.0,0.0,0.0,0.0,0.0,0.0,0.0,-0.264779537916,-9.62032318115,0.558979034424,0.0,0.0,0.0,0.0,0.0,0.0,0.0,0.0,0.0
1039879400,433423,1644543886328790188,1,0.0,0.0,0.0,0.0,0.0,0.0,0.0,0.0,0.0,0.0,0.0,0.0,0.0,0.0,0.0,0.0,0.0,0.0,0.0,0.0,0.0,0.0,0.0,0.0,0.0,-0.264779537916,-9.58109664917,0.774725317955,0.0,0.0,0.0,0.0,0.0,0.0,0.0,0.0,0.0
1041825100,433424,1644543886330804825,1,0.0,0.0,0.0,0.0,0.0,0.0,0.0,0.0,0.0,0.0,0.0,0.0,0.0,0.0,0.0,0.0,0.0,0.0,0.0,0.0,0.0,0.0,0.0,0.0,0.0,-0.137293100357,-9.62032318115,0.38245934248,0.0,0.0,0.0,0.0,0.0,0.0,0.0,0.0,0.0
1043829400,433425,1644543886332817554,1,0.0,0.0,0.0,0.0,0.0,0.0,0.0,0.0,0.0,0.0,0.0,0.0,0.0,0.0,0.0,0.0,0.0,0.0,0.0,0.0,0.0,0.0,0.0,0.0,0.0,-0.166713044047,-9.66935634613,0.166713044047,0.0,0.0,0.0,0.0,0.0,0.0,0.0,0.0,0.0
1045476600,433426,1644543886334831953,1,0.0,0.0,0.0,0.0,0.0,0.0,0.0,0.0,0.0,0.0,0.0,0.0,0.0,0.0,0.0,0.0,0.0,0.0,0.0,0.0,0.0,0.0,0.0,0.0,0.0,-0.176519691944,-9.61051654816,0.166713044047,0.0,0.0,0.0,0.0,0.0,0.0,0.0,0.0,0.0
1047768700,433427,1644543886336846590,1,0.0,0.0,0.0,0.0,0.0,0.0,0.0,0.0,0.0,0.0,0.0,0.0,0.0,0.0,0.0,0.0,0.0,0.0,0.0,0.0,0.0,0.0,0.0,0.0,0.0,-0.176519691944,-9.62032318115,0.264779537916,0.0,0.0,0.0,0.0,0.0,0.0,0.0,0.0,0.0
1049774500,433428,1644543886338861227,1,0.0,0.0,0.0,0.0,0.0,0.0,0.0,0.0,0.0,0.0,0.0,0.0,0.0,0.0,0.0,0.0,0.0,0.0,0.0,0.0,0.0,0.0,0.0,0.0,0.0,-0.225552946329,-9.62032318115,0.294199496508,0.0,0.0,0.0,0.0,0.0,0.0,0.0,0.0,0.0
1051856800,433429,1644543886340873957,1,0.0,0.0,0.0,0.0,0.0,0.0,0.0,0.0,0.0,0.0,0.0,0.0,0.0,0.0,0.0,0.0,0.0,0.0,0.0,0.0,0.0,0.0,0.0,0.0,0.0,-0.196132987738,-9.58109664917,0.274586200714,0.0,0.0,0.0,0.0,0.0,0.0,0.0,0.0,0.0
1054070900,433430,1644543886342888355,1,0.0,0.0,0.0,0.0,0.0,0.0,0.0,0.0,0.0,0.0,0.0,0.0,0.0,0.0,0.0,0.0,0.0,0.0,0.0,0.0,0.0,0.0,0.0,0.0,0.0,-0.196132987738,-9.62032318115,0.245166242123,0.0,0.0,0.0,0.0,0.0,0.0,0.0,0.0,0.0
1055807400,433431,1644543886344902992,1,0.0,0.0,0.0,0.0,0.0,0.0,0.0,0.0,0.0,0.0,0.0,0.0,0.0,0.0,0.0,0.0,0.0,0.0,0.0,0.0,0.0,0.0,0.0,0.0,0.0,-0.176519691944,-9.64974308014,0.225552946329,0.0,0.0,0.0,0.0,0.0,0.0,0.0,0.0,0.0
1057760500,433432,1644543886346917629,1,0.0,0.0,0.0,0.0,0.0,0.0,0.0,0.0,0.0,0.0,0.0,0.0,0.0,0.0,0.0,0.0,0.0,0.0,0.0,0.0,0.0,0.0,0.0,0.0,0.0,-0.166713044047,-9.61051654816,0.225552946329,0.0,0.0,0.0,0.0,0.0,0.0,0.0,0.0,0.0
1059819100,433433,1644543886348932266,1,0.0,0.0,0.0,0.0,0.0,0.0,0.0,0.0,0.0,0.0,0.0,0.0,0.0,0.0,0.0,0.0,0.0,0.0,0.0,0.0,0.0,0.0,0.0,0.0,0.0,-0.196132987738,-9.62032318115,0.166713044047,0.0,0.0,0.0,0.0,0.0,0.0,0.0,0.0,0.0
1061770800,433434,1644543886350944757,1,0.0,0.0,0.0,0.0,0.0,0.0,0.0,0.0,0.0,0.0,0.0,0.0,0.0,0.0,0.0,0.0,0.0,0.0,0.0,0.0,0.0,0.0,0.0,0.0,0.0,-0.176519691944,-9.62032318115,0.264779537916,0.0,0.0,0.0,0.0,0.0,0.0,0.0,0.0,0.0
1063735800,433435,1644543886352959394,1,0.0,0.0,0.0,0.0,0.0,0.0,0.0,0.0,0.0,0.0,0.0,0.0,0.0,0.0,0.0,0.0,0.0,0.0,0.0,0.0,0.0,0.0,0.0,0.0,0.0,-0.166713044047,-9.62032318115,0.225552946329,0.0,0.0,0.0,0.0,0.0,0.0,0.0,0.0,0.0
1065847900,433436,1644543886354974031,1,0.0,0.0,0.0,0.0,0.0,0.0,0.0,0.0,0.0,0.0,0.0,0.0,0.0,0.0,0.0,0.0,0.0,0.0,0.0,0.0,0.0,0.0,0.0,0.0,0.0,-0.166713044047,-9.61051654816,0.264779537916,0.0,0.0,0.0,0.0,0.0,0.0,0.0,0.0,0.0
1067868600,433437,1644543886356988668,1,0.0,0.0,0.0,0.0,0.0,0.0,0.0,0.0,0.0,0.0,0.0,0.0,0.0,0.0,0.0,0.0,0.0,0.0,0.0,0.0,0.0,0.0,0.0,0.0,0.0,-0.166713044047,-9.61051654816,0.264779537916,0.0,0.0,0.0,0.0,0.0,0.0,0.0,0.0,0.0
1069865200,433438,1644543886359001398,1,0.0,0.0,0.0,0.0,0.0,0.0,0.0,0.0,0.0,0.0,0.0,0.0,0.0,0.0,0.0,0.0,0.0,0.0,0.0,0.0,0.0,0.0,0.0,0.0,0.0,-0.176519691944,-9.62032318115,0.196132987738,0.0,0.0,0.0,0.0,0.0,0.0,0.0,0.0,0.0
1071941700,433439,1644543886361015797,1,0.0,0.0,0.0,0.0,0.0,0.0,0.0,0.0,0.0,0.0,0.0,0.0,0.0,0.0,0.0,0.0,0.0,0.0,0.0,0.0,0.0,0.0,0.0,0.0,0.0,-0.225552946329,-9.61051654816,0.313812792301,0.0,0.0,0.0,0.0,0.0,0.0,0.0,0.0,0.0
1073845500,433440,1644543886363030434,1,0.0,0.0,0.0,0.0,0.0,0.0,0.0,0.0,0.0,0.0,0.0,0.0,0.0,0.0,0.0,0.0,0.0,0.0,0.0,0.0,0.0,0.0,0.0,0.0,0.0,-0.196132987738,-9.58109664917,0.166713044047,0.0,0.0,0.0,0.0,0.0,0.0,0.0,0.0,0.0
1075943400,433441,1644543886365045071,1,0.0,0.0,0.0,0.0,0.0,0.0,0.0,0.0,0.0,0.0,0.0,0.0,0.0,0.0,0.0,0.0,0.0,0.0,0.0,0.0,0.0,0.0,0.0,0.0,0.0,-0.166713044047,-9.58109664917,0.245166242123,0.0,0.0,0.0,0.0,0.0,0.0,0.0,0.0,0.0
1077916600,433442,1644543886367059708,1,0.0,0.0,0.0,0.0,0.0,0.0,0.0,0.0,0.0,0.0,0.0,0.0,0.0,0.0,0.0,0.0,0.0,0.0,0.0,0.0,0.0,0.0,0.0,0.0,0.0,-0.196132987738,-9.61051654816,0.225552946329,0.0,0.0,0.0,0.0,0.0,0.0,0.0,0.0,0.0
1079784400,433443,1644543886369072199,1,0.0,0.0,0.0,0.0,0.0,0.0,0.0,0.0,0.0,0.0,0.0,0.0,0.0,0.0,0.0,0.0,0.0,0.0,0.0,0.0,0.0,0.0,0.0,0.0,0.0,-0.176519691944,-9.62032318115,0.176519691944,0.0,0.0,0.0,0.0,0.0,0.0,0.0,0.0,0.0
1081789000,433444,1644543886371086836,1,0.0,0.0,0.0,0.0,0.0,0.0,0.0,0.0,0.0,0.0,0.0,0.0,0.0,0.0,0.0,0.0,0.0,0.0,0.0,0.0,0.0,0.0,0.0,0.0,0.0,-0.196132987738,-9.61051654816,0.225552946329,0.0,0.0,0.0,0.0,0.0,0.0,0.0,0.0,0.0
1084388800,433445,1644543886373101473,1,0.0,0.0,0.0,0.0,0.0,0.0,0.0,0.0,0.0,0.0,0.0,0.0,0.0,0.0,0.0,0.0,0.0,0.0,0.0,0.0,0.0,0.0,0.0,0.0,0.0,-0.137293100357,-9.61051654816,0.274586200714,0.0,0.0,0.0,0.0,0.0,0.0,0.0,0.0,0.0
1086147400,433446,1644543886375116110,1,0.0,0.0,0.0,0.0,0.0,0.0,0.0,0.0,0.0,0.0,0.0,0.0,0.0,0.0,0.0,0.0,0.0,0.0,0.0,0.0,0.0,0.0,0.0,0.0,0.0,-0.176519691944,-9.58109664917,0.196132987738,0.0,0.0,0.0,0.0,0.0,0.0,0.0,0.0,0.0
1087837600,433447,1644543886377128839,1,0.0,0.0,0.0,0.0,0.0,0.0,0.0,0.0,0.0,0.0,0.0,0.0,0.0,0.0,0.0,0.0,0.0,0.0,0.0,0.0,0.0,0.0,0.0,0.0,0.0,-0.176519691944,-9.62032318115,0.225552946329,0.0,0.0,0.0,0.0,0.0,0.0,0.0,0.0,0.0
1089759900,433448,1644543886379143238,1,0.0,0.0,0.0,0.0,0.0,0.0,0.0,0.0,0.0,0.0,0.0,0.0,0.0,0.0,0.0,0.0,0.0,0.0,0.0,0.0,0.0,0.0,0.0,0.0,0.0,-0.176519691944,-9.58109664917,0.245166242123,0.0,0.0,0.0,0.0,0.0,0.0,0.0,0.0,0.0
1091760100,433449,1644543886381157875,1,0.0,0.0,0.0,0.0,0.0,0.0,0.0,0.0,0.0,0.0,0.0,0.0,0.0,0.0,0.0,0.0,0.0,0.0,0.0,0.0,0.0,0.0,0.0,0.0,0.0,-0.176519691944,-9.61051654816,0.137293100357,0.0,0.0,0.0,0.0,0.0,0.0,0.0,0.0,0.0
1093802800,433450,1644543886383172512,1,0.0,0.0,0.0,0.0,0.0,0.0,0.0,0.0,0.0,0.0,0.0,0.0,0.0,0.0,0.0,0.0,0.0,0.0,0.0,0.0,0.0,0.0,0.0,0.0,0.0,-0.166713044047,-9.61051654816,0.245166242123,0.0,0.0,0.0,0.0,0.0,0.0,0.0,0.0,0.0
1095996700,433451,1644543886385185242,1,0.0,0.0,0.0,0.0,0.0,0.0,0.0,0.0,0.0,0.0,0.0,0.0,0.0,0.0,0.0,0.0,0.0,0.0,0.0,0.0,0.0,0.0,0.0,0.0,0.0,-0.176519691944,-9.58109664917,0.176519691944,0.0,0.0,0.0,0.0,0.0,0.0,0.0,0.0,0.0
1097883000,433452,1644543886387199879,1,0.0,0.0,0.0,0.0,0.0,0.0,0.0,0.0,0.0,0.0,0.0,0.0,0.0,0.0,0.0,0.0,0.0,0.0,0.0,0.0,0.0,0.0,0.0,0.0,0.0,-0.196132987738,-9.62032318115,0.166713044047,0.0,0.0,0.0,0.0,0.0,0.0,0.0,0.0,0.0
1100050400,433453,1644543886389214277,1,0.0,0.0,0.0,0.0,0.0,0.0,0.0,0.0,0.0,0.0,0.0,0.0,0.0,0.0,0.0,0.0,0.0,0.0,0.0,0.0,0.0,0.0,0.0,0.0,0.0,-0.196132987738,-9.64974308014,0.166713044047,0.0,0.0,0.0,0.0,0.0,0.0,0.0,0.0,0.0
1102108000,433454,1644543886391228914,1,0.0,0.0,0.0,0.0,0.0,0.0,0.0,0.0,0.0,0.0,0.0,0.0,0.0,0.0,0.0,0.0,0.0,0.0,0.0,0.0,0.0,0.0,0.0,0.0,0.0,-0.196132987738,-9.57129001617,0.166713044047,0.0,0.0,0.0,0.0,0.0,0.0,0.0,0.0,0.0
1103953800,433455,1644543886393243551,1,0.0,0.0,0.0,0.0,0.0,0.0,0.0,0.0,0.0,0.0,0.0,0.0,0.0,0.0,0.0,0.0,0.0,0.0,0.0,0.0,0.0,0.0,0.0,0.0,0.0,-0.196132987738,-9.61051654816,0.176519691944,0.0,0.0,0.0,0.0,0.0,0.0,0.0,0.0,0.0
1106064500,433456,1644543886395258188,1,0.0,0.0,0.0,0.0,0.0,0.0,0.0,0.0,0.0,0.0,0.0,0.0,0.0,0.0,0.0,0.0,0.0,0.0,0.0,0.0,0.0,0.0,0.0,0.0,0.0,-0.176519691944,-9.61051654816,0.176519691944,0.0,0.0,0.0,0.0,0.0,0.0,0.0,0.0,0.0
1107989200,433457,1644543886397270918,1,0.0,0.0,0.0,0.0,0.0,0.0,0.0,0.0,0.0,0.0,0.0,0.0,0.0,0.0,0.0,0.0,0.0,0.0,0.0,0.0,0.0,0.0,0.0,0.0,0.0,-0.176519691944,-9.61051654816,0.196132987738,0.0,0.0,0.0,0.0,0.0,0.0,0.0,0.0,0.0
1110020500,433458,1644543886399285316,1,0.0,0.0,0.0,0.0,0.0,0.0,0.0,0.0,0.0,0.0,0.0,0.0,0.0,0.0,0.0,0.0,0.0,0.0,0.0,0.0,0.0,0.0,0.0,0.0,0.0,-0.196132987738,-9.61051654816,0.166713044047,0.0,0.0,0.0,0.0,0.0,0.0,0.0,0.0,0.0
1112003800,433459,1644543886401299953,1,0.0,0.0,0.0,0.0,0.0,0.0,0.0,0.0,0.0,0.0,0.0,0.0,0.0,0.0,0.0,0.0,0.0,0.0,0.0,0.0,0.0,0.0,0.0,0.0,0.0,-0.166713044047,-9.62032318115,0.196132987738,0.0,0.0,0.0,0.0,0.0,0.0,0.0,0.0,0.0
1114156600,433460,1644543886403314590,1,0.0,0.0,0.0,0.0,0.0,0.0,0.0,0.0,0.0,0.0,0.0,0.0,0.0,0.0,0.0,0.0,0.0,0.0,0.0,0.0,0.0,0.0,0.0,0.0,0.0,-0.196132987738,-9.61051654816,0.176519691944,0.0,0.0,0.0,0.0,0.0,0.0,0.0,0.0,0.0
1116214700,433461,1644543886405329227,1,0.0,0.0,0.0,0.0,0.0,0.0,0.0,0.0,0.0,0.0,0.0,0.0,0.0,0.0,0.0,0.0,0.0,0.0,0.0,0.0,0.0,0.0,0.0,0.0,0.0,-0.166713044047,-9.58109664917,0.166713044047,0.0,0.0,0.0,0.0,0.0,0.0,0.0,0.0,0.0
1118237500,433462,1644543886407344103,1,0.0,0.0,0.0,0.0,0.0,0.0,0.0,0.0,0.0,0.0,0.0,0.0,0.0,0.0,0.0,0.0,0.0,0.0,0.0,0.0,0.0,0.0,0.0,0.0,0.0,-0.12748645246,-9.64974308014,0.176519691944,0.0,0.0,0.0,0.0,0.0,0.0,0.0,0.0,0.0
1120067600,433463,1644543886409356594,1,0.0,0.0,0.0,0.0,0.0,0.0,0.0,0.0,0.0,0.0,0.0,0.0,0.0,0.0,0.0,0.0,0.0,0.0,0.0,0.0,0.0,0.0,0.0,0.0,0.0,-0.176519691944,-9.61051654816,0.176519691944,0.0,0.0,0.0,0.0,0.0,0.0,0.0,0.0,0.0
1122341900,433464,1644543886411370993,1,0.0,0.0,0.0,0.0,0.0,0.0,0.0,0.0,0.0,0.0,0.0,0.0,0.0,0.0,0.0,0.0,0.0,0.0,0.0,0.0,0.0,0.0,0.0,0.0,0.0,-0.166713044047,-9.62032318115,0.176519691944,0.0,0.0,0.0,0.0,0.0,0.0,0.0,0.0,0.0
1124110600,433465,1644543886413385630,1,0.0,0.0,0.0,0.0,0.0,0.0,0.0,0.0,0.0,0.0,0.0,0.0,0.0,0.0,0.0,0.0,0.0,0.0,0.0,0.0,0.0,0.0,0.0,0.0,0.0,-0.176519691944,-9.58109664917,0.264779537916,0.0,0.0,0.0,0.0,0.0,0.0,0.0,0.0,0.0
1126181800,433466,1644543886415398359,1,0.0,0.0,0.0,0.0,0.0,0.0,0.0,0.0,0.0,0.0,0.0,0.0,0.0,0.0,0.0,0.0,0.0,0.0,0.0,0.0,0.0,0.0,0.0,0.0,0.0,-0.166713044047,-9.64974308014,0.264779537916,0.0,0.0,0.0,0.0,0.0,0.0,0.0,0.0,0.0
1128205700,433467,1644543886417412996,1,0.0,0.0,0.0,0.0,0.0,0.0,0.0,0.0,0.0,0.0,0.0,0.0,0.0,0.0,0.0,0.0,0.0,0.0,0.0,0.0,0.0,0.0,0.0,0.0,0.0,-0.196132987738,-9.58109664917,0.225552946329,0.0,0.0,0.0,0.0,0.0,0.0,0.0,0.0,0.0
1130002700,433468,1644543886419427633,1,0.0,0.0,0.0,0.0,0.0,0.0,0.0,0.0,0.0,0.0,0.0,0.0,0.0,0.0,0.0,0.0,0.0,0.0,0.0,0.0,0.0,0.0,0.0,0.0,0.0,-0.196132987738,-9.61051654816,0.225552946329,0.0,0.0,0.0,0.0,0.0,0.0,0.0,0.0,0.0
1131996400,433469,1644543886421442270,1,0.0,0.0,0.0,0.0,0.0,0.0,0.0,0.0,0.0,0.0,0.0,0.0,0.0,0.0,0.0,0.0,0.0,0.0,0.0,0.0,0.0,0.0,0.0,0.0,0.0,-0.137293100357,-9.62032318115,0.245166242123,0.0,0.0,0.0,0.0,0.0,0.0,0.0,0.0,0.0
1134042600,433470,1644543886423454762,1,0.0,0.0,0.0,0.0,0.0,0.0,0.0,0.0,0.0,0.0,0.0,0.0,0.0,0.0,0.0,0.0,0.0,0.0,0.0,0.0,0.0,0.0,0.0,0.0,0.0,-0.166713044047,-9.62032318115,0.166713044047,0.0,0.0,0.0,0.0,0.0,0.0,0.0,0.0,0.0
1136033500,433471,1644543886425469398,1,0.0,0.0,0.0,0.0,0.0,0.0,0.0,0.0,0.0,0.0,0.0,0.0,0.0,0.0,0.0,0.0,0.0,0.0,0.0,0.0,0.0,0.0,0.0,0.0,0.0,-0.176519691944,-9.61051654816,0.176519691944,0.0,0.0,0.0,0.0,0.0,0.0,0.0,0.0,0.0
1138559600,433472,1644543886427484035,1,0.0,0.0,0.0,0.0,0.0,0.0,0.0,0.0,0.0,0.0,0.0,0.0,0.0,0.0,0.0,0.0,0.0,0.0,0.0,0.0,0.0,0.0,0.0,0.0,0.0,-0.166713044047,-9.58109664917,0.245166242123,0.0,0.0,0.0,0.0,0.0,0.0,0.0,0.0,0.0
1140259300,433473,1644543886429498672,1,0.0,0.0,0.0,0.0,0.0,0.0,0.0,0.0,0.0,0.0,0.0,0.0,0.0,0.0,0.0,0.0,0.0,0.0,0.0,0.0,0.0,0.0,0.0,0.0,0.0,-0.225552946329,-9.64974308014,0.245166242123,0.0,0.0,0.0,0.0,0.0,0.0,0.0,0.0,0.0
1142211900,433474,1644543886431513309,1,0.0,0.0,0.0,0.0,0.0,0.0,0.0,0.0,0.0,0.0,0.0,0.0,0.0,0.0,0.0,0.0,0.0,0.0,0.0,0.0,0.0,0.0,0.0,0.0,0.0,-0.166713044047,-9.64974308014,0.245166242123,0.0,0.0,0.0,0.0,0.0,0.0,0.0,0.0,0.0
1144279500,433475,1644543886433525801,1,0.0,0.0,0.0,0.0,0.0,0.0,0.0,0.0,0.0,0.0,0.0,0.0,0.0,0.0,0.0,0.0,0.0,0.0,0.0,0.0,0.0,0.0,0.0,0.0,0.0,-0.166713044047,-9.62032318115,0.245166242123,0.0,0.0,0.0,0.0,0.0,0.0,0.0,0.0,0.0
1146885400,433476,1644543886435540438,1,0.0,0.0,0.0,0.0,0.0,0.0,0.0,0.0,0.0,0.0,0.0,0.0,0.0,0.0,0.0,0.0,0.0,0.0,0.0,0.0,0.0,0.0,0.0,0.0,0.0,-0.176519691944,-9.64974308014,0.245166242123,0.0,0.0,0.0,0.0,0.0,0.0,0.0,0.0,0.0
1148400000,433477,1644543886437555075,1,0.0,0.0,0.0,0.0,0.0,0.0,0.0,0.0,0.0,0.0,0.0,0.0,0.0,0.0,0.0,0.0,0.0,0.0,0.0,0.0,0.0,0.0,0.0,0.0,0.0,-0.225552946329,-9.61051654816,0.176519691944,0.0,0.0,0.0,0.0,0.0,0.0,0.0,0.0,0.0
1150536200,433478,1644543886439567804,1,0.0,0.0,0.0,0.0,0.0,0.0,0.0,0.0,0.0,0.0,0.0,0.0,0.0,0.0,0.0,0.0,0.0,0.0,0.0,0.0,0.0,0.0,0.0,0.0,0.0,-0.166713044047,-9.67916297913,0.225552946329,0.0,0.0,0.0,0.0,0.0,0.0,0.0,0.0,0.0
1152545700,433479,1644543886441582441,1,0.0,0.0,0.0,0.0,0.0,0.0,0.0,0.0,0.0,0.0,0.0,0.0,0.0,0.0,0.0,0.0,0.0,0.0,0.0,0.0,0.0,0.0,0.0,0.0,0.0,-0.12748645246,-9.62032318115,0.176519691944,0.0,0.0,0.0,0.0,0.0,0.0,0.0,0.0,0.0
1154866400,433480,1644543886443597078,1,0.0,0.0,0.0,0.0,0.0,0.0,0.0,0.0,0.0,0.0,0.0,0.0,0.0,0.0,0.0,0.0,0.0,0.0,0.0,0.0,0.0,0.0,0.0,0.0,0.0,-0.196132987738,-9.62032318115,0.225552946329,0.0,0.0,0.0,0.0,0.0,0.0,0.0,0.0,0.0
1156614100,433481,1644543886445611477,1,0.0,0.0,0.0,0.0,0.0,0.0,0.0,0.0,0.0,0.0,0.0,0.0,0.0,0.0,0.0,0.0,0.0,0.0,0.0,0.0,0.0,0.0,0.0,0.0,0.0,-0.176519691944,-9.62032318115,0.245166242123,0.0,0.0,0.0,0.0,0.0,0.0,0.0,0.0,0.0
1158279900,433482,1644543886447624207,1,0.0,0.0,0.0,0.0,0.0,0.0,0.0,0.0,0.0,0.0,0.0,0.0,0.0,0.0,0.0,0.0,0.0,0.0,0.0,0.0,0.0,0.0,0.0,0.0,0.0,-0.137293100357,-9.62032318115,0.245166242123,0.0,0.0,0.0,0.0,0.0,0.0,0.0,0.0,0.0
1160504800,433483,1644543886449638844,1,0.0,0.0,0.0,0.0,0.0,0.0,0.0,0.0,0.0,0.0,0.0,0.0,0.0,0.0,0.0,0.0,0.0,0.0,0.0,0.0,0.0,0.0,0.0,0.0,0.0,-0.166713044047,-9.62032318115,0.176519691944,0.0,0.0,0.0,0.0,0.0,0.0,0.0,0.0,0.0
1162531900,433484,1644543886451653481,1,0.0,0.0,0.0,0.0,0.0,0.0,0.0,0.0,0.0,0.0,0.0,0.0,0.0,0.0,0.0,0.0,0.0,0.0,0.0,0.0,0.0,0.0,0.0,0.0,0.0,-0.196132987738,-9.62032318115,0.225552946329,0.0,0.0,0.0,0.0,0.0,0.0,0.0,0.0,0.0
1164492600,433485,1644543886453668118,1,0.0,0.0,0.0,0.0,0.0,0.0,0.0,0.0,0.0,0.0,0.0,0.0,0.0,0.0,0.0,0.0,0.0,0.0,0.0,0.0,0.0,0.0,0.0,0.0,0.0,-0.166713044047,-9.61051654816,0.176519691944,0.0,0.0,0.0,0.0,0.0,0.0,0.0,0.0,0.0
1166500000,433486,1644543886455680609,1,0.0,0.0,0.0,0.0,0.0,0.0,0.0,0.0,0.0,0.0,0.0,0.0,0.0,0.0,0.0,0.0,0.0,0.0,0.0,0.0,0.0,0.0,0.0,0.0,0.0,-0.137293100357,-9.62032318115,0.196132987738,0.0,0.0,0.0,0.0,0.0,0.0,0.0,0.0,0.0
1168491700,433487,1644543886457695246,1,0.0,0.0,0.0,0.0,0.0,0.0,0.0,0.0,0.0,0.0,0.0,0.0,0.0,0.0,0.0,0.0,0.0,0.0,0.0,0.0,0.0,0.0,0.0,0.0,0.0,-0.137293100357,-9.61051654816,0.264779537916,0.0,0.0,0.0,0.0,0.0,0.0,0.0,0.0,0.0
1170495400,433488,1644543886459709883,1,0.0,0.0,0.0,0.0,0.0,0.0,0.0,0.0,0.0,0.0,0.0,0.0,0.0,0.0,0.0,0.0,0.0,0.0,0.0,0.0,0.0,0.0,0.0,0.0,0.0,-0.166713044047,-9.62032318115,0.225552946329,0.0,0.0,0.0,0.0,0.0,0.0,0.0,0.0,0.0
1172553300,433489,1644543886461724520,1,0.0,0.0,0.0,0.0,0.0,0.0,0.0,0.0,0.0,0.0,0.0,0.0,0.0,0.0,0.0,0.0,0.0,0.0,0.0,0.0,0.0,0.0,0.0,0.0,0.0,-0.137293100357,-9.58109664917,0.245166242123,0.0,0.0,0.0,0.0,0.0,0.0,0.0,0.0,0.0
1174541300,433490,1644543886463737249,1,0.0,0.0,0.0,0.0,0.0,0.0,0.0,0.0,0.0,0.0,0.0,0.0,0.0,0.0,0.0,0.0,0.0,0.0,0.0,0.0,0.0,0.0,0.0,0.0,0.0,-0.166713044047,-9.67916297913,0.196132987738,0.0,0.0,0.0,0.0,0.0,0.0,0.0,0.0,0.0
1176664800,433491,1644543886465751886,1,0.0,0.0,0.0,0.0,0.0,0.0,0.0,0.0,0.0,0.0,0.0,0.0,0.0,0.0,0.0,0.0,0.0,0.0,0.0,0.0,0.0,0.0,0.0,0.0,0.0,-0.166713044047,-9.64974308014,0.196132987738,0.0,0.0,0.0,0.0,0.0,0.0,0.0,0.0,0.0
1178529300,433492,1644543886467766523,1,0.0,0.0,0.0,0.0,0.0,0.0,0.0,0.0,0.0,0.0,0.0,0.0,0.0,0.0,0.0,0.0,0.0,0.0,0.0,0.0,0.0,0.0,0.0,0.0,0.0,-0.166713044047,-9.66935634613,0.196132987738,0.0,0.0,0.0,0.0,0.0,0.0,0.0,0.0,0.0
1180492700,433493,1644543886469779015,1,0.0,0.0,0.0,0.0,0.0,0.0,0.0,0.0,0.0,0.0,0.0,0.0,0.0,0.0,0.0,0.0,0.0,0.0,0.0,0.0,0.0,0.0,0.0,0.0,0.0,-0.166713044047,-9.64974308014,0.176519691944,0.0,0.0,0.0,0.0,0.0,0.0,0.0,0.0,0.0
1182495800,433494,1644543886471793652,1,0.0,0.0,0.0,0.0,0.0,0.0,0.0,0.0,0.0,0.0,0.0,0.0,0.0,0.0,0.0,0.0,0.0,0.0,0.0,0.0,0.0,0.0,0.0,0.0,0.0,-0.12748645246,-9.64974308014,0.225552946329,0.0,0.0,0.0,0.0,0.0,0.0,0.0,0.0,0.0
1184466000,433495,1644543886473808289,1,0.0,0.0,0.0,0.0,0.0,0.0,0.0,0.0,0.0,0.0,0.0,0.0,0.0,0.0,0.0,0.0,0.0,0.0,0.0,0.0,0.0,0.0,0.0,0.0,0.0,-0.166713044047,-9.62032318115,0.225552946329,0.0,0.0,0.0,0.0,0.0,0.0,0.0,0.0,0.0
1186607600,433496,1644543886475822926,1,0.0,0.0,0.0,0.0,0.0,0.0,0.0,0.0,0.0,0.0,0.0,0.0,0.0,0.0,0.0,0.0,0.0,0.0,0.0,0.0,0.0,0.0,0.0,0.0,0.0,-0.137293100357,-9.64974308014,0.225552946329,0.0,0.0,0.0,0.0,0.0,0.0,0.0,0.0,0.0
1188885700,433497,1644543886477835655,1,0.0,0.0,0.0,0.0,0.0,0.0,0.0,0.0,0.0,0.0,0.0,0.0,0.0,0.0,0.0,0.0,0.0,0.0,0.0,0.0,0.0,0.0,0.0,0.0,0.0,-0.137293100357,-9.62032318115,0.196132987738,0.0,0.0,0.0,0.0,0.0,0.0,0.0,0.0,0.0
1190698200,433498,1644543886479850292,1,0.0,0.0,0.0,0.0,0.0,0.0,0.0,0.0,0.0,0.0,0.0,0.0,0.0,0.0,0.0,0.0,0.0,0.0,0.0,0.0,0.0,0.0,0.0,0.0,0.0,-0.176519691944,-9.64974308014,0.274586200714,0.0,0.0,0.0,0.0,0.0,0.0,0.0,0.0,0.0
1192702000,433499,1644543886481862783,1,0.0,0.0,0.0,0.0,0.0,0.0,0.0,0.0,0.0,0.0,0.0,0.0,0.0,0.0,0.0,0.0,0.0,0.0,0.0,0.0,0.0,0.0,0.0,0.0,0.0,-0.137293100357,-9.62032318115,0.196132987738,0.0,0.0,0.0,0.0,0.0,0.0,0.0,0.0,0.0
1194790300,433500,1644543886483877420,1,0.0,0.0,0.0,0.0,0.0,0.0,0.0,0.0,0.0,0.0,0.0,0.0,0.0,0.0,0.0,0.0,0.0,0.0,0.0,0.0,0.0,0.0,0.0,0.0,0.0,-0.166713044047,-9.66935634613,0.196132987738,0.0,0.0,0.0,0.0,0.0,0.0,0.0,0.0,0.0
1196658400,433501,1644543886485892057,1,0.0,0.0,0.0,0.0,0.0,0.0,0.0,0.0,0.0,0.0,0.0,0.0,0.0,0.0,0.0,0.0,0.0,0.0,0.0,0.0,0.0,0.0,0.0,0.0,0.0,-0.166713044047,-9.61051654816,0.225552946329,0.0,0.0,0.0,0.0,0.0,0.0,0.0,0.0,0.0
1198833100,433502,1644543886487906694,1,0.0,0.0,0.0,0.0,0.0,0.0,0.0,0.0,0.0,0.0,0.0,0.0,0.0,0.0,0.0,0.0,0.0,0.0,0.0,0.0,0.0,0.0,0.0,0.0,0.0,-0.196132987738,-9.66935634613,0.264779537916,0.0,0.0,0.0,0.0,0.0,0.0,0.0,0.0,0.0
1200646100,433503,1644543886489919424,1,0.0,0.0,0.0,0.0,0.0,0.0,0.0,0.0,0.0,0.0,0.0,0.0,0.0,0.0,0.0,0.0,0.0,0.0,0.0,0.0,0.0,0.0,0.0,0.0,0.0,-0.166713044047,-9.62032318115,0.225552946329,0.0,0.0,0.0,0.0,0.0,0.0,0.0,0.0,0.0
1202798200,433504,1644543886491934061,1,0.0,0.0,0.0,0.0,0.0,0.0,0.0,0.0,0.0,0.0,0.0,0.0,0.0,0.0,0.0,0.0,0.0,0.0,0.0,0.0,0.0,0.0,0.0,0.0,0.0,-0.137293100357,-9.61051654816,0.225552946329,0.0,0.0,0.0,0.0,0.0,0.0,0.0,0.0,0.0
1204606200,433505,1644543886493948698,1,0.0,0.0,0.0,0.0,0.0,0.0,0.0,0.0,0.0,0.0,0.0,0.0,0.0,0.0,0.0,0.0,0.0,0.0,0.0,0.0,0.0,0.0,0.0,0.0,0.0,-0.225552946329,-9.64974308014,0.264779537916,0.0,0.0,0.0,0.0,0.0,0.0,0.0,0.0,0.0
1207324100,433506,1644543886495961189,1,0.0,0.0,0.0,0.0,0.0,0.0,0.0,0.0,0.0,0.0,0.0,0.0,0.0,0.0,0.0,0.0,0.0,0.0,0.0,0.0,0.0,0.0,0.0,0.0,0.0,-0.137293100357,-9.62032318115,0.176519691944,0.0,0.0,0.0,0.0,0.0,0.0,0.0,0.0,0.0
1208935700,433507,1644543886497975826,1,0.0,0.0,0.0,0.0,0.0,0.0,0.0,0.0,0.0,0.0,0.0,0.0,0.0,0.0,0.0,0.0,0.0,0.0,0.0,0.0,0.0,0.0,0.0,0.0,0.0,-0.176519691944,-9.62032318115,0.196132987738,0.0,0.0,0.0,0.0,0.0,0.0,0.0,0.0,0.0
1210591700,433508,1644543886499990463,1,0.0,0.0,0.0,0.0,0.0,0.0,0.0,0.0,0.0,0.0,0.0,0.0,0.0,0.0,0.0,0.0,0.0,0.0,0.0,0.0,0.0,0.0,0.0,0.0,0.0,-0.166713044047,-9.64974308014,0.245166242123,0.0,0.0,0.0,0.0,0.0,0.0,0.0,0.0,0.0
1212508300,433509,1644543886502003193,1,0.0,0.0,0.0,0.0,0.0,0.0,0.0,0.0,0.0,0.0,0.0,0.0,0.0,0.0,0.0,0.0,0.0,0.0,0.0,0.0,0.0,0.0,0.0,0.0,0.0,-0.225552946329,-9.64974308014,0.264779537916,0.0,0.0,0.0,0.0,0.0,0.0,0.0,0.0,0.0
1214759600,433510,1644543886504017830,1,0.0,0.0,0.0,0.0,0.0,0.0,0.0,0.0,0.0,0.0,0.0,0.0,0.0,0.0,0.0,0.0,0.0,0.0,0.0,0.0,0.0,0.0,0.0,0.0,0.0,-0.225552946329,-9.58109664917,0.245166242123,0.0,0.0,0.0,0.0,0.0,0.0,0.0,0.0,0.0
1216711800,433511,1644543886506032467,1,0.0,0.0,0.0,0.0,0.0,0.0,0.0,0.0,0.0,0.0,0.0,0.0,0.0,0.0,0.0,0.0,0.0,0.0,0.0,0.0,0.0,0.0,0.0,0.0,0.0,-0.176519691944,-9.62032318115,0.196132987738,0.0,0.0,0.0,0.0,0.0,0.0,0.0,0.0,0.0
1218751000,433512,1644543886508045197,1,0.0,0.0,0.0,0.0,0.0,0.0,0.0,0.0,0.0,0.0,0.0,0.0,0.0,0.0,0.0,0.0,0.0,0.0,0.0,0.0,0.0,0.0,0.0,0.0,0.0,-0.166713044047,-9.58109664917,0.264779537916,0.0,0.0,0.0,0.0,0.0,0.0,0.0,0.0,0.0
1221054600,433513,1644543886510059834,1,0.0,0.0,0.0,0.0,0.0,0.0,0.0,0.0,0.0,0.0,0.0,0.0,0.0,0.0,0.0,0.0,0.0,0.0,0.0,0.0,0.0,0.0,0.0,0.0,0.0,-0.176519691944,-9.62032318115,0.196132987738,0.0,0.0,0.0,0.0,0.0,0.0,0.0,0.0,0.0
1222975600,433514,1644543886512074471,1,0.0,0.0,0.0,0.0,0.0,0.0,0.0,0.0,0.0,0.0,0.0,0.0,0.0,0.0,0.0,0.0,0.0,0.0,0.0,0.0,0.0,0.0,0.0,0.0,0.0,-0.196132987738,-9.64974308014,0.176519691944,0.0,0.0,0.0,0.0,0.0,0.0,0.0,0.0,0.0
1225081300,433515,1644543886514086962,1,0.0,0.0,0.0,0.0,0.0,0.0,0.0,0.0,0.0,0.0,0.0,0.0,0.0,0.0,0.0,0.0,0.0,0.0,0.0,0.0,0.0,0.0,0.0,0.0,0.0,-0.166713044047,-9.58109664917,0.225552946329,0.0,0.0,0.0,0.0,0.0,0.0,0.0,0.0,0.0
1226893900,433516,1644543886516101599,1,0.0,0.0,0.0,0.0,0.0,0.0,0.0,0.0,0.0,0.0,0.0,0.0,0.0,0.0,0.0,0.0,0.0,0.0,0.0,0.0,0.0,0.0,0.0,0.0,0.0,-0.137293100357,-9.61051654816,0.196132987738,0.0,0.0,0.0,0.0,0.0,0.0,0.0,0.0,0.0
1228931300,433517,1644543886518116236,1,0.0,0.0,0.0,0.0,0.0,0.0,0.0,0.0,0.0,0.0,0.0,0.0,0.0,0.0,0.0,0.0,0.0,0.0,0.0,0.0,0.0,0.0,0.0,0.0,0.0,-0.166713044047,-9.61051654816,0.196132987738,0.0,0.0,0.0,0.0,0.0,0.0,0.0,0.0,0.0
1230890600,433518,1644543886520128965,1,0.0,0.0,0.0,0.0,0.0,0.0,0.0,0.0,0.0,0.0,0.0,0.0,0.0,0.0,0.0,0.0,0.0,0.0,0.0,0.0,0.0,0.0,0.0,0.0,0.0,-0.166713044047,-9.61051654816,0.245166242123,0.0,0.0,0.0,0.0,0.0,0.0,0.0,0.0,0.0
1232913200,433519,1644543886522143602,1,0.0,0.0,0.0,0.0,0.0,0.0,0.0,0.0,0.0,0.0,0.0,0.0,0.0,0.0,0.0,0.0,0.0,0.0,0.0,0.0,0.0,0.0,0.0,0.0,0.0,-0.225552946329,-9.62032318115,0.196132987738,0.0,0.0,0.0,0.0,0.0,0.0,0.0,0.0,0.0
1234872600,433520,1644543886524158239,1,0.0,0.0,0.0,0.0,0.0,0.0,0.0,0.0,0.0,0.0,0.0,0.0,0.0,0.0,0.0,0.0,0.0,0.0,0.0,0.0,0.0,0.0,0.0,0.0,0.0,-0.176519691944,-9.61051654816,0.176519691944,0.0,0.0,0.0,0.0,0.0,0.0,0.0,0.0,0.0
1236820600,433521,1644543886526170731,1,0.0,0.0,0.0,0.0,0.0,0.0,0.0,0.0,0.0,0.0,0.0,0.0,0.0,0.0,0.0,0.0,0.0,0.0,0.0,0.0,0.0,0.0,0.0,0.0,0.0,-0.166713044047,-9.62032318115,0.137293100357,0.0,0.0,0.0,0.0,0.0,0.0,0.0,0.0,0.0
1238844200,433522,1644543886528185368,1,0.0,0.0,0.0,0.0,0.0,0.0,0.0,0.0,0.0,0.0,0.0,0.0,0.0,0.0,0.0,0.0,0.0,0.0,0.0,0.0,0.0,0.0,0.0,0.0,0.0,-0.12748645246,-9.58109664917,0.166713044047,0.0,0.0,0.0,0.0,0.0,0.0,0.0,0.0,0.0
1240873100,433523,1644543886530200005,1,0.0,0.0,0.0,0.0,0.0,0.0,0.0,0.0,0.0,0.0,0.0,0.0,0.0,0.0,0.0,0.0,0.0,0.0,0.0,0.0,0.0,0.0,0.0,0.0,0.0,-0.137293100357,-9.66935634613,0.166713044047,0.0,0.0,0.0,0.0,0.0,0.0,0.0,0.0,0.0
1242799400,433524,1644543886532212734,1,0.0,0.0,0.0,0.0,0.0,0.0,0.0,0.0,0.0,0.0,0.0,0.0,0.0,0.0,0.0,0.0,0.0,0.0,0.0,0.0,0.0,0.0,0.0,0.0,0.0,-0.137293100357,-9.67916297913,0.225552946329,0.0,0.0,0.0,0.0,0.0,0.0,0.0,0.0,0.0
1244835900,433525,1644543886534227371,1,0.0,0.0,0.0,0.0,0.0,0.0,0.0,0.0,0.0,0.0,0.0,0.0,0.0,0.0,0.0,0.0,0.0,0.0,0.0,0.0,0.0,0.0,0.0,0.0,0.0,-0.137293100357,-9.67916297913,0.225552946329,0.0,0.0,0.0,0.0,0.0,0.0,0.0,0.0,0.0
1246794500,433526,1644543886536240101,1,0.0,0.0,0.0,0.0,0.0,0.0,0.0,0.0,0.0,0.0,0.0,0.0,0.0,0.0,0.0,0.0,0.0,0.0,0.0,0.0,0.0,0.0,0.0,0.0,0.0,-0.166713044047,-9.62032318115,0.225552946329,0.0,0.0,0.0,0.0,0.0,0.0,0.0,0.0,0.0
1248770800,433527,1644543886538254738,1,0.0,0.0,0.0,0.0,0.0,0.0,0.0,0.0,0.0,0.0,0.0,0.0,0.0,0.0,0.0,0.0,0.0,0.0,0.0,0.0,0.0,0.0,0.0,0.0,0.0,-0.166713044047,-9.61051654816,0.196132987738,0.0,0.0,0.0,0.0,0.0,0.0,0.0,0.0,0.0
1250779500,433528,1644543886540269375,1,0.0,0.0,0.0,0.0,0.0,0.0,0.0,0.0,0.0,0.0,0.0,0.0,0.0,0.0,0.0,0.0,0.0,0.0,0.0,0.0,0.0,0.0,0.0,0.0,0.0,-0.12748645246,-9.62032318115,0.166713044047,0.0,0.0,0.0,0.0,0.0,0.0,0.0,0.0,0.0
1253034600,433529,1644543886542281866,1,0.0,0.0,0.0,0.0,0.0,0.0,0.0,0.0,0.0,0.0,0.0,0.0,0.0,0.0,0.0,0.0,0.0,0.0,0.0,0.0,0.0,0.0,0.0,0.0,0.0,-0.166713044047,-9.62032318115,0.196132987738,0.0,0.0,0.0,0.0,0.0,0.0,0.0,0.0,0.0
1255114300,433530,1644543886544296503,1,0.0,0.0,0.0,0.0,0.0,0.0,0.0,0.0,0.0,0.0,0.0,0.0,0.0,0.0,0.0,0.0,0.0,0.0,0.0,0.0,0.0,0.0,0.0,0.0,0.0,-0.166713044047,-9.66935634613,0.196132987738,0.0,0.0,0.0,0.0,0.0,0.0,0.0,0.0,0.0
1256973700,433531,1644543886546311140,1,0.0,0.0,0.0,0.0,0.0,0.0,0.0,0.0,0.0,0.0,0.0,0.0,0.0,0.0,0.0,0.0,0.0,0.0,0.0,0.0,0.0,0.0,0.0,0.0,0.0,-0.176519691944,-9.62032318115,0.176519691944,0.0,0.0,0.0,0.0,0.0,0.0,0.0,0.0,0.0
1258954200,433532,1644543886548325777,1,0.0,0.0,0.0,0.0,0.0,0.0,0.0,0.0,0.0,0.0,0.0,0.0,0.0,0.0,0.0,0.0,0.0,0.0,0.0,0.0,0.0,0.0,0.0,0.0,0.0,-0.137293100357,-9.66935634613,0.196132987738,0.0,0.0,0.0,0.0,0.0,0.0,0.0,0.0,0.0
1260958400,433533,1644543886550338268,1,0.0,0.0,0.0,0.0,0.0,0.0,0.0,0.0,0.0,0.0,0.0,0.0,0.0,0.0,0.0,0.0,0.0,0.0,0.0,0.0,0.0,0.0,0.0,0.0,0.0,-0.137293100357,-9.62032318115,0.176519691944,0.0,0.0,0.0,0.0,0.0,0.0,0.0,0.0,0.0
1262951300,433534,1644543886552353144,1,0.0,0.0,0.0,0.0,0.0,0.0,0.0,0.0,0.0,0.0,0.0,0.0,0.0,0.0,0.0,0.0,0.0,0.0,0.0,0.0,0.0,0.0,0.0,0.0,0.0,-0.137293100357,-9.61051654816,0.196132987738,0.0,0.0,0.0,0.0,0.0,0.0,0.0,0.0,0.0
1264957800,433535,1644543886554365635,1,0.0,0.0,0.0,0.0,0.0,0.0,0.0,0.0,0.0,0.0,0.0,0.0,0.0,0.0,0.0,0.0,0.0,0.0,0.0,0.0,0.0,0.0,0.0,0.0,0.0,-0.196132987738,-9.58109664917,0.176519691944,0.0,0.0,0.0,0.0,0.0,0.0,0.0,0.0,0.0
1267022400,433536,1644543886556380272,1,0.0,0.0,0.0,0.0,0.0,0.0,0.0,0.0,0.0,0.0,0.0,0.0,0.0,0.0,0.0,0.0,0.0,0.0,0.0,0.0,0.0,0.0,0.0,0.0,0.0,-0.137293100357,-9.62032318115,0.225552946329,0.0,0.0,0.0,0.0,0.0,0.0,0.0,0.0,0.0
1269034500,433537,1644543886558394909,1,0.0,0.0,0.0,0.0,0.0,0.0,0.0,0.0,0.0,0.0,0.0,0.0,0.0,0.0,0.0,0.0,0.0,0.0,0.0,0.0,0.0,0.0,0.0,0.0,0.0,-0.196132987738,-9.62032318115,0.225552946329,0.0,0.0,0.0,0.0,0.0,0.0,0.0,0.0,0.0
1270991600,433538,1644543886560407639,1,0.0,0.0,0.0,0.0,0.0,0.0,0.0,0.0,0.0,0.0,0.0,0.0,0.0,0.0,0.0,0.0,0.0,0.0,0.0,0.0,0.0,0.0,0.0,0.0,0.0,-0.225552946329,-9.62032318115,0.225552946329,0.0,0.0,0.0,0.0,0.0,0.0,0.0,0.0,0.0
1273624900,433539,1644543886562422276,1,0.0,0.0,0.0,0.0,0.0,0.0,0.0,0.0,0.0,0.0,0.0,0.0,0.0,0.0,0.0,0.0,0.0,0.0,0.0,0.0,0.0,0.0,0.0,0.0,0.0,-0.137293100357,-9.62032318115,0.225552946329,0.0,0.0,0.0,0.0,0.0,0.0,0.0,0.0,0.0
1275406300,433540,1644543886564436913,1,0.0,0.0,0.0,0.0,0.0,0.0,0.0,0.0,0.0,0.0,0.0,0.0,0.0,0.0,0.0,0.0,0.0,0.0,0.0,0.0,0.0,0.0,0.0,0.0,0.0,-0.166713044047,-9.66935634613,0.196132987738,0.0,0.0,0.0,0.0,0.0,0.0,0.0,0.0,0.0
1277378500,433541,1644543886566449404,1,0.0,0.0,0.0,0.0,0.0,0.0,0.0,0.0,0.0,0.0,0.0,0.0,0.0,0.0,0.0,0.0,0.0,0.0,0.0,0.0,0.0,0.0,0.0,0.0,0.0,-0.196132987738,-9.62032318115,0.245166242123,0.0,0.0,0.0,0.0,0.0,0.0,0.0,0.0,0.0
1279349400,433542,1644543886568464041,1,0.0,0.0,0.0,0.0,0.0,0.0,0.0,0.0,0.0,0.0,0.0,0.0,0.0,0.0,0.0,0.0,0.0,0.0,0.0,0.0,0.0,0.0,0.0,0.0,0.0,-0.176519691944,-9.61051654816,0.176519691944,0.0,0.0,0.0,0.0,0.0,0.0,0.0,0.0,0.0
1281115200,433543,1644543886570478678,1,0.0,0.0,0.0,0.0,0.0,0.0,0.0,0.0,0.0,0.0,0.0,0.0,0.0,0.0,0.0,0.0,0.0,0.0,0.0,0.0,0.0,0.0,0.0,0.0,0.0,-0.176519691944,-9.62032318115,0.245166242123,0.0,0.0,0.0,0.0,0.0,0.0,0.0,0.0,0.0
1283350700,433544,1644543886572493315,1,0.0,0.0,0.0,0.0,0.0,0.0,0.0,0.0,0.0,0.0,0.0,0.0,0.0,0.0,0.0,0.0,0.0,0.0,0.0,0.0,0.0,0.0,0.0,0.0,0.0,-0.196132987738,-9.64974308014,0.166713044047,0.0,0.0,0.0,0.0,0.0,0.0,0.0,0.0,0.0
1285757000,433545,1644543886574506044,1,0.0,0.0,0.0,0.0,0.0,0.0,0.0,0.0,0.0,0.0,0.0,0.0,0.0,0.0,0.0,0.0,0.0,0.0,0.0,0.0,0.0,0.0,0.0,0.0,0.0,-0.137293100357,-9.64974308014,0.225552946329,0.0,0.0,0.0,0.0,0.0,0.0,0.0,0.0,0.0
1287341200,433546,1644543886576520681,1,0.0,0.0,0.0,0.0,0.0,0.0,0.0,0.0,0.0,0.0,0.0,0.0,0.0,0.0,0.0,0.0,0.0,0.0,0.0,0.0,0.0,0.0,0.0,0.0,0.0,-0.166713044047,-9.61051654816,0.245166242123,0.0,0.0,0.0,0.0,0.0,0.0,0.0,0.0,0.0
1289333000,433547,1644543886578535318,1,0.0,0.0,0.0,0.0,0.0,0.0,0.0,0.0,0.0,0.0,0.0,0.0,0.0,0.0,0.0,0.0,0.0,0.0,0.0,0.0,0.0,0.0,0.0,0.0,0.0,-0.176519691944,-9.61051654816,0.225552946329,0.0,0.0,0.0,0.0,0.0,0.0,0.0,0.0,0.0
1291248600,433548,1644543886580548048,1,0.0,0.0,0.0,0.0,0.0,0.0,0.0,0.0,0.0,0.0,0.0,0.0,0.0,0.0,0.0,0.0,0.0,0.0,0.0,0.0,0.0,0.0,0.0,0.0,0.0,-0.166713044047,-9.61051654816,0.166713044047,0.0,0.0,0.0,0.0,0.0,0.0,0.0,0.0,0.0
1293247400,433549,1644543886582562685,1,0.0,0.0,0.0,0.0,0.0,0.0,0.0,0.0,0.0,0.0,0.0,0.0,0.0,0.0,0.0,0.0,0.0,0.0,0.0,0.0,0.0,0.0,0.0,0.0,0.0,-0.137293100357,-9.62032318115,0.196132987738,0.0,0.0,0.0,0.0,0.0,0.0,0.0,0.0,0.0
1295249000,433550,1644543886584577322,1,0.0,0.0,0.0,0.0,0.0,0.0,0.0,0.0,0.0,0.0,0.0,0.0,0.0,0.0,0.0,0.0,0.0,0.0,0.0,0.0,0.0,0.0,0.0,0.0,0.0,-0.176519691944,-9.62032318115,0.176519691944,0.0,0.0,0.0,0.0,0.0,0.0,0.0,0.0,0.0
1297328200,433551,1644543886586590052,1,0.0,0.0,0.0,0.0,0.0,0.0,0.0,0.0,0.0,0.0,0.0,0.0,0.0,0.0,0.0,0.0,0.0,0.0,0.0,0.0,0.0,0.0,0.0,0.0,0.0,-0.166713044047,-9.58109664917,0.12748645246,0.0,0.0,0.0,0.0,0.0,0.0,0.0,0.0,0.0
1299523700,433552,1644543886588604689,1,0.0,0.0,0.0,0.0,0.0,0.0,0.0,0.0,0.0,0.0,0.0,0.0,0.0,0.0,0.0,0.0,0.0,0.0,0.0,0.0,0.0,0.0,0.0,0.0,0.0,-0.176519691944,-9.62032318115,0.137293100357,0.0,0.0,0.0,0.0,0.0,0.0,0.0,0.0,0.0
1301590400,433553,1644543886590619326,1,0.0,0.0,0.0,0.0,0.0,0.0,0.0,0.0,0.0,0.0,0.0,0.0,0.0,0.0,0.0,0.0,0.0,0.0,0.0,0.0,0.0,0.0,0.0,0.0,0.0,-0.176519691944,-9.62032318115,0.166713044047,0.0,0.0,0.0,0.0,0.0,0.0,0.0,0.0,0.0
1303268100,433554,1644543886592633963,1,0.0,0.0,0.0,0.0,0.0,0.0,0.0,0.0,0.0,0.0,0.0,0.0,0.0,0.0,0.0,0.0,0.0,0.0,0.0,0.0,0.0,0.0,0.0,0.0,0.0,-0.196132987738,-9.61051654816,0.176519691944,0.0,0.0,0.0,0.0,0.0,0.0,0.0,0.0,0.0
1305294000,433555,1644543886594646454,1,0.0,0.0,0.0,0.0,0.0,0.0,0.0,0.0,0.0,0.0,0.0,0.0,0.0,0.0,0.0,0.0,0.0,0.0,0.0,0.0,0.0,0.0,0.0,0.0,0.0,-0.196132987738,-9.61051654816,0.225552946329,0.0,0.0,0.0,0.0,0.0,0.0,0.0,0.0,0.0
1307357000,433556,1644543886596661091,1,0.0,0.0,0.0,0.0,0.0,0.0,0.0,0.0,0.0,0.0,0.0,0.0,0.0,0.0,0.0,0.0,0.0,0.0,0.0,0.0,0.0,0.0,0.0,0.0,0.0,-0.176519691944,-9.62032318115,0.245166242123,0.0,0.0,0.0,0.0,0.0,0.0,0.0,0.0,0.0
1309293300,433557,1644543886598675728,1,0.0,0.0,0.0,0.0,0.0,0.0,0.0,0.0,0.0,0.0,0.0,0.0,0.0,0.0,0.0,0.0,0.0,0.0,0.0,0.0,0.0,0.0,0.0,0.0,0.0,-0.166713044047,-9.64974308014,0.225552946329,0.0,0.0,0.0,0.0,0.0,0.0,0.0,0.0,0.0
1311594200,433558,1644543886600690365,1,0.0,0.0,0.0,0.0,0.0,0.0,0.0,0.0,0.0,0.0,0.0,0.0,0.0,0.0,0.0,0.0,0.0,0.0,0.0,0.0,0.0,0.0,0.0,0.0,0.0,-0.176519691944,-9.62032318115,0.176519691944,0.0,0.0,0.0,0.0,0.0,0.0,0.0,0.0,0.0
1313347900,433559,1644543886602703094,1,0.0,0.0,0.0,0.0,0.0,0.0,0.0,0.0,0.0,0.0,0.0,0.0,0.0,0.0,0.0,0.0,0.0,0.0,0.0,0.0,0.0,0.0,0.0,0.0,0.0,-0.225552946329,-9.62032318115,0.245166242123,0.0,0.0,0.0,0.0,0.0,0.0,0.0,0.0,0.0
1315595000,433560,1644543886604717731,1,0.0,0.0,0.0,0.0,0.0,0.0,0.0,0.0,0.0,0.0,0.0,0.0,0.0,0.0,0.0,0.0,0.0,0.0,0.0,0.0,0.0,0.0,0.0,0.0,0.0,-0.176519691944,-9.62032318115,0.176519691944,0.0,0.0,0.0,0.0,0.0,0.0,0.0,0.0,0.0
1317548800,433561,1644543886606732368,1,0.0,0.0,0.0,0.0,0.0,0.0,0.0,0.0,0.0,0.0,0.0,0.0,0.0,0.0,0.0,0.0,0.0,0.0,0.0,0.0,0.0,0.0,0.0,0.0,0.0,-0.166713044047,-9.64974308014,0.166713044047,0.0,0.0,0.0,0.0,0.0,0.0,0.0,0.0,0.0
1319255400,433562,1644543886608747005,1,0.0,0.0,0.0,0.0,0.0,0.0,0.0,0.0,0.0,0.0,0.0,0.0,0.0,0.0,0.0,0.0,0.0,0.0,0.0,0.0,0.0,0.0,0.0,0.0,0.0,-0.166713044047,-9.62032318115,0.196132987738,0.0,0.0,0.0,0.0,0.0,0.0,0.0,0.0,0.0
1321718600,433563,1644543886610759735,1,0.0,0.0,0.0,0.0,0.0,0.0,0.0,0.0,0.0,0.0,0.0,0.0,0.0,0.0,0.0,0.0,0.0,0.0,0.0,0.0,0.0,0.0,0.0,0.0,0.0,-0.225552946329,-9.62032318115,0.176519691944,0.0,0.0,0.0,0.0,0.0,0.0,0.0,0.0,0.0
1323656600,433564,1644543886612774372,1,0.0,0.0,0.0,0.0,0.0,0.0,0.0,0.0,0.0,0.0,0.0,0.0,0.0,0.0,0.0,0.0,0.0,0.0,0.0,0.0,0.0,0.0,0.0,0.0,0.0,-0.166713044047,-9.62032318115,0.196132987738,0.0,0.0,0.0,0.0,0.0,0.0,0.0,0.0,0.0
1325628400,433565,1644543886614789009,1,0.0,0.0,0.0,0.0,0.0,0.0,0.0,0.0,0.0,0.0,0.0,0.0,0.0,0.0,0.0,0.0,0.0,0.0,0.0,0.0,0.0,0.0,0.0,0.0,0.0,-0.137293100357,-9.62032318115,0.225552946329,0.0,0.0,0.0,0.0,0.0,0.0,0.0,0.0,0.0
1327606800,433566,1644543886616803646,1,0.0,0.0,0.0,0.0,0.0,0.0,0.0,0.0,0.0,0.0,0.0,0.0,0.0,0.0,0.0,0.0,0.0,0.0,0.0,0.0,0.0,0.0,0.0,0.0,0.0,-0.166713044047,-9.62032318115,0.245166242123,0.0,0.0,0.0,0.0,0.0,0.0,0.0,0.0,0.0
1329799100,433567,1644543886618816376,1,0.0,0.0,0.0,0.0,0.0,0.0,0.0,0.0,0.0,0.0,0.0,0.0,0.0,0.0,0.0,0.0,0.0,0.0,0.0,0.0,0.0,0.0,0.0,0.0,0.0,-0.176519691944,-9.62032318115,0.225552946329,0.0,0.0,0.0,0.0,0.0,0.0,0.0,0.0,0.0
1331643400,433568,1644543886620831013,1,0.0,0.0,0.0,0.0,0.0,0.0,0.0,0.0,0.0,0.0,0.0,0.0,0.0,0.0,0.0,0.0,0.0,0.0,0.0,0.0,0.0,0.0,0.0,0.0,0.0,-0.137293100357,-9.62032318115,0.245166242123,0.0,0.0,0.0,0.0,0.0,0.0,0.0,0.0,0.0
1333524300,433569,1644543886622845650,1,0.0,0.0,0.0,0.0,0.0,0.0,0.0,0.0,0.0,0.0,0.0,0.0,0.0,0.0,0.0,0.0,0.0,0.0,0.0,0.0,0.0,0.0,0.0,0.0,0.0,-0.166713044047,-9.62032318115,0.225552946329,0.0,0.0,0.0,0.0,0.0,0.0,0.0,0.0,0.0
1335496000,433570,1644543886624860287,1,0.0,0.0,0.0,0.0,0.0,0.0,0.0,0.0,0.0,0.0,0.0,0.0,0.0,0.0,0.0,0.0,0.0,0.0,0.0,0.0,0.0,0.0,0.0,0.0,0.0,-0.176519691944,-9.62032318115,0.166713044047,0.0,0.0,0.0,0.0,0.0,0.0,0.0,0.0,0.0
1337553200,433571,1644543886626873016,1,0.0,0.0,0.0,0.0,0.0,0.0,0.0,0.0,0.0,0.0,0.0,0.0,0.0,0.0,0.0,0.0,0.0,0.0,0.0,0.0,0.0,0.0,0.0,0.0,0.0,-0.196132987738,-9.61051654816,0.196132987738,0.0,0.0,0.0,0.0,0.0,0.0,0.0,0.0,0.0
1339603500,433572,1644543886628887653,1,0.0,0.0,0.0,0.0,0.0,0.0,0.0,0.0,0.0,0.0,0.0,0.0,0.0,0.0,0.0,0.0,0.0,0.0,0.0,0.0,0.0,0.0,0.0,0.0,0.0,-0.166713044047,-9.62032318115,0.176519691944,0.0,0.0,0.0,0.0,0.0,0.0,0.0,0.0,0.0
1341534100,433573,1644543886630902290,1,0.0,0.0,0.0,0.0,0.0,0.0,0.0,0.0,0.0,0.0,0.0,0.0,0.0,0.0,0.0,0.0,0.0,0.0,0.0,0.0,0.0,0.0,0.0,0.0,0.0,-0.137293100357,-9.62032318115,0.245166242123,0.0,0.0,0.0,0.0,0.0,0.0,0.0,0.0,0.0
1343581400,433574,1644543886632916927,1,0.0,0.0,0.0,0.0,0.0,0.0,0.0,0.0,0.0,0.0,0.0,0.0,0.0,0.0,0.0,0.0,0.0,0.0,0.0,0.0,0.0,0.0,0.0,0.0,0.0,-0.196132987738,-9.61051654816,0.176519691944,0.0,0.0,0.0,0.0,0.0,0.0,0.0,0.0,0.0
1345527700,433575,1644543886634929657,1,0.0,0.0,0.0,0.0,0.0,0.0,0.0,0.0,0.0,0.0,0.0,0.0,0.0,0.0,0.0,0.0,0.0,0.0,0.0,0.0,0.0,0.0,0.0,0.0,0.0,-0.196132987738,-9.58109664917,0.196132987738,0.0,0.0,0.0,0.0,0.0,0.0,0.0,0.0,0.0
1347653100,433576,1644543886636944294,1,0.0,0.0,0.0,0.0,0.0,0.0,0.0,0.0,0.0,0.0,0.0,0.0,0.0,0.0,0.0,0.0,0.0,0.0,0.0,0.0,0.0,0.0,0.0,0.0,0.0,-0.196132987738,-9.62032318115,0.225552946329,0.0,0.0,0.0,0.0,0.0,0.0,0.0,0.0,0.0
1349535100,433577,1644543886638958931,1,0.0,0.0,0.0,0.0,0.0,0.0,0.0,0.0,0.0,0.0,0.0,0.0,0.0,0.0,0.0,0.0,0.0,0.0,0.0,0.0,0.0,0.0,0.0,0.0,0.0,-0.137293100357,-9.64974308014,0.245166242123,0.0,0.0,0.0,0.0,0.0,0.0,0.0,0.0,0.0
1351491900,433578,1644543886640973568,1,0.0,0.0,0.0,0.0,0.0,0.0,0.0,0.0,0.0,0.0,0.0,0.0,0.0,0.0,0.0,0.0,0.0,0.0,0.0,0.0,0.0,0.0,0.0,0.0,0.0,-0.137293100357,-9.62032318115,0.225552946329,0.0,0.0,0.0,0.0,0.0,0.0,0.0,0.0,0.0
1353619200,433579,1644543886642986298,1,0.0,0.0,0.0,0.0,0.0,0.0,0.0,0.0,0.0,0.0,0.0,0.0,0.0,0.0,0.0,0.0,0.0,0.0,0.0,0.0,0.0,0.0,0.0,0.0,0.0,-0.166713044047,-9.57129001617,0.166713044047,0.0,0.0,0.0,0.0,0.0,0.0,0.0,0.0,0.0
1355751100,433580,1644543886645000935,1,0.0,0.0,0.0,0.0,0.0,0.0,0.0,0.0,0.0,0.0,0.0,0.0,0.0,0.0,0.0,0.0,0.0,0.0,0.0,0.0,0.0,0.0,0.0,0.0,0.0,-0.166713044047,-9.62032318115,0.225552946329,0.0,0.0,0.0,0.0,0.0,0.0,0.0,0.0,0.0
1357635800,433581,1644543886647015572,1,0.0,0.0,0.0,0.0,0.0,0.0,0.0,0.0,0.0,0.0,0.0,0.0,0.0,0.0,0.0,0.0,0.0,0.0,0.0,0.0,0.0,0.0,0.0,0.0,0.0,-0.166713044047,-9.64974308014,0.225552946329,0.0,0.0,0.0,0.0,0.0,0.0,0.0,0.0,0.0
1359705100,433582,1644543886649028063,1,0.0,0.0,0.0,0.0,0.0,0.0,0.0,0.0,0.0,0.0,0.0,0.0,0.0,0.0,0.0,0.0,0.0,0.0,0.0,0.0,0.0,0.0,0.0,0.0,0.0,-0.166713044047,-9.62032318115,0.176519691944,0.0,0.0,0.0,0.0,0.0,0.0,0.0,0.0,0.0
1361870800,433583,1644543886651042938,1,0.0,0.0,0.0,0.0,0.0,0.0,0.0,0.0,0.0,0.0,0.0,0.0,0.0,0.0,0.0,0.0,0.0,0.0,0.0,0.0,0.0,0.0,0.0,0.0,0.0,-0.196132987738,-9.61051654816,0.176519691944,0.0,0.0,0.0,0.0,0.0,0.0,0.0,0.0,0.0
1363607600,433584,1644543886653057575,1,0.0,0.0,0.0,0.0,0.0,0.0,0.0,0.0,0.0,0.0,0.0,0.0,0.0,0.0,0.0,0.0,0.0,0.0,0.0,0.0,0.0,0.0,0.0,0.0,0.0,-0.176519691944,-9.64974308014,0.176519691944,0.0,0.0,0.0,0.0,0.0,0.0,0.0,0.0,0.0
1365520000,433585,1644543886655072212,1,0.0,0.0,0.0,0.0,0.0,0.0,0.0,0.0,0.0,0.0,0.0,0.0,0.0,0.0,0.0,0.0,0.0,0.0,0.0,0.0,0.0,0.0,0.0,0.0,0.0,-0.166713044047,-9.66935634613,0.225552946329,0.0,0.0,0.0,0.0,0.0,0.0,0.0,0.0,0.0
1367715600,433586,1644543886657084703,1,0.0,0.0,0.0,0.0,0.0,0.0,0.0,0.0,0.0,0.0,0.0,0.0,0.0,0.0,0.0,0.0,0.0,0.0,0.0,0.0,0.0,0.0,0.0,0.0,0.0,-0.166713044047,-9.62032318115,0.166713044047,0.0,0.0,0.0,0.0,0.0,0.0,0.0,0.0,0.0
1369709200,433587,1644543886659099340,1,0.0,0.0,0.0,0.0,0.0,0.0,0.0,0.0,0.0,0.0,0.0,0.0,0.0,0.0,0.0,0.0,0.0,0.0,0.0,0.0,0.0,0.0,0.0,0.0,0.0,-0.166713044047,-9.58109664917,0.225552946329,0.0,0.0,0.0,0.0,0.0,0.0,0.0,0.0,0.0
1371767500,433588,1644543886661114216,1,0.0,0.0,0.0,0.0,0.0,0.0,0.0,0.0,0.0,0.0,0.0,0.0,0.0,0.0,0.0,0.0,0.0,0.0,0.0,0.0,0.0,0.0,0.0,0.0,0.0,-0.225552946329,-9.57129001617,0.274586200714,0.0,0.0,0.0,0.0,0.0,0.0,0.0,0.0,0.0
1373716200,433589,1644543886663126707,1,0.0,0.0,0.0,0.0,0.0,0.0,0.0,0.0,0.0,0.0,0.0,0.0,0.0,0.0,0.0,0.0,0.0,0.0,0.0,0.0,0.0,0.0,0.0,0.0,0.0,-0.176519691944,-9.61051654816,0.245166242123,0.0,0.0,0.0,0.0,0.0,0.0,0.0,0.0,0.0
1375835100,433590,1644543886665141344,1,0.0,0.0,0.0,0.0,0.0,0.0,0.0,0.0,0.0,0.0,0.0,0.0,0.0,0.0,0.0,0.0,0.0,0.0,0.0,0.0,0.0,0.0,0.0,0.0,0.0,-0.196132987738,-9.61051654816,0.264779537916,0.0,0.0,0.0,0.0,0.0,0.0,0.0,0.0,0.0
1377882200,433591,1644543886667155981,1,0.0,0.0,0.0,0.0,0.0,0.0,0.0,0.0,0.0,0.0,0.0,0.0,0.0,0.0,0.0,0.0,0.0,0.0,0.0,0.0,0.0,0.0,0.0,0.0,0.0,-0.166713044047,-9.66935634613,0.196132987738,0.0,0.0,0.0,0.0,0.0,0.0,0.0,0.0,0.0
1379927200,433592,1644543886669170856,1,0.0,0.0,0.0,0.0,0.0,0.0,0.0,0.0,0.0,0.0,0.0,0.0,0.0,0.0,0.0,0.0,0.0,0.0,0.0,0.0,0.0,0.0,0.0,0.0,0.0,-0.196132987738,-9.58109664917,0.196132987738,0.0,0.0,0.0,0.0,0.0,0.0,0.0,0.0,0.0
1381713600,433593,1644543886671185493,1,0.0,0.0,0.0,0.0,0.0,0.0,0.0,0.0,0.0,0.0,0.0,0.0,0.0,0.0,0.0,0.0,0.0,0.0,0.0,0.0,0.0,0.0,0.0,0.0,0.0,-0.166713044047,-9.58109664917,0.225552946329,0.0,0.0,0.0,0.0,0.0,0.0,0.0,0.0,0.0
1383703000,433594,1644543886673197985,1,0.0,0.0,0.0,0.0,0.0,0.0,0.0,0.0,0.0,0.0,0.0,0.0,0.0,0.0,0.0,0.0,0.0,0.0,0.0,0.0,0.0,0.0,0.0,0.0,0.0,-0.137293100357,-9.62032318115,0.196132987738,0.0,0.0,0.0,0.0,0.0,0.0,0.0,0.0,0.0
1385770900,433595,1644543886675212622,1,0.0,0.0,0.0,0.0,0.0,0.0,0.0,0.0,0.0,0.0,0.0,0.0,0.0,0.0,0.0,0.0,0.0,0.0,0.0,0.0,0.0,0.0,0.0,0.0,0.0,-0.137293100357,-9.67916297913,0.176519691944,0.0,0.0,0.0,0.0,0.0,0.0,0.0,0.0,0.0
1387742900,433596,1644543886677227497,1,0.0,0.0,0.0,0.0,0.0,0.0,0.0,0.0,0.0,0.0,0.0,0.0,0.0,0.0,0.0,0.0,0.0,0.0,0.0,0.0,0.0,0.0,0.0,0.0,0.0,-0.176519691944,-9.61051654816,0.225552946329,0.0,0.0,0.0,0.0,0.0,0.0,0.0,0.0,0.0
1390056800,433597,1644543886679242134,1,0.0,0.0,0.0,0.0,0.0,0.0,0.0,0.0,0.0,0.0,0.0,0.0,0.0,0.0,0.0,0.0,0.0,0.0,0.0,0.0,0.0,0.0,0.0,0.0,0.0,-0.176519691944,-9.66935634613,0.225552946329,0.0,0.0,0.0,0.0,0.0,0.0,0.0,0.0,0.0
1392076000,433598,1644543886681256771,1,0.0,0.0,0.0,0.0,0.0,0.0,0.0,0.0,0.0,0.0,0.0,0.0,0.0,0.0,0.0,0.0,0.0,0.0,0.0,0.0,0.0,0.0,0.0,0.0,0.0,-0.176519691944,-9.64974308014,0.274586200714,0.0,0.0,0.0,0.0,0.0,0.0,0.0,0.0,0.0
1393774000,433599,1644543886683271408,1,0.0,0.0,0.0,0.0,0.0,0.0,0.0,0.0,0.0,0.0,0.0,0.0,0.0,0.0,0.0,0.0,0.0,0.0,0.0,0.0,0.0,0.0,0.0,0.0,0.0,-0.166713044047,-9.61051654816,0.264779537916,0.0,0.0,0.0,0.0,0.0,0.0,0.0,0.0,0.0
1396095300,433600,1644543886685284138,1,0.0,0.0,0.0,0.0,0.0,0.0,0.0,0.0,0.0,0.0,0.0,0.0,0.0,0.0,0.0,0.0,0.0,0.0,0.0,0.0,0.0,0.0,0.0,0.0,0.0,-0.166713044047,-9.64974308014,0.294199496508,0.0,0.0,0.0,0.0,0.0,0.0,0.0,0.0,0.0
1398071400,433601,1644543886687298775,1,0.0,0.0,0.0,0.0,0.0,0.0,0.0,0.0,0.0,0.0,0.0,0.0,0.0,0.0,0.0,0.0,0.0,0.0,0.0,0.0,0.0,0.0,0.0,0.0,0.0,-0.176519691944,-9.57129001617,0.176519691944,0.0,0.0,0.0,0.0,0.0,0.0,0.0,0.0,0.0
1400020300,433602,1644543886689313412,1,0.0,0.0,0.0,0.0,0.0,0.0,0.0,0.0,0.0,0.0,0.0,0.0,0.0,0.0,0.0,0.0,0.0,0.0,0.0,0.0,0.0,0.0,0.0,0.0,0.0,-0.12748645246,-9.64974308014,0.196132987738,0.0,0.0,0.0,0.0,0.0,0.0,0.0,0.0,0.0
1402147000,433603,1644543886691328049,1,0.0,0.0,0.0,0.0,0.0,0.0,0.0,0.0,0.0,0.0,0.0,0.0,0.0,0.0,0.0,0.0,0.0,0.0,0.0,0.0,0.0,0.0,0.0,0.0,0.0,-0.166713044047,-9.66935634613,0.245166242123,0.0,0.0,0.0,0.0,0.0,0.0,0.0,0.0,0.0
1404073400,433604,1644543886693342686,1,0.0,0.0,0.0,0.0,0.0,0.0,0.0,0.0,0.0,0.0,0.0,0.0,0.0,0.0,0.0,0.0,0.0,0.0,0.0,0.0,0.0,0.0,0.0,0.0,0.0,-0.196132987738,-9.62032318115,0.225552946329,0.0,0.0,0.0,0.0,0.0,0.0,0.0,0.0,0.0
1406152200,433605,1644543886695357323,1,0.0,0.0,0.0,0.0,0.0,0.0,0.0,0.0,0.0,0.0,0.0,0.0,0.0,0.0,0.0,0.0,0.0,0.0,0.0,0.0,0.0,0.0,0.0,0.0,0.0,-0.176519691944,-9.64974308014,0.245166242123,0.0,0.0,0.0,0.0,0.0,0.0,0.0,0.0,0.0
1408756800,433606,1644543886697370052,1,0.0,0.0,0.0,0.0,0.0,0.0,0.0,0.0,0.0,0.0,0.0,0.0,0.0,0.0,0.0,0.0,0.0,0.0,0.0,0.0,0.0,0.0,0.0,0.0,0.0,-0.137293100357,-9.64974308014,0.176519691944,0.0,0.0,0.0,0.0,0.0,0.0,0.0,0.0,0.0
1410131100,433607,1644543886699384689,1,0.0,0.0,0.0,0.0,0.0,0.0,0.0,0.0,0.0,0.0,0.0,0.0,0.0,0.0,0.0,0.0,0.0,0.0,0.0,0.0,0.0,0.0,0.0,0.0,0.0,-0.166713044047,-9.64974308014,0.245166242123,0.0,0.0,0.0,0.0,0.0,0.0,0.0,0.0,0.0
1412140800,433608,1644543886701399326,1,0.0,0.0,0.0,0.0,0.0,0.0,0.0,0.0,0.0,0.0,0.0,0.0,0.0,0.0,0.0,0.0,0.0,0.0,0.0,0.0,0.0,0.0,0.0,0.0,0.0,-0.196132987738,-9.62032318115,0.176519691944,0.0,0.0,0.0,0.0,0.0,0.0,0.0,0.0,0.0
1414415800,433609,1644543886703412056,1,0.0,0.0,0.0,0.0,0.0,0.0,0.0,0.0,0.0,0.0,0.0,0.0,0.0,0.0,0.0,0.0,0.0,0.0,0.0,0.0,0.0,0.0,0.0,0.0,0.0,-0.137293100357,-9.66935634613,0.166713044047,0.0,0.0,0.0,0.0,0.0,0.0,0.0,0.0,0.0
1416110900,433610,1644543886705426693,1,0.0,0.0,0.0,0.0,0.0,0.0,0.0,0.0,0.0,0.0,0.0,0.0,0.0,0.0,0.0,0.0,0.0,0.0,0.0,0.0,0.0,0.0,0.0,0.0,0.0,-0.137293100357,-9.62032318115,0.225552946329,0.0,0.0,0.0,0.0,0.0,0.0,0.0,0.0,0.0
1418036400,433611,1644543886707441330,1,0.0,0.0,0.0,0.0,0.0,0.0,0.0,0.0,0.0,0.0,0.0,0.0,0.0,0.0,0.0,0.0,0.0,0.0,0.0,0.0,0.0,0.0,0.0,0.0,0.0,-0.166713044047,-9.66935634613,0.196132987738,0.0,0.0,0.0,0.0,0.0,0.0,0.0,0.0,0.0
1420007700,433612,1644543886709455967,1,0.0,0.0,0.0,0.0,0.0,0.0,0.0,0.0,0.0,0.0,0.0,0.0,0.0,0.0,0.0,0.0,0.0,0.0,0.0,0.0,0.0,0.0,0.0,0.0,0.0,-0.166713044047,-9.66935634613,0.264779537916,0.0,0.0,0.0,0.0,0.0,0.0,0.0,0.0,0.0
1422276800,433613,1644543886711468697,1,0.0,0.0,0.0,0.0,0.0,0.0,0.0,0.0,0.0,0.0,0.0,0.0,0.0,0.0,0.0,0.0,0.0,0.0,0.0,0.0,0.0,0.0,0.0,0.0,0.0,-0.176519691944,-9.62032318115,0.225552946329,0.0,0.0,0.0,0.0,0.0,0.0,0.0,0.0,0.0
1425004600,433614,1644543886713483334,1,0.0,0.0,0.0,0.0,0.0,0.0,0.0,0.0,0.0,0.0,0.0,0.0,0.0,0.0,0.0,0.0,0.0,0.0,0.0,0.0,0.0,0.0,0.0,0.0,0.0,-0.166713044047,-9.62032318115,0.264779537916,0.0,0.0,0.0,0.0,0.0,0.0,0.0,0.0,0.0
1426077900,433615,1644543886715497971,1,0.0,0.0,0.0,0.0,0.0,0.0,0.0,0.0,0.0,0.0,0.0,0.0,0.0,0.0,0.0,0.0,0.0,0.0,0.0,0.0,0.0,0.0,0.0,0.0,0.0,-0.176519691944,-9.62032318115,0.225552946329,0.0,0.0,0.0,0.0,0.0,0.0,0.0,0.0,0.0
1428045900,433616,1644543886717510700,1,0.0,0.0,0.0,0.0,0.0,0.0,0.0,0.0,0.0,0.0,0.0,0.0,0.0,0.0,0.0,0.0,0.0,0.0,0.0,0.0,0.0,0.0,0.0,0.0,0.0,-0.166713044047,-9.64974308014,0.176519691944,0.0,0.0,0.0,0.0,0.0,0.0,0.0,0.0,0.0
1430246600,433617,1644543886719525337,1,0.0,0.0,0.0,0.0,0.0,0.0,0.0,0.0,0.0,0.0,0.0,0.0,0.0,0.0,0.0,0.0,0.0,0.0,0.0,0.0,0.0,0.0,0.0,0.0,0.0,-0.166713044047,-9.61051654816,0.245166242123,0.0,0.0,0.0,0.0,0.0,0.0,0.0,0.0,0.0
1432259700,433618,1644543886721539974,1,0.0,0.0,0.0,0.0,0.0,0.0,0.0,0.0,0.0,0.0,0.0,0.0,0.0,0.0,0.0,0.0,0.0,0.0,0.0,0.0,0.0,0.0,0.0,0.0,0.0,-0.176519691944,-9.62032318115,0.196132987738,0.0,0.0,0.0,0.0,0.0,0.0,0.0,0.0,0.0
1434607700,433619,1644543886723554611,1,0.0,0.0,0.0,0.0,0.0,0.0,0.0,0.0,0.0,0.0,0.0,0.0,0.0,0.0,0.0,0.0,0.0,0.0,0.0,0.0,0.0,0.0,0.0,0.0,0.0,-0.12748645246,-9.66935634613,0.264779537916,0.0,0.0,0.0,0.0,0.0,0.0,0.0,0.0,0.0
1436523700,433620,1644543886725569248,1,0.0,0.0,0.0,0.0,0.0,0.0,0.0,0.0,0.0,0.0,0.0,0.0,0.0,0.0,0.0,0.0,0.0,0.0,0.0,0.0,0.0,0.0,0.0,0.0,0.0,-0.137293100357,-9.62032318115,0.264779537916,0.0,0.0,0.0,0.0,0.0,0.0,0.0,0.0,0.0
1438994000,433621,1644543886727581978,1,0.0,0.0,0.0,0.0,0.0,0.0,0.0,0.0,0.0,0.0,0.0,0.0,0.0,0.0,0.0,0.0,0.0,0.0,0.0,0.0,0.0,0.0,0.0,0.0,0.0,-0.196132987738,-9.62032318115,0.264779537916,0.0,0.0,0.0,0.0,0.0,0.0,0.0,0.0,0.0
1440847800,433622,1644543886729596615,1,0.0,0.0,0.0,0.0,0.0,0.0,0.0,0.0,0.0,0.0,0.0,0.0,0.0,0.0,0.0,0.0,0.0,0.0,0.0,0.0,0.0,0.0,0.0,0.0,0.0,-0.137293100357,-9.62032318115,0.264779537916,0.0,0.0,0.0,0.0,0.0,0.0,0.0,0.0,0.0
1442436600,433623,1644543886731611490,1,0.0,0.0,0.0,0.0,0.0,0.0,0.0,0.0,0.0,0.0,0.0,0.0,0.0,0.0,0.0,0.0,0.0,0.0,0.0,0.0,0.0,0.0,0.0,0.0,0.0,-0.166713044047,-9.64974308014,0.245166242123,0.0,0.0,0.0,0.0,0.0,0.0,0.0,0.0,0.0
1444342900,433624,1644543886733626127,1,0.0,0.0,0.0,0.0,0.0,0.0,0.0,0.0,0.0,0.0,0.0,0.0,0.0,0.0,0.0,0.0,0.0,0.0,0.0,0.0,0.0,0.0,0.0,0.0,0.0,-0.166713044047,-9.67916297913,0.245166242123,0.0,0.0,0.0,0.0,0.0,0.0,0.0,0.0,0.0
1446350500,433625,1644543886735638857,1,0.0,0.0,0.0,0.0,0.0,0.0,0.0,0.0,0.0,0.0,0.0,0.0,0.0,0.0,0.0,0.0,0.0,0.0,0.0,0.0,0.0,0.0,0.0,0.0,0.0,-0.176519691944,-9.61051654816,0.245166242123,0.0,0.0,0.0,0.0,0.0,0.0,0.0,0.0,0.0
1448259200,433626,1644543886737653494,1,0.0,0.0,0.0,0.0,0.0,0.0,0.0,0.0,0.0,0.0,0.0,0.0,0.0,0.0,0.0,0.0,0.0,0.0,0.0,0.0,0.0,0.0,0.0,0.0,0.0,-0.176519691944,-9.64974308014,0.245166242123,0.0,0.0,0.0,0.0,0.0,0.0,0.0,0.0,0.0
1450252700,433627,1644543886739668131,1,0.0,0.0,0.0,0.0,0.0,0.0,0.0,0.0,0.0,0.0,0.0,0.0,0.0,0.0,0.0,0.0,0.0,0.0,0.0,0.0,0.0,0.0,0.0,0.0,0.0,-0.176519691944,-9.62032318115,0.264779537916,0.0,0.0,0.0,0.0,0.0,0.0,0.0,0.0,0.0
1452249900,433628,1644543886741682768,1,0.0,0.0,0.0,0.0,0.0,0.0,0.0,0.0,0.0,0.0,0.0,0.0,0.0,0.0,0.0,0.0,0.0,0.0,0.0,0.0,0.0,0.0,0.0,0.0,0.0,-0.176519691944,-9.58109664917,0.225552946329,0.0,0.0,0.0,0.0,0.0,0.0,0.0,0.0,0.0
1454871600,433629,1644543886743697405,1,0.0,0.0,0.0,0.0,0.0,0.0,0.0,0.0,0.0,0.0,0.0,0.0,0.0,0.0,0.0,0.0,0.0,0.0,0.0,0.0,0.0,0.0,0.0,0.0,0.0,-0.176519691944,-9.61051654816,0.166713044047,0.0,0.0,0.0,0.0,0.0,0.0,0.0,0.0,0.0
1456508900,433630,1644543886745710135,1,0.0,0.0,0.0,0.0,0.0,0.0,0.0,0.0,0.0,0.0,0.0,0.0,0.0,0.0,0.0,0.0,0.0,0.0,0.0,0.0,0.0,0.0,0.0,0.0,0.0,-0.196132987738,-9.58109664917,0.196132987738,0.0,0.0,0.0,0.0,0.0,0.0,0.0,0.0,0.0
1458279600,433631,1644543886747724771,1,0.0,0.0,0.0,0.0,0.0,0.0,0.0,0.0,0.0,0.0,0.0,0.0,0.0,0.0,0.0,0.0,0.0,0.0,0.0,0.0,0.0,0.0,0.0,0.0,0.0,-0.166713044047,-9.70858287811,0.196132987738,0.0,0.0,0.0,0.0,0.0,0.0,0.0,0.0,0.0
1460246500,433632,1644543886749739408,1,0.0,0.0,0.0,0.0,0.0,0.0,0.0,0.0,0.0,0.0,0.0,0.0,0.0,0.0,0.0,0.0,0.0,0.0,0.0,0.0,0.0,0.0,0.0,0.0,0.0,-0.166713044047,-9.64974308014,0.225552946329,0.0,0.0,0.0,0.0,0.0,0.0,0.0,0.0,0.0
1462240800,433633,1644543886751754045,1,0.0,0.0,0.0,0.0,0.0,0.0,0.0,0.0,0.0,0.0,0.0,0.0,0.0,0.0,0.0,0.0,0.0,0.0,0.0,0.0,0.0,0.0,0.0,0.0,0.0,-0.196132987738,-9.61051654816,0.245166242123,0.0,0.0,0.0,0.0,0.0,0.0,0.0,0.0,0.0
1464251800,433634,1644543886753766775,1,0.0,0.0,0.0,0.0,0.0,0.0,0.0,0.0,0.0,0.0,0.0,0.0,0.0,0.0,0.0,0.0,0.0,0.0,0.0,0.0,0.0,0.0,0.0,0.0,0.0,-0.176519691944,-9.67916297913,0.196132987738,0.0,0.0,0.0,0.0,0.0,0.0,0.0,0.0,0.0
1466297500,433635,1644543886755781412,1,0.0,0.0,0.0,0.0,0.0,0.0,0.0,0.0,0.0,0.0,0.0,0.0,0.0,0.0,0.0,0.0,0.0,0.0,0.0,0.0,0.0,0.0,0.0,0.0,0.0,-0.166713044047,-9.64974308014,0.166713044047,0.0,0.0,0.0,0.0,0.0,0.0,0.0,0.0,0.0
1468253000,433636,1644543886757796049,1,0.0,0.0,0.0,0.0,0.0,0.0,0.0,0.0,0.0,0.0,0.0,0.0,0.0,0.0,0.0,0.0,0.0,0.0,0.0,0.0,0.0,0.0,0.0,0.0,0.0,-0.196132987738,-9.62032318115,0.225552946329,0.0,0.0,0.0,0.0,0.0,0.0,0.0,0.0,0.0
1470548500,433637,1644543886759810686,1,0.0,0.0,0.0,0.0,0.0,0.0,0.0,0.0,0.0,0.0,0.0,0.0,0.0,0.0,0.0,0.0,0.0,0.0,0.0,0.0,0.0,0.0,0.0,0.0,0.0,-0.196132987738,-9.62032318115,0.166713044047,0.0,0.0,0.0,0.0,0.0,0.0,0.0,0.0,0.0
1472562700,433638,1644543886761825800,1,0.0,0.0,0.0,0.0,0.0,0.0,0.0,0.0,0.0,0.0,0.0,0.0,0.0,0.0,0.0,0.0,0.0,0.0,0.0,0.0,0.0,0.0,0.0,0.0,0.0,-0.196132987738,-9.58109664917,0.274586200714,0.0,0.0,0.0,0.0,0.0,0.0,0.0,0.0,0.0
1474265200,433639,1644543886763840437,1,0.0,0.0,0.0,0.0,0.0,0.0,0.0,0.0,0.0,0.0,0.0,0.0,0.0,0.0,0.0,0.0,0.0,0.0,0.0,0.0,0.0,0.0,0.0,0.0,0.0,-0.176519691944,-9.64974308014,0.196132987738,0.0,0.0,0.0,0.0,0.0,0.0,0.0,0.0,0.0
1476283200,433640,1644543886765855074,1,0.0,0.0,0.0,0.0,0.0,0.0,0.0,0.0,0.0,0.0,0.0,0.0,0.0,0.0,0.0,0.0,0.0,0.0,0.0,0.0,0.0,0.0,0.0,0.0,0.0,-0.166713044047,-9.62032318115,0.225552946329,0.0,0.0,0.0,0.0,0.0,0.0,0.0,0.0,0.0
1478245800,433641,1644543886767867565,1,0.0,0.0,0.0,0.0,0.0,0.0,0.0,0.0,0.0,0.0,0.0,0.0,0.0,0.0,0.0,0.0,0.0,0.0,0.0,0.0,0.0,0.0,0.0,0.0,0.0,-0.176519691944,-9.64974308014,0.166713044047,0.0,0.0,0.0,0.0,0.0,0.0,0.0,0.0,0.0
1480663500,433642,1644543886769882441,1,0.0,0.0,0.0,0.0,0.0,0.0,0.0,0.0,0.0,0.0,0.0,0.0,0.0,0.0,0.0,0.0,0.0,0.0,0.0,0.0,0.0,0.0,0.0,0.0,0.0,-0.176519691944,-9.62032318115,0.196132987738,0.0,0.0,0.0,0.0,0.0,0.0,0.0,0.0,0.0
1482879200,433643,1644543886771897078,1,0.0,0.0,0.0,0.0,0.0,0.0,0.0,0.0,0.0,0.0,0.0,0.0,0.0,0.0,0.0,0.0,0.0,0.0,0.0,0.0,0.0,0.0,0.0,0.0,0.0,-0.166713044047,-9.66935634613,0.176519691944,0.0,0.0,0.0,0.0,0.0,0.0,0.0,0.0,0.0
1484662000,433644,1644543886773911715,1,0.0,0.0,0.0,0.0,0.0,0.0,0.0,0.0,0.0,0.0,0.0,0.0,0.0,0.0,0.0,0.0,0.0,0.0,0.0,0.0,0.0,0.0,0.0,0.0,0.0,-0.166713044047,-9.62032318115,0.176519691944,0.0,0.0,0.0,0.0,0.0,0.0,0.0,0.0,0.0
1486561900,433645,1644543886775926352,1,0.0,0.0,0.0,0.0,0.0,0.0,0.0,0.0,0.0,0.0,0.0,0.0,0.0,0.0,0.0,0.0,0.0,0.0,0.0,0.0,0.0,0.0,0.0,0.0,0.0,-0.176519691944,-9.58109664917,0.196132987738,0.0,0.0,0.0,0.0,0.0,0.0,0.0,0.0,0.0
1488620000,433646,1644543886777939081,1,0.0,0.0,0.0,0.0,0.0,0.0,0.0,0.0,0.0,0.0,0.0,0.0,0.0,0.0,0.0,0.0,0.0,0.0,0.0,0.0,0.0,0.0,0.0,0.0,0.0,-0.176519691944,-9.61051654816,0.196132987738,0.0,0.0,0.0,0.0,0.0,0.0,0.0,0.0,0.0
1490499500,433647,1644543886779953718,1,0.0,0.0,0.0,0.0,0.0,0.0,0.0,0.0,0.0,0.0,0.0,0.0,0.0,0.0,0.0,0.0,0.0,0.0,0.0,0.0,0.0,0.0,0.0,0.0,0.0,-0.166713044047,-9.62032318115,0.264779537916,0.0,0.0,0.0,0.0,0.0,0.0,0.0,0.0,0.0
1492454100,433648,1644543886781968355,1,0.0,0.0,0.0,0.0,0.0,0.0,0.0,0.0,0.0,0.0,0.0,0.0,0.0,0.0,0.0,0.0,0.0,0.0,0.0,0.0,0.0,0.0,0.0,0.0,0.0,-0.166713044047,-9.62032318115,0.176519691944,0.0,0.0,0.0,0.0,0.0,0.0,0.0,0.0,0.0
1494494000,433649,1644543886783983231,1,0.0,0.0,0.0,0.0,0.0,0.0,0.0,0.0,0.0,0.0,0.0,0.0,0.0,0.0,0.0,0.0,0.0,0.0,0.0,0.0,0.0,0.0,0.0,0.0,0.0,-0.176519691944,-9.62032318115,0.225552946329,0.0,0.0,0.0,0.0,0.0,0.0,0.0,0.0,0.0
1496503600,433650,1644543886785995960,1,0.0,0.0,0.0,0.0,0.0,0.0,0.0,0.0,0.0,0.0,0.0,0.0,0.0,0.0,0.0,0.0,0.0,0.0,0.0,0.0,0.0,0.0,0.0,0.0,0.0,-0.196132987738,-9.62032318115,0.196132987738,0.0,0.0,0.0,0.0,0.0,0.0,0.0,0.0,0.0
1498505200,433651,1644543886788010597,1,0.0,0.0,0.0,0.0,0.0,0.0,0.0,0.0,0.0,0.0,0.0,0.0,0.0,0.0,0.0,0.0,0.0,0.0,0.0,0.0,0.0,0.0,0.0,0.0,0.0,-0.245166242123,-9.64974308014,0.264779537916,0.0,0.0,0.0,0.0,0.0,0.0,0.0,0.0,0.0
1501042400,433652,1644543886790025234,1,0.0,0.0,0.0,0.0,0.0,0.0,0.0,0.0,0.0,0.0,0.0,0.0,0.0,0.0,0.0,0.0,0.0,0.0,0.0,0.0,0.0,0.0,0.0,0.0,0.0,-0.137293100357,-9.64974308014,0.264779537916,0.0,0.0,0.0,0.0,0.0,0.0,0.0,0.0,0.0
1502571400,433653,1644543886792039871,1,0.0,0.0,0.0,0.0,0.0,0.0,0.0,0.0,0.0,0.0,0.0,0.0,0.0,0.0,0.0,0.0,0.0,0.0,0.0,0.0,0.0,0.0,0.0,0.0,0.0,-0.176519691944,-9.61051654816,0.225552946329,0.0,0.0,0.0,0.0,0.0,0.0,0.0,0.0,0.0
1504816400,433654,1644543886794054508,1,0.0,0.0,0.0,0.0,0.0,0.0,0.0,0.0,0.0,0.0,0.0,0.0,0.0,0.0,0.0,0.0,0.0,0.0,0.0,0.0,0.0,0.0,0.0,0.0,0.0,-0.176519691944,-9.61051654816,0.225552946329,0.0,0.0,0.0,0.0,0.0,0.0,0.0,0.0,0.0
1506487600,433655,1644543886796069145,1,0.0,0.0,0.0,0.0,0.0,0.0,0.0,0.0,0.0,0.0,0.0,0.0,0.0,0.0,0.0,0.0,0.0,0.0,0.0,0.0,0.0,0.0,0.0,0.0,0.0,-0.137293100357,-9.62032318115,0.274586200714,0.0,0.0,0.0,0.0,0.0,0.0,0.0,0.0,0.0
1508751500,433656,1644543886798081875,1,0.0,0.0,0.0,0.0,0.0,0.0,0.0,0.0,0.0,0.0,0.0,0.0,0.0,0.0,0.0,0.0,0.0,0.0,0.0,0.0,0.0,0.0,0.0,0.0,0.0,-0.137293100357,-9.62032318115,0.245166242123,0.0,0.0,0.0,0.0,0.0,0.0,0.0,0.0,0.0
1510843200,433657,1644543886800096512,1,0.0,0.0,0.0,0.0,0.0,0.0,0.0,0.0,0.0,0.0,0.0,0.0,0.0,0.0,0.0,0.0,0.0,0.0,0.0,0.0,0.0,0.0,0.0,0.0,0.0,-0.176519691944,-9.64974308014,0.176519691944,0.0,0.0,0.0,0.0,0.0,0.0,0.0,0.0,0.0
1512765600,433658,1644543886802111387,1,0.0,0.0,0.0,0.0,0.0,0.0,0.0,0.0,0.0,0.0,0.0,0.0,0.0,0.0,0.0,0.0,0.0,0.0,0.0,0.0,0.0,0.0,0.0,0.0,0.0,-0.176519691944,-9.64974308014,0.245166242123,0.0,0.0,0.0,0.0,0.0,0.0,0.0,0.0,0.0
1514844600,433659,1644543886804126024,1,0.0,0.0,0.0,0.0,0.0,0.0,0.0,0.0,0.0,0.0,0.0,0.0,0.0,0.0,0.0,0.0,0.0,0.0,0.0,0.0,0.0,0.0,0.0,0.0,0.0,-0.176519691944,-9.64974308014,0.225552946329,0.0,0.0,0.0,0.0,0.0,0.0,0.0,0.0,0.0
1517011300,433660,1644543886806140661,1,0.0,0.0,0.0,0.0,0.0,0.0,0.0,0.0,0.0,0.0,0.0,0.0,0.0,0.0,0.0,0.0,0.0,0.0,0.0,0.0,0.0,0.0,0.0,0.0,0.0,-0.166713044047,-9.64974308014,0.245166242123,0.0,0.0,0.0,0.0,0.0,0.0,0.0,0.0,0.0
1518791900,433661,1644543886808153391,1,0.0,0.0,0.0,0.0,0.0,0.0,0.0,0.0,0.0,0.0,0.0,0.0,0.0,0.0,0.0,0.0,0.0,0.0,0.0,0.0,0.0,0.0,0.0,0.0,0.0,-0.196132987738,-9.58109664917,0.225552946329,0.0,0.0,0.0,0.0,0.0,0.0,0.0,0.0,0.0
1520789300,433662,1644543886810168028,1,0.0,0.0,0.0,0.0,0.0,0.0,0.0,0.0,0.0,0.0,0.0,0.0,0.0,0.0,0.0,0.0,0.0,0.0,0.0,0.0,0.0,0.0,0.0,0.0,0.0,-0.176519691944,-9.62032318115,0.225552946329,0.0,0.0,0.0,0.0,0.0,0.0,0.0,0.0,0.0
1522806100,433663,1644543886812182665,1,0.0,0.0,0.0,0.0,0.0,0.0,0.0,0.0,0.0,0.0,0.0,0.0,0.0,0.0,0.0,0.0,0.0,0.0,0.0,0.0,0.0,0.0,0.0,0.0,0.0,-0.196132987738,-9.61051654816,0.294199496508,0.0,0.0,0.0,0.0,0.0,0.0,0.0,0.0,0.0
1524881900,433664,1644543886814197302,1,0.0,0.0,0.0,0.0,0.0,0.0,0.0,0.0,0.0,0.0,0.0,0.0,0.0,0.0,0.0,0.0,0.0,0.0,0.0,0.0,0.0,0.0,0.0,0.0,0.0,-0.196132987738,-9.61051654816,0.176519691944,0.0,0.0,0.0,0.0,0.0,0.0,0.0,0.0,0.0
1527121300,433665,1644543886816211939,1,0.0,0.0,0.0,0.0,0.0,0.0,0.0,0.0,0.0,0.0,0.0,0.0,0.0,0.0,0.0,0.0,0.0,0.0,0.0,0.0,0.0,0.0,0.0,0.0,0.0,-0.196132987738,-9.62032318115,0.196132987738,0.0,0.0,0.0,0.0,0.0,0.0,0.0,0.0,0.0
1528904700,433666,1644543886818224669,1,0.0,0.0,0.0,0.0,0.0,0.0,0.0,0.0,0.0,0.0,0.0,0.0,0.0,0.0,0.0,0.0,0.0,0.0,0.0,0.0,0.0,0.0,0.0,0.0,0.0,-0.137293100357,-9.62032318115,0.176519691944,0.0,0.0,0.0,0.0,0.0,0.0,0.0,0.0,0.0
1531037100,433667,1644543886820239544,1,0.0,0.0,0.0,0.0,0.0,0.0,0.0,0.0,0.0,0.0,0.0,0.0,0.0,0.0,0.0,0.0,0.0,0.0,0.0,0.0,0.0,0.0,0.0,0.0,0.0,-0.166713044047,-9.64974308014,0.245166242123,0.0,0.0,0.0,0.0,0.0,0.0,0.0,0.0,0.0
1533355400,433668,1644543886822254181,1,0.0,0.0,0.0,0.0,0.0,0.0,0.0,0.0,0.0,0.0,0.0,0.0,0.0,0.0,0.0,0.0,0.0,0.0,0.0,0.0,0.0,0.0,0.0,0.0,0.0,-0.196132987738,-9.58109664917,0.225552946329,0.0,0.0,0.0,0.0,0.0,0.0,0.0,0.0,0.0
1535021200,433669,1644543886824268818,1,0.0,0.0,0.0,0.0,0.0,0.0,0.0,0.0,0.0,0.0,0.0,0.0,0.0,0.0,0.0,0.0,0.0,0.0,0.0,0.0,0.0,0.0,0.0,0.0,0.0,-0.176519691944,-9.61051654816,0.176519691944,0.0,0.0,0.0,0.0,0.0,0.0,0.0,0.0,0.0
1537150300,433670,1644543886826283455,1,0.0,0.0,0.0,0.0,0.0,0.0,0.0,0.0,0.0,0.0,0.0,0.0,0.0,0.0,0.0,0.0,0.0,0.0,0.0,0.0,0.0,0.0,0.0,0.0,0.0,-0.137293100357,-9.64974308014,0.245166242123,0.0,0.0,0.0,0.0,0.0,0.0,0.0,0.0,0.0
1539003800,433671,1644543886828298092,1,0.0,0.0,0.0,0.0,0.0,0.0,0.0,0.0,0.0,0.0,0.0,0.0,0.0,0.0,0.0,0.0,0.0,0.0,0.0,0.0,0.0,0.0,0.0,0.0,0.0,-0.196132987738,-9.62032318115,0.274586200714,0.0,0.0,0.0,0.0,0.0,0.0,0.0,0.0,0.0
1541112700,433672,1644543886830312729,1,0.0,0.0,0.0,0.0,0.0,0.0,0.0,0.0,0.0,0.0,0.0,0.0,0.0,0.0,0.0,0.0,0.0,0.0,0.0,0.0,0.0,0.0,0.0,0.0,0.0,-0.196132987738,-9.62032318115,0.196132987738,0.0,0.0,0.0,0.0,0.0,0.0,0.0,0.0,0.0
1542994500,433673,1644543886832325459,1,0.0,0.0,0.0,0.0,0.0,0.0,0.0,0.0,0.0,0.0,0.0,0.0,0.0,0.0,0.0,0.0,0.0,0.0,0.0,0.0,0.0,0.0,0.0,0.0,0.0,-0.196132987738,-9.64974308014,0.137293100357,0.0,0.0,0.0,0.0,0.0,0.0,0.0,0.0,0.0
1545242300,433674,1644543886834340334,1,0.0,0.0,0.0,0.0,0.0,0.0,0.0,0.0,0.0,0.0,0.0,0.0,0.0,0.0,0.0,0.0,0.0,0.0,0.0,0.0,0.0,0.0,0.0,0.0,0.0,-0.176519691944,-9.64974308014,0.245166242123,0.0,0.0,0.0,0.0,0.0,0.0,0.0,0.0,0.0
1547011300,433675,1644543886836354971,1,0.0,0.0,0.0,0.0,0.0,0.0,0.0,0.0,0.0,0.0,0.0,0.0,0.0,0.0,0.0,0.0,0.0,0.0,0.0,0.0,0.0,0.0,0.0,0.0,0.0,-0.225552946329,-9.61051654816,0.176519691944,0.0,0.0,0.0,0.0,0.0,0.0,0.0,0.0,0.0
1549006200,433676,1644543886838369608,1,0.0,0.0,0.0,0.0,0.0,0.0,0.0,0.0,0.0,0.0,0.0,0.0,0.0,0.0,0.0,0.0,0.0,0.0,0.0,0.0,0.0,0.0,0.0,0.0,0.0,-0.196132987738,-9.61051654816,0.176519691944,0.0,0.0,0.0,0.0,0.0,0.0,0.0,0.0,0.0
1551001100,433677,1644543886840382338,1,0.0,0.0,0.0,0.0,0.0,0.0,0.0,0.0,0.0,0.0,0.0,0.0,0.0,0.0,0.0,0.0,0.0,0.0,0.0,0.0,0.0,0.0,0.0,0.0,0.0,-0.166713044047,-9.62032318115,0.225552946329,0.0,0.0,0.0,0.0,0.0,0.0,0.0,0.0,0.0
1553003900,433678,1644543886842396975,1,0.0,0.0,0.0,0.0,0.0,0.0,0.0,0.0,0.0,0.0,0.0,0.0,0.0,0.0,0.0,0.0,0.0,0.0,0.0,0.0,0.0,0.0,0.0,0.0,0.0,-0.176519691944,-9.66935634613,0.166713044047,0.0,0.0,0.0,0.0,0.0,0.0,0.0,0.0,0.0
1555087000,433679,1644543886844411612,1,0.0,0.0,0.0,0.0,0.0,0.0,0.0,0.0,0.0,0.0,0.0,0.0,0.0,0.0,0.0,0.0,0.0,0.0,0.0,0.0,0.0,0.0,0.0,0.0,0.0,-0.196132987738,-9.62032318115,0.245166242123,0.0,0.0,0.0,0.0,0.0,0.0,0.0,0.0,0.0
1557031700,433680,1644543886846426249,1,0.0,0.0,0.0,0.0,0.0,0.0,0.0,0.0,0.0,0.0,0.0,0.0,0.0,0.0,0.0,0.0,0.0,0.0,0.0,0.0,0.0,0.0,0.0,0.0,0.0,-0.196132987738,-9.62032318115,0.225552946329,0.0,0.0,0.0,0.0,0.0,0.0,0.0,0.0,0.0
1559015200,433681,1644543886848441124,1,0.0,0.0,0.0,0.0,0.0,0.0,0.0,0.0,0.0,0.0,0.0,0.0,0.0,0.0,0.0,0.0,0.0,0.0,0.0,0.0,0.0,0.0,0.0,0.0,0.0,-0.176519691944,-9.61051654816,0.196132987738,0.0,0.0,0.0,0.0,0.0,0.0,0.0,0.0,0.0
1561434600,433682,1644543886850453854,1,0.0,0.0,0.0,0.0,0.0,0.0,0.0,0.0,0.0,0.0,0.0,0.0,0.0,0.0,0.0,0.0,0.0,0.0,0.0,0.0,0.0,0.0,0.0,0.0,0.0,-0.176519691944,-9.64974308014,0.166713044047,0.0,0.0,0.0,0.0,0.0,0.0,0.0,0.0,0.0
1563783500,433683,1644543886852468491,1,0.0,0.0,0.0,0.0,0.0,0.0,0.0,0.0,0.0,0.0,0.0,0.0,0.0,0.0,0.0,0.0,0.0,0.0,0.0,0.0,0.0,0.0,0.0,0.0,0.0,-0.137293100357,-9.64974308014,0.176519691944,0.0,0.0,0.0,0.0,0.0,0.0,0.0,0.0,0.0
1565543400,433684,1644543886854483128,1,0.0,0.0,0.0,0.0,0.0,0.0,0.0,0.0,0.0,0.0,0.0,0.0,0.0,0.0,0.0,0.0,0.0,0.0,0.0,0.0,0.0,0.0,0.0,0.0,0.0,-0.196132987738,-9.66935634613,0.176519691944,0.0,0.0,0.0,0.0,0.0,0.0,0.0,0.0,0.0
1567280600,433685,1644543886856497765,1,0.0,0.0,0.0,0.0,0.0,0.0,0.0,0.0,0.0,0.0,0.0,0.0,0.0,0.0,0.0,0.0,0.0,0.0,0.0,0.0,0.0,0.0,0.0,0.0,0.0,-0.166713044047,-9.61051654816,0.196132987738,0.0,0.0,0.0,0.0,0.0,0.0,0.0,0.0,0.0
1569152200,433686,1644543886858512402,1,0.0,0.0,0.0,0.0,0.0,0.0,0.0,0.0,0.0,0.0,0.0,0.0,0.0,0.0,0.0,0.0,0.0,0.0,0.0,0.0,0.0,0.0,0.0,0.0,0.0,-0.196132987738,-9.66935634613,0.176519691944,0.0,0.0,0.0,0.0,0.0,0.0,0.0,0.0,0.0
1571103600,433687,1644543886860527277,1,0.0,0.0,0.0,0.0,0.0,0.0,0.0,0.0,0.0,0.0,0.0,0.0,0.0,0.0,0.0,0.0,0.0,0.0,0.0,0.0,0.0,0.0,0.0,0.0,0.0,-0.166713044047,-9.64974308014,0.225552946329,0.0,0.0,0.0,0.0,0.0,0.0,0.0,0.0,0.0
1573071200,433688,1644543886862541914,1,0.0,0.0,0.0,0.0,0.0,0.0,0.0,0.0,0.0,0.0,0.0,0.0,0.0,0.0,0.0,0.0,0.0,0.0,0.0,0.0,0.0,0.0,0.0,0.0,0.0,-0.166713044047,-9.64974308014,0.166713044047,0.0,0.0,0.0,0.0,0.0,0.0,0.0,0.0,0.0
1575145400,433689,1644543886864554644,1,0.0,0.0,0.0,0.0,0.0,0.0,0.0,0.0,0.0,0.0,0.0,0.0,0.0,0.0,0.0,0.0,0.0,0.0,0.0,0.0,0.0,0.0,0.0,0.0,0.0,-0.166713044047,-9.66935634613,0.166713044047,0.0,0.0,0.0,0.0,0.0,0.0,0.0,0.0,0.0
1577082400,433690,1644543886866569281,1,0.0,0.0,0.0,0.0,0.0,0.0,0.0,0.0,0.0,0.0,0.0,0.0,0.0,0.0,0.0,0.0,0.0,0.0,0.0,0.0,0.0,0.0,0.0,0.0,0.0,-0.166713044047,-9.61051654816,0.166713044047,0.0,0.0,0.0,0.0,0.0,0.0,0.0,0.0,0.0
1579117000,433691,1644543886868583918,1,0.0,0.0,0.0,0.0,0.0,0.0,0.0,0.0,0.0,0.0,0.0,0.0,0.0,0.0,0.0,0.0,0.0,0.0,0.0,0.0,0.0,0.0,0.0,0.0,0.0,-0.176519691944,-9.61051654816,0.225552946329,0.0,0.0,0.0,0.0,0.0,0.0,0.0,0.0,0.0
1580993500,433692,1644543886870596647,1,0.0,0.0,0.0,0.0,0.0,0.0,0.0,0.0,0.0,0.0,0.0,0.0,0.0,0.0,0.0,0.0,0.0,0.0,0.0,0.0,0.0,0.0,0.0,0.0,0.0,-0.196132987738,-9.64974308014,0.225552946329,0.0,0.0,0.0,0.0,0.0,0.0,0.0,0.0,0.0
1583000100,433693,1644543886872611284,1,0.0,0.0,0.0,0.0,0.0,0.0,0.0,0.0,0.0,0.0,0.0,0.0,0.0,0.0,0.0,0.0,0.0,0.0,0.0,0.0,0.0,0.0,0.0,0.0,0.0,-0.176519691944,-9.62032318115,0.176519691944,0.0,0.0,0.0,0.0,0.0,0.0,0.0,0.0,0.0
1585005500,433694,1644543886874626160,1,0.0,0.0,0.0,0.0,0.0,0.0,0.0,0.0,0.0,0.0,0.0,0.0,0.0,0.0,0.0,0.0,0.0,0.0,0.0,0.0,0.0,0.0,0.0,0.0,0.0,-0.137293100357,-9.58109664917,0.225552946329,0.0,0.0,0.0,0.0,0.0,0.0,0.0,0.0,0.0
1587041800,433695,1644543886876640797,1,0.0,0.0,0.0,0.0,0.0,0.0,0.0,0.0,0.0,0.0,0.0,0.0,0.0,0.0,0.0,0.0,0.0,0.0,0.0,0.0,0.0,0.0,0.0,0.0,0.0,-0.176519691944,-9.61051654816,0.196132987738,0.0,0.0,0.0,0.0,0.0,0.0,0.0,0.0,0.0
1589179200,433696,1644543886878653526,1,0.0,0.0,0.0,0.0,0.0,0.0,0.0,0.0,0.0,0.0,0.0,0.0,0.0,0.0,0.0,0.0,0.0,0.0,0.0,0.0,0.0,0.0,0.0,0.0,0.0,-0.196132987738,-9.57129001617,0.225552946329,0.0,0.0,0.0,0.0,0.0,0.0,0.0,0.0,0.0
1591304500,433697,1644543886880668163,1,0.0,0.0,0.0,0.0,0.0,0.0,0.0,0.0,0.0,0.0,0.0,0.0,0.0,0.0,0.0,0.0,0.0,0.0,0.0,0.0,0.0,0.0,0.0,0.0,0.0,-0.166713044047,-9.57129001617,0.176519691944,0.0,0.0,0.0,0.0,0.0,0.0,0.0,0.0,0.0
1593545700,433698,1644543886882682800,1,0.0,0.0,0.0,0.0,0.0,0.0,0.0,0.0,0.0,0.0,0.0,0.0,0.0,0.0,0.0,0.0,0.0,0.0,0.0,0.0,0.0,0.0,0.0,0.0,0.0,-0.12748645246,-9.64974308014,0.176519691944,0.0,0.0,0.0,0.0,0.0,0.0,0.0,0.0,0.0
1595305600,433699,1644543886884695530,1,0.0,0.0,0.0,0.0,0.0,0.0,0.0,0.0,0.0,0.0,0.0,0.0,0.0,0.0,0.0,0.0,0.0,0.0,0.0,0.0,0.0,0.0,0.0,0.0,0.0,-0.176519691944,-9.61051654816,0.196132987738,0.0,0.0,0.0,0.0,0.0,0.0,0.0,0.0,0.0
1597217400,433700,1644543886886710405,1,0.0,0.0,0.0,0.0,0.0,0.0,0.0,0.0,0.0,0.0,0.0,0.0,0.0,0.0,0.0,0.0,0.0,0.0,0.0,0.0,0.0,0.0,0.0,0.0,0.0,-0.196132987738,-9.61051654816,0.176519691944,0.0,0.0,0.0,0.0,0.0,0.0,0.0,0.0,0.0
1599281800,433701,1644543886888725042,1,0.0,0.0,0.0,0.0,0.0,0.0,0.0,0.0,0.0,0.0,0.0,0.0,0.0,0.0,0.0,0.0,0.0,0.0,0.0,0.0,0.0,0.0,0.0,0.0,0.0,-0.196132987738,-9.62032318115,0.176519691944,0.0,0.0,0.0,0.0,0.0,0.0,0.0,0.0,0.0
1601365100,433702,1644543886890737772,1,0.0,0.0,0.0,0.0,0.0,0.0,0.0,0.0,0.0,0.0,0.0,0.0,0.0,0.0,0.0,0.0,0.0,0.0,0.0,0.0,0.0,0.0,0.0,0.0,0.0,-0.166713044047,-9.62032318115,0.225552946329,0.0,0.0,0.0,0.0,0.0,0.0,0.0,0.0,0.0
1603269600,433703,1644543886892752409,1,0.0,0.0,0.0,0.0,0.0,0.0,0.0,0.0,0.0,0.0,0.0,0.0,0.0,0.0,0.0,0.0,0.0,0.0,0.0,0.0,0.0,0.0,0.0,0.0,0.0,-0.176519691944,-9.62032318115,0.225552946329,0.0,0.0,0.0,0.0,0.0,0.0,0.0,0.0,0.0
1605256400,433704,1644543886894767046,1,0.0,0.0,0.0,0.0,0.0,0.0,0.0,0.0,0.0,0.0,0.0,0.0,0.0,0.0,0.0,0.0,0.0,0.0,0.0,0.0,0.0,0.0,0.0,0.0,0.0,-0.176519691944,-9.61051654816,0.166713044047,0.0,0.0,0.0,0.0,0.0,0.0,0.0,0.0,0.0
1607303400,433705,1644543886896781683,1,0.0,0.0,0.0,0.0,0.0,0.0,0.0,0.0,0.0,0.0,0.0,0.0,0.0,0.0,0.0,0.0,0.0,0.0,0.0,0.0,0.0,0.0,0.0,0.0,0.0,-0.137293100357,-9.61051654816,0.196132987738,0.0,0.0,0.0,0.0,0.0,0.0,0.0,0.0,0.0
1609521300,433706,1644543886898796558,1,0.0,0.0,0.0,0.0,0.0,0.0,0.0,0.0,0.0,0.0,0.0,0.0,0.0,0.0,0.0,0.0,0.0,0.0,0.0,0.0,0.0,0.0,0.0,0.0,0.0,-0.137293100357,-9.61051654816,0.245166242123,0.0,0.0,0.0,0.0,0.0,0.0,0.0,0.0,0.0
1611500200,433707,1644543886900809288,1,0.0,0.0,0.0,0.0,0.0,0.0,0.0,0.0,0.0,0.0,0.0,0.0,0.0,0.0,0.0,0.0,0.0,0.0,0.0,0.0,0.0,0.0,0.0,0.0,0.0,-0.166713044047,-9.61051654816,0.245166242123,0.0,0.0,0.0,0.0,0.0,0.0,0.0,0.0,0.0
1613317000,433708,1644543886902823925,1,0.0,0.0,0.0,0.0,0.0,0.0,0.0,0.0,0.0,0.0,0.0,0.0,0.0,0.0,0.0,0.0,0.0,0.0,0.0,0.0,0.0,0.0,0.0,0.0,0.0,-0.196132987738,-9.62032318115,0.245166242123,0.0,0.0,0.0,0.0,0.0,0.0,0.0,0.0,0.0
1615374600,433709,1644543886904838562,1,0.0,0.0,0.0,0.0,0.0,0.0,0.0,0.0,0.0,0.0,0.0,0.0,0.0,0.0,0.0,0.0,0.0,0.0,0.0,0.0,0.0,0.0,0.0,0.0,0.0,-0.166713044047,-9.61051654816,0.176519691944,0.0,0.0,0.0,0.0,0.0,0.0,0.0,0.0,0.0
1617217100,433710,1644543886906851292,1,0.0,0.0,0.0,0.0,0.0,0.0,0.0,0.0,0.0,0.0,0.0,0.0,0.0,0.0,0.0,0.0,0.0,0.0,0.0,0.0,0.0,0.0,0.0,0.0,0.0,-0.12748645246,-9.62032318115,0.225552946329,0.0,0.0,0.0,0.0,0.0,0.0,0.0,0.0,0.0
1619205100,433711,1644543886908865929,1,0.0,0.0,0.0,0.0,0.0,0.0,0.0,0.0,0.0,0.0,0.0,0.0,0.0,0.0,0.0,0.0,0.0,0.0,0.0,0.0,0.0,0.0,0.0,0.0,0.0,-0.12748645246,-9.62032318115,0.245166242123,0.0,0.0,0.0,0.0,0.0,0.0,0.0,0.0,0.0
1621735200,433712,1644543886910880804,1,0.0,0.0,0.0,0.0,0.0,0.0,0.0,0.0,0.0,0.0,0.0,0.0,0.0,0.0,0.0,0.0,0.0,0.0,0.0,0.0,0.0,0.0,0.0,0.0,0.0,-0.176519691944,-9.62032318115,0.196132987738,0.0,0.0,0.0,0.0,0.0,0.0,0.0,0.0,0.0
1623923500,433713,1644543886912895441,1,0.0,0.0,0.0,0.0,0.0,0.0,0.0,0.0,0.0,0.0,0.0,0.0,0.0,0.0,0.0,0.0,0.0,0.0,0.0,0.0,0.0,0.0,0.0,0.0,0.0,-0.176519691944,-9.62032318115,0.245166242123,0.0,0.0,0.0,0.0,0.0,0.0,0.0,0.0,0.0
1625556500,433714,1644543886914908171,1,0.0,0.0,0.0,0.0,0.0,0.0,0.0,0.0,0.0,0.0,0.0,0.0,0.0,0.0,0.0,0.0,0.0,0.0,0.0,0.0,0.0,0.0,0.0,0.0,0.0,-0.166713044047,-9.62032318115,0.264779537916,0.0,0.0,0.0,0.0,0.0,0.0,0.0,0.0,0.0
1627536700,433715,1644543886916922808,1,0.0,0.0,0.0,0.0,0.0,0.0,0.0,0.0,0.0,0.0,0.0,0.0,0.0,0.0,0.0,0.0,0.0,0.0,0.0,0.0,0.0,0.0,0.0,0.0,0.0,-0.137293100357,-9.62032318115,0.264779537916,0.0,0.0,0.0,0.0,0.0,0.0,0.0,0.0,0.0
1629770900,433716,1644543886918937445,1,0.0,0.0,0.0,0.0,0.0,0.0,0.0,0.0,0.0,0.0,0.0,0.0,0.0,0.0,0.0,0.0,0.0,0.0,0.0,0.0,0.0,0.0,0.0,0.0,0.0,-0.176519691944,-9.61051654816,0.176519691944,0.0,0.0,0.0,0.0,0.0,0.0,0.0,0.0,0.0
1631557700,433717,1644543886920952320,1,0.0,0.0,0.0,0.0,0.0,0.0,0.0,0.0,0.0,0.0,0.0,0.0,0.0,0.0,0.0,0.0,0.0,0.0,0.0,0.0,0.0,0.0,0.0,0.0,0.0,-0.176519691944,-9.61051654816,0.245166242123,0.0,0.0,0.0,0.0,0.0,0.0,0.0,0.0,0.0
1633526300,433718,1644543886922965050,1,0.0,0.0,0.0,0.0,0.0,0.0,0.0,0.0,0.0,0.0,0.0,0.0,0.0,0.0,0.0,0.0,0.0,0.0,0.0,0.0,0.0,0.0,0.0,0.0,0.0,-0.12748645246,-9.62032318115,0.225552946329,0.0,0.0,0.0,0.0,0.0,0.0,0.0,0.0,0.0
1635502100,433719,1644543886924979687,1,0.0,0.0,0.0,0.0,0.0,0.0,0.0,0.0,0.0,0.0,0.0,0.0,0.0,0.0,0.0,0.0,0.0,0.0,0.0,0.0,0.0,0.0,0.0,0.0,0.0,-0.176519691944,-9.58109664917,0.264779537916,0.0,0.0,0.0,0.0,0.0,0.0,0.0,0.0,0.0
1637613100,433720,1644543886926994324,1,0.0,0.0,0.0,0.0,0.0,0.0,0.0,0.0,0.0,0.0,0.0,0.0,0.0,0.0,0.0,0.0,0.0,0.0,0.0,0.0,0.0,0.0,0.0,0.0,0.0,-0.225552946329,-9.64974308014,0.245166242123,0.0,0.0,0.0,0.0,0.0,0.0,0.0,0.0,0.0
1639876600,433721,1644543886929008961,1,0.0,0.0,0.0,0.0,0.0,0.0,0.0,0.0,0.0,0.0,0.0,0.0,0.0,0.0,0.0,0.0,0.0,0.0,0.0,0.0,0.0,0.0,0.0,0.0,0.0,-0.166713044047,-9.62032318115,0.225552946329,0.0,0.0,0.0,0.0,0.0,0.0,0.0,0.0,0.0
1641800600,433722,1644543886931023836,1,0.0,0.0,0.0,0.0,0.0,0.0,0.0,0.0,0.0,0.0,0.0,0.0,0.0,0.0,0.0,0.0,0.0,0.0,0.0,0.0,0.0,0.0,0.0,0.0,0.0,-0.166713044047,-9.62032318115,0.225552946329,0.0,0.0,0.0,0.0,0.0,0.0,0.0,0.0,0.0
1643570000,433723,1644543886933036566,1,0.0,0.0,0.0,0.0,0.0,0.0,0.0,0.0,0.0,0.0,0.0,0.0,0.0,0.0,0.0,0.0,0.0,0.0,0.0,0.0,0.0,0.0,0.0,0.0,0.0,-0.137293100357,-9.62032318115,0.196132987738,0.0,0.0,0.0,0.0,0.0,0.0,0.0,0.0,0.0
1645815400,433724,1644543886935051203,1,0.0,0.0,0.0,0.0,0.0,0.0,0.0,0.0,0.0,0.0,0.0,0.0,0.0,0.0,0.0,0.0,0.0,0.0,0.0,0.0,0.0,0.0,0.0,0.0,0.0,-0.166713044047,-9.58109664917,0.274586200714,0.0,0.0,0.0,0.0,0.0,0.0,0.0,0.0,0.0
1647804400,433725,1644543886937065840,1,0.0,0.0,0.0,0.0,0.0,0.0,0.0,0.0,0.0,0.0,0.0,0.0,0.0,0.0,0.0,0.0,0.0,0.0,0.0,0.0,0.0,0.0,0.0,0.0,0.0,-0.176519691944,-9.62032318115,0.176519691944,0.0,0.0,0.0,0.0,0.0,0.0,0.0,0.0,0.0
1649847600,433726,1644543886939080477,1,0.0,0.0,0.0,0.0,0.0,0.0,0.0,0.0,0.0,0.0,0.0,0.0,0.0,0.0,0.0,0.0,0.0,0.0,0.0,0.0,0.0,0.0,0.0,0.0,0.0,-0.176519691944,-9.66935634613,0.196132987738,0.0,0.0,0.0,0.0,0.0,0.0,0.0,0.0,0.0
1652199200,433727,1644543886941095352,1,0.0,0.0,0.0,0.0,0.0,0.0,0.0,0.0,0.0,0.0,0.0,0.0,0.0,0.0,0.0,0.0,0.0,0.0,0.0,0.0,0.0,0.0,0.0,0.0,0.0,-0.12748645246,-9.62032318115,0.166713044047,0.0,0.0,0.0,0.0,0.0,0.0,0.0,0.0,0.0
1654088900,433728,1644543886943109989,1,0.0,0.0,0.0,0.0,0.0,0.0,0.0,0.0,0.0,0.0,0.0,0.0,0.0,0.0,0.0,0.0,0.0,0.0,0.0,0.0,0.0,0.0,0.0,0.0,0.0,-0.137293100357,-9.62032318115,0.245166242123,0.0,0.0,0.0,0.0,0.0,0.0,0.0,0.0,0.0
1656231400,433729,1644543886945122719,1,0.0,0.0,0.0,0.0,0.0,0.0,0.0,0.0,0.0,0.0,0.0,0.0,0.0,0.0,0.0,0.0,0.0,0.0,0.0,0.0,0.0,0.0,0.0,0.0,0.0,-0.166713044047,-9.64974308014,0.294199496508,0.0,0.0,0.0,0.0,0.0,0.0,0.0,0.0,0.0
1657810900,433730,1644543886947137356,1,0.0,0.0,0.0,0.0,0.0,0.0,0.0,0.0,0.0,0.0,0.0,0.0,0.0,0.0,0.0,0.0,0.0,0.0,0.0,0.0,0.0,0.0,0.0,0.0,0.0,-0.137293100357,-9.64974308014,0.264779537916,0.0,0.0,0.0,0.0,0.0,0.0,0.0,0.0,0.0
1659772400,433731,1644543886949152231,1,0.0,0.0,0.0,0.0,0.0,0.0,0.0,0.0,0.0,0.0,0.0,0.0,0.0,0.0,0.0,0.0,0.0,0.0,0.0,0.0,0.0,0.0,0.0,0.0,0.0,-0.137293100357,-9.64974308014,0.245166242123,0.0,0.0,0.0,0.0,0.0,0.0,0.0,0.0,0.0
1661784300,433732,1644543886951167107,1,0.0,0.0,0.0,0.0,0.0,0.0,0.0,0.0,0.0,0.0,0.0,0.0,0.0,0.0,0.0,0.0,0.0,0.0,0.0,0.0,0.0,0.0,0.0,0.0,0.0,-0.196132987738,-9.62032318115,0.225552946329,0.0,0.0,0.0,0.0,0.0,0.0,0.0,0.0,0.0
1663771300,433733,1644543886953181744,1,0.0,0.0,0.0,0.0,0.0,0.0,0.0,0.0,0.0,0.0,0.0,0.0,0.0,0.0,0.0,0.0,0.0,0.0,0.0,0.0,0.0,0.0,0.0,0.0,0.0,-0.176519691944,-9.62032318115,0.245166242123,0.0,0.0,0.0,0.0,0.0,0.0,0.0,0.0,0.0
1665799300,433734,1644543886955194235,1,0.0,0.0,0.0,0.0,0.0,0.0,0.0,0.0,0.0,0.0,0.0,0.0,0.0,0.0,0.0,0.0,0.0,0.0,0.0,0.0,0.0,0.0,0.0,0.0,0.0,-0.137293100357,-9.61051654816,0.245166242123,0.0,0.0,0.0,0.0,0.0,0.0,0.0,0.0,0.0
1667808300,433735,1644543886957208872,1,0.0,0.0,0.0,0.0,0.0,0.0,0.0,0.0,0.0,0.0,0.0,0.0,0.0,0.0,0.0,0.0,0.0,0.0,0.0,0.0,0.0,0.0,0.0,0.0,0.0,-0.176519691944,-9.66935634613,0.196132987738,0.0,0.0,0.0,0.0,0.0,0.0,0.0,0.0,0.0
1669971500,433736,1644543886959223986,1,0.0,0.0,0.0,0.0,0.0,0.0,0.0,0.0,0.0,0.0,0.0,0.0,0.0,0.0,0.0,0.0,0.0,0.0,0.0,0.0,0.0,0.0,0.0,0.0,0.0,-0.166713044047,-9.61051654816,0.196132987738,0.0,0.0,0.0,0.0,0.0,0.0,0.0,0.0,0.0
1671922700,433737,1644543886961236477,1,0.0,0.0,0.0,0.0,0.0,0.0,0.0,0.0,0.0,0.0,0.0,0.0,0.0,0.0,0.0,0.0,0.0,0.0,0.0,0.0,0.0,0.0,0.0,0.0,0.0,-0.176519691944,-9.61051654816,0.225552946329,0.0,0.0,0.0,0.0,0.0,0.0,0.0,0.0,0.0
1673761600,433738,1644543886963251114,1,0.0,0.0,0.0,0.0,0.0,0.0,0.0,0.0,0.0,0.0,0.0,0.0,0.0,0.0,0.0,0.0,0.0,0.0,0.0,0.0,0.0,0.0,0.0,0.0,0.0,-0.0980664938688,-9.62032318115,0.225552946329,0.0,0.0,0.0,0.0,0.0,0.0,0.0,0.0,0.0
1675766400,433739,1644543886965265751,1,0.0,0.0,0.0,0.0,0.0,0.0,0.0,0.0,0.0,0.0,0.0,0.0,0.0,0.0,0.0,0.0,0.0,0.0,0.0,0.0,0.0,0.0,0.0,0.0,0.0,-0.166713044047,-9.64974308014,0.196132987738,0.0,0.0,0.0,0.0,0.0,0.0,0.0,0.0,0.0
1677756600,433740,1644543886967280865,1,0.0,0.0,0.0,0.0,0.0,0.0,0.0,0.0,0.0,0.0,0.0,0.0,0.0,0.0,0.0,0.0,0.0,0.0,0.0,0.0,0.0,0.0,0.0,0.0,0.0,-0.176519691944,-9.62032318115,0.176519691944,0.0,0.0,0.0,0.0,0.0,0.0,0.0,0.0,0.0
1679755200,433741,1644543886969293356,1,0.0,0.0,0.0,0.0,0.0,0.0,0.0,0.0,0.0,0.0,0.0,0.0,0.0,0.0,0.0,0.0,0.0,0.0,0.0,0.0,0.0,0.0,0.0,0.0,0.0,-0.137293100357,-9.61051654816,0.264779537916,0.0,0.0,0.0,0.0,0.0,0.0,0.0,0.0,0.0
1681753400,433742,1644543886971307993,1,0.0,0.0,0.0,0.0,0.0,0.0,0.0,0.0,0.0,0.0,0.0,0.0,0.0,0.0,0.0,0.0,0.0,0.0,0.0,0.0,0.0,0.0,0.0,0.0,0.0,-0.176519691944,-9.64974308014,0.264779537916,0.0,0.0,0.0,0.0,0.0,0.0,0.0,0.0,0.0
1684226600,433743,1644543886973322868,1,0.0,0.0,0.0,0.0,0.0,0.0,0.0,0.0,0.0,0.0,0.0,0.0,0.0,0.0,0.0,0.0,0.0,0.0,0.0,0.0,0.0,0.0,0.0,0.0,0.0,-0.166713044047,-9.62032318115,0.225552946329,0.0,0.0,0.0,0.0,0.0,0.0,0.0,0.0,0.0
1685831300,433744,1644543886975335360,1,0.0,0.0,0.0,0.0,0.0,0.0,0.0,0.0,0.0,0.0,0.0,0.0,0.0,0.0,0.0,0.0,0.0,0.0,0.0,0.0,0.0,0.0,0.0,0.0,0.0,-0.137293100357,-9.58109664917,0.196132987738,0.0,0.0,0.0,0.0,0.0,0.0,0.0,0.0,0.0
1687746000,433745,1644543886977350235,1,0.0,0.0,0.0,0.0,0.0,0.0,0.0,0.0,0.0,0.0,0.0,0.0,0.0,0.0,0.0,0.0,0.0,0.0,0.0,0.0,0.0,0.0,0.0,0.0,0.0,-0.196132987738,-9.66935634613,0.274586200714,0.0,0.0,0.0,0.0,0.0,0.0,0.0,0.0,0.0
1689817700,433746,1644543886979364872,1,0.0,0.0,0.0,0.0,0.0,0.0,0.0,0.0,0.0,0.0,0.0,0.0,0.0,0.0,0.0,0.0,0.0,0.0,0.0,0.0,0.0,0.0,0.0,0.0,0.0,-0.225552946329,-9.61051654816,0.245166242123,0.0,0.0,0.0,0.0,0.0,0.0,0.0,0.0,0.0
1691877000,433747,1644543886981379747,1,0.0,0.0,0.0,0.0,0.0,0.0,0.0,0.0,0.0,0.0,0.0,0.0,0.0,0.0,0.0,0.0,0.0,0.0,0.0,0.0,0.0,0.0,0.0,0.0,0.0,-0.196132987738,-9.62032318115,0.196132987738,0.0,0.0,0.0,0.0,0.0,0.0,0.0,0.0,0.0
1693874500,433748,1644543886983392239,1,0.0,0.0,0.0,0.0,0.0,0.0,0.0,0.0,0.0,0.0,0.0,0.0,0.0,0.0,0.0,0.0,0.0,0.0,0.0,0.0,0.0,0.0,0.0,0.0,0.0,-0.176519691944,-9.62032318115,0.176519691944,0.0,0.0,0.0,0.0,0.0,0.0,0.0,0.0,0.0
1695871200,433749,1644543886985407114,1,0.0,0.0,0.0,0.0,0.0,0.0,0.0,0.0,0.0,0.0,0.0,0.0,0.0,0.0,0.0,0.0,0.0,0.0,0.0,0.0,0.0,0.0,0.0,0.0,0.0,-0.176519691944,-9.61051654816,0.196132987738,0.0,0.0,0.0,0.0,0.0,0.0,0.0,0.0,0.0
1697950000,433750,1644543886987421989,1,0.0,0.0,0.0,0.0,0.0,0.0,0.0,0.0,0.0,0.0,0.0,0.0,0.0,0.0,0.0,0.0,0.0,0.0,0.0,0.0,0.0,0.0,0.0,0.0,0.0,-0.196132987738,-9.62032318115,0.245166242123,0.0,0.0,0.0,0.0,0.0,0.0,0.0,0.0,0.0
1699888500,433751,1644543886989434481,1,0.0,0.0,0.0,0.0,0.0,0.0,0.0,0.0,0.0,0.0,0.0,0.0,0.0,0.0,0.0,0.0,0.0,0.0,0.0,0.0,0.0,0.0,0.0,0.0,0.0,-0.225552946329,-9.58109664917,0.245166242123,0.0,0.0,0.0,0.0,0.0,0.0,0.0,0.0,0.0
1701863600,433752,1644543886991449118,1,0.0,0.0,0.0,0.0,0.0,0.0,0.0,0.0,0.0,0.0,0.0,0.0,0.0,0.0,0.0,0.0,0.0,0.0,0.0,0.0,0.0,0.0,0.0,0.0,0.0,-0.176519691944,-9.61051654816,0.176519691944,0.0,0.0,0.0,0.0,0.0,0.0,0.0,0.0,0.0
1703799900,433753,1644543886993463993,1,0.0,0.0,0.0,0.0,0.0,0.0,0.0,0.0,0.0,0.0,0.0,0.0,0.0,0.0,0.0,0.0,0.0,0.0,0.0,0.0,0.0,0.0,0.0,0.0,0.0,-0.196132987738,-9.62032318115,0.166713044047,0.0,0.0,0.0,0.0,0.0,0.0,0.0,0.0,0.0
1705979200,433754,1644543886995476723,1,0.0,0.0,0.0,0.0,0.0,0.0,0.0,0.0,0.0,0.0,0.0,0.0,0.0,0.0,0.0,0.0,0.0,0.0,0.0,0.0,0.0,0.0,0.0,0.0,0.0,-0.225552946329,-9.58109664917,0.225552946329,0.0,0.0,0.0,0.0,0.0,0.0,0.0,0.0,0.0
1708024200,433755,1644543886997491360,1,0.0,0.0,0.0,0.0,0.0,0.0,0.0,0.0,0.0,0.0,0.0,0.0,0.0,0.0,0.0,0.0,0.0,0.0,0.0,0.0,0.0,0.0,0.0,0.0,0.0,-0.196132987738,-9.57129001617,0.264779537916,0.0,0.0,0.0,0.0,0.0,0.0,0.0,0.0,0.0
1709999200,433756,1644543886999505997,1,0.0,0.0,0.0,0.0,0.0,0.0,0.0,0.0,0.0,0.0,0.0,0.0,0.0,0.0,0.0,0.0,0.0,0.0,0.0,0.0,0.0,0.0,0.0,0.0,0.0,-0.137293100357,-9.62032318115,0.196132987738,0.0,0.0,0.0,0.0,0.0,0.0,0.0,0.0,0.0
1712264600,433757,1644543887001521111,1,0.0,0.0,0.0,0.0,0.0,0.0,0.0,0.0,0.0,0.0,0.0,0.0,0.0,0.0,0.0,0.0,0.0,0.0,0.0,0.0,0.0,0.0,0.0,0.0,0.0,-0.166713044047,-9.66935634613,0.225552946329,0.0,0.0,0.0,0.0,0.0,0.0,0.0,0.0,0.0
1714501500,433758,1644543887003533602,1,0.0,0.0,0.0,0.0,0.0,0.0,0.0,0.0,0.0,0.0,0.0,0.0,0.0,0.0,0.0,0.0,0.0,0.0,0.0,0.0,0.0,0.0,0.0,0.0,0.0,-0.225552946329,-9.62032318115,0.225552946329,0.0,0.0,0.0,0.0,0.0,0.0,0.0,0.0,0.0
1716032800,433759,1644543887005548239,1,0.0,0.0,0.0,0.0,0.0,0.0,0.0,0.0,0.0,0.0,0.0,0.0,0.0,0.0,0.0,0.0,0.0,0.0,0.0,0.0,0.0,0.0,0.0,0.0,0.0,-0.225552946329,-9.62032318115,0.264779537916,0.0,0.0,0.0,0.0,0.0,0.0,0.0,0.0,0.0
1718003000,433760,1644543887007562876,1,0.0,0.0,0.0,0.0,0.0,0.0,0.0,0.0,0.0,0.0,0.0,0.0,0.0,0.0,0.0,0.0,0.0,0.0,0.0,0.0,0.0,0.0,0.0,0.0,0.0,-0.176519691944,-9.61051654816,0.176519691944,0.0,0.0,0.0,0.0,0.0,0.0,0.0,0.0,0.0
1719956500,433761,1644543887009577990,1,0.0,0.0,0.0,0.0,0.0,0.0,0.0,0.0,0.0,0.0,0.0,0.0,0.0,0.0,0.0,0.0,0.0,0.0,0.0,0.0,0.0,0.0,0.0,0.0,0.0,-0.166713044047,-9.64974308014,0.245166242123,0.0,0.0,0.0,0.0,0.0,0.0,0.0,0.0,0.0
1722025700,433762,1644543887011590481,1,0.0,0.0,0.0,0.0,0.0,0.0,0.0,0.0,0.0,0.0,0.0,0.0,0.0,0.0,0.0,0.0,0.0,0.0,0.0,0.0,0.0,0.0,0.0,0.0,0.0,-0.176519691944,-9.61051654816,0.176519691944,0.0,0.0,0.0,0.0,0.0,0.0,0.0,0.0,0.0
1724003900,433763,1644543887013605118,1,0.0,0.0,0.0,0.0,0.0,0.0,0.0,0.0,0.0,0.0,0.0,0.0,0.0,0.0,0.0,0.0,0.0,0.0,0.0,0.0,0.0,0.0,0.0,0.0,0.0,-0.196132987738,-9.61051654816,0.176519691944,0.0,0.0,0.0,0.0,0.0,0.0,0.0,0.0,0.0
1725996000,433764,1644543887015619755,1,0.0,0.0,0.0,0.0,0.0,0.0,0.0,0.0,0.0,0.0,0.0,0.0,0.0,0.0,0.0,0.0,0.0,0.0,0.0,0.0,0.0,0.0,0.0,0.0,0.0,-0.176519691944,-9.62032318115,0.196132987738,0.0,0.0,0.0,0.0,0.0,0.0,0.0,0.0,0.0
1728108500,433765,1644543887017634869,1,0.0,0.0,0.0,0.0,0.0,0.0,0.0,0.0,0.0,0.0,0.0,0.0,0.0,0.0,0.0,0.0,0.0,0.0,0.0,0.0,0.0,0.0,0.0,0.0,0.0,-0.176519691944,-9.64974308014,0.196132987738,0.0,0.0,0.0,0.0,0.0,0.0,0.0,0.0,0.0
1730139900,433766,1644543887019647360,1,0.0,0.0,0.0,0.0,0.0,0.0,0.0,0.0,0.0,0.0,0.0,0.0,0.0,0.0,0.0,0.0,0.0,0.0,0.0,0.0,0.0,0.0,0.0,0.0,0.0,-0.0784531980753,-9.64974308014,0.225552946329,0.0,0.0,0.0,0.0,0.0,0.0,0.0,0.0,0.0
1732009500,433767,1644543887021661997,1,0.0,0.0,0.0,0.0,0.0,0.0,0.0,0.0,0.0,0.0,0.0,0.0,0.0,0.0,0.0,0.0,0.0,0.0,0.0,0.0,0.0,0.0,0.0,0.0,0.0,-0.196132987738,-9.58109664917,0.196132987738,0.0,0.0,0.0,0.0,0.0,0.0,0.0,0.0,0.0
1733998500,433768,1644543887023676872,1,0.0,0.0,0.0,0.0,0.0,0.0,0.0,0.0,0.0,0.0,0.0,0.0,0.0,0.0,0.0,0.0,0.0,0.0,0.0,0.0,0.0,0.0,0.0,0.0,0.0,-0.264779537916,-9.64974308014,0.137293100357,0.0,0.0,0.0,0.0,0.0,0.0,0.0,0.0,0.0
1736410300,433769,1644543887025691748,1,0.0,0.0,0.0,0.0,0.0,0.0,0.0,0.0,0.0,0.0,0.0,0.0,0.0,0.0,0.0,0.0,0.0,0.0,0.0,0.0,0.0,0.0,0.0,0.0,0.0,-0.166713044047,-9.62032318115,0.225552946329,0.0,0.0,0.0,0.0,0.0,0.0,0.0,0.0,0.0
1738420600,433770,1644543887027706385,1,0.0,0.0,0.0,0.0,0.0,0.0,0.0,0.0,0.0,0.0,0.0,0.0,0.0,0.0,0.0,0.0,0.0,0.0,0.0,0.0,0.0,0.0,0.0,0.0,0.0,-0.0980664938688,-9.57129001617,0.245166242123,0.0,0.0,0.0,0.0,0.0,0.0,0.0,0.0,0.0
1740393300,433771,1644543887029721022,1,0.0,0.0,0.0,0.0,0.0,0.0,0.0,0.0,0.0,0.0,0.0,0.0,0.0,0.0,0.0,0.0,0.0,0.0,0.0,0.0,0.0,0.0,0.0,0.0,0.0,-0.166713044047,-9.62032318115,0.166713044047,0.0,0.0,0.0,0.0,0.0,0.0,0.0,0.0,0.0
1742302000,433772,1644543887031735897,1,0.0,0.0,0.0,0.0,0.0,0.0,0.0,0.0,0.0,0.0,0.0,0.0,0.0,0.0,0.0,0.0,0.0,0.0,0.0,0.0,0.0,0.0,0.0,0.0,0.0,-0.176519691944,-9.64974308014,0.196132987738,0.0,0.0,0.0,0.0,0.0,0.0,0.0,0.0,0.0
1744668000,433773,1644543887033750534,1,0.0,0.0,0.0,0.0,0.0,0.0,0.0,0.0,0.0,0.0,0.0,0.0,0.0,0.0,0.0,0.0,0.0,0.0,0.0,0.0,0.0,0.0,0.0,0.0,0.0,-0.166713044047,-9.62032318115,0.225552946329,0.0,0.0,0.0,0.0,0.0,0.0,0.0,0.0,0.0
1746372800,433774,1644543887035763264,1,0.0,0.0,0.0,0.0,0.0,0.0,0.0,0.0,0.0,0.0,0.0,0.0,0.0,0.0,0.0,0.0,0.0,0.0,0.0,0.0,0.0,0.0,0.0,0.0,0.0,-0.166713044047,-9.64974308014,0.264779537916,0.0,0.0,0.0,0.0,0.0,0.0,0.0,0.0,0.0
1748563300,433775,1644543887037777901,1,0.0,0.0,0.0,0.0,0.0,0.0,0.0,0.0,0.0,0.0,0.0,0.0,0.0,0.0,0.0,0.0,0.0,0.0,0.0,0.0,0.0,0.0,0.0,0.0,0.0,-0.166713044047,-9.64974308014,0.196132987738,0.0,0.0,0.0,0.0,0.0,0.0,0.0,0.0,0.0
1750303900,433776,1644543887039792776,1,0.0,0.0,0.0,0.0,0.0,0.0,0.0,0.0,0.0,0.0,0.0,0.0,0.0,0.0,0.0,0.0,0.0,0.0,0.0,0.0,0.0,0.0,0.0,0.0,0.0,-0.166713044047,-9.58109664917,0.196132987738,0.0,0.0,0.0,0.0,0.0,0.0,0.0,0.0,0.0
1752541800,433777,1644543887041807413,1,0.0,0.0,0.0,0.0,0.0,0.0,0.0,0.0,0.0,0.0,0.0,0.0,0.0,0.0,0.0,0.0,0.0,0.0,0.0,0.0,0.0,0.0,0.0,0.0,0.0,-0.176519691944,-9.61051654816,0.196132987738,0.0,0.0,0.0,0.0,0.0,0.0,0.0,0.0,0.0
1754300500,433778,1644543887043822050,1,0.0,0.0,0.0,0.0,0.0,0.0,0.0,0.0,0.0,0.0,0.0,0.0,0.0,0.0,0.0,0.0,0.0,0.0,0.0,0.0,0.0,0.0,0.0,0.0,0.0,-0.176519691944,-9.62032318115,0.225552946329,0.0,0.0,0.0,0.0,0.0,0.0,0.0,0.0,0.0
1756529700,433779,1644543887045835018,1,0.0,0.0,0.0,0.0,0.0,0.0,0.0,0.0,0.0,0.0,0.0,0.0,0.0,0.0,0.0,0.0,0.0,0.0,0.0,0.0,0.0,0.0,0.0,0.0,0.0,-0.196132987738,-9.61051654816,0.225552946329,0.0,0.0,0.0,0.0,0.0,0.0,0.0,0.0,0.0
1758529400,433780,1644543887047849655,1,0.0,0.0,0.0,0.0,0.0,0.0,0.0,0.0,0.0,0.0,0.0,0.0,0.0,0.0,0.0,0.0,0.0,0.0,0.0,0.0,0.0,0.0,0.0,0.0,0.0,-0.137293100357,-9.64974308014,0.196132987738,0.0,0.0,0.0,0.0,0.0,0.0,0.0,0.0,0.0
1760840100,433781,1644543887049864292,1,0.0,0.0,0.0,0.0,0.0,0.0,0.0,0.0,0.0,0.0,0.0,0.0,0.0,0.0,0.0,0.0,0.0,0.0,0.0,0.0,0.0,0.0,0.0,0.0,0.0,-0.176519691944,-9.62032318115,0.245166242123,0.0,0.0,0.0,0.0,0.0,0.0,0.0,0.0,0.0
1762533200,433782,1644543887051879168,1,0.0,0.0,0.0,0.0,0.0,0.0,0.0,0.0,0.0,0.0,0.0,0.0,0.0,0.0,0.0,0.0,0.0,0.0,0.0,0.0,0.0,0.0,0.0,0.0,0.0,-0.166713044047,-9.61051654816,0.264779537916,0.0,0.0,0.0,0.0,0.0,0.0,0.0,0.0,0.0
1764515400,433783,1644543887053893805,1,0.0,0.0,0.0,0.0,0.0,0.0,0.0,0.0,0.0,0.0,0.0,0.0,0.0,0.0,0.0,0.0,0.0,0.0,0.0,0.0,0.0,0.0,0.0,0.0,0.0,-0.166713044047,-9.61051654816,0.225552946329,0.0,0.0,0.0,0.0,0.0,0.0,0.0,0.0,0.0
1766522300,433784,1644543887055908442,1,0.0,0.0,0.0,0.0,0.0,0.0,0.0,0.0,0.0,0.0,0.0,0.0,0.0,0.0,0.0,0.0,0.0,0.0,0.0,0.0,0.0,0.0,0.0,0.0,0.0,-0.166713044047,-9.61051654816,0.225552946329,0.0,0.0,0.0,0.0,0.0,0.0,0.0,0.0,0.0
1768651000,433785,1644543887057921171,1,0.0,0.0,0.0,0.0,0.0,0.0,0.0,0.0,0.0,0.0,0.0,0.0,0.0,0.0,0.0,0.0,0.0,0.0,0.0,0.0,0.0,0.0,0.0,0.0,0.0,-0.137293100357,-9.58109664917,0.166713044047,0.0,0.0,0.0,0.0,0.0,0.0,0.0,0.0,0.0
1770624900,433786,1644543887059936047,1,0.0,0.0,0.0,0.0,0.0,0.0,0.0,0.0,0.0,0.0,0.0,0.0,0.0,0.0,0.0,0.0,0.0,0.0,0.0,0.0,0.0,0.0,0.0,0.0,0.0,-0.166713044047,-9.62032318115,0.225552946329,0.0,0.0,0.0,0.0,0.0,0.0,0.0,0.0,0.0
1772632600,433787,1644543887061950684,1,0.0,0.0,0.0,0.0,0.0,0.0,0.0,0.0,0.0,0.0,0.0,0.0,0.0,0.0,0.0,0.0,0.0,0.0,0.0,0.0,0.0,0.0,0.0,0.0,0.0,-0.196132987738,-9.61051654816,0.225552946329,0.0,0.0,0.0,0.0,0.0,0.0,0.0,0.0,0.0
1774790900,433788,1644543887063965321,1,0.0,0.0,0.0,0.0,0.0,0.0,0.0,0.0,0.0,0.0,0.0,0.0,0.0,0.0,0.0,0.0,0.0,0.0,0.0,0.0,0.0,0.0,0.0,0.0,0.0,-0.137293100357,-9.61051654816,0.225552946329,0.0,0.0,0.0,0.0,0.0,0.0,0.0,0.0,0.0
1776592900,433789,1644543887065980196,1,0.0,0.0,0.0,0.0,0.0,0.0,0.0,0.0,0.0,0.0,0.0,0.0,0.0,0.0,0.0,0.0,0.0,0.0,0.0,0.0,0.0,0.0,0.0,0.0,0.0,-0.137293100357,-9.64974308014,0.176519691944,0.0,0.0,0.0,0.0,0.0,0.0,0.0,0.0,0.0
1778658800,433790,1644543887067992926,1,0.0,0.0,0.0,0.0,0.0,0.0,0.0,0.0,0.0,0.0,0.0,0.0,0.0,0.0,0.0,0.0,0.0,0.0,0.0,0.0,0.0,0.0,0.0,0.0,0.0,-0.176519691944,-9.62032318115,0.225552946329,0.0,0.0,0.0,0.0,0.0,0.0,0.0,0.0,0.0
1780563200,433791,1644543887070007563,1,0.0,0.0,0.0,0.0,0.0,0.0,0.0,0.0,0.0,0.0,0.0,0.0,0.0,0.0,0.0,0.0,0.0,0.0,0.0,0.0,0.0,0.0,0.0,0.0,0.0,-0.137293100357,-9.58109664917,0.196132987738,0.0,0.0,0.0,0.0,0.0,0.0,0.0,0.0,0.0
1782520600,433792,1644543887072022438,1,0.0,0.0,0.0,0.0,0.0,0.0,0.0,0.0,0.0,0.0,0.0,0.0,0.0,0.0,0.0,0.0,0.0,0.0,0.0,0.0,0.0,0.0,0.0,0.0,0.0,-0.166713044047,-9.62032318115,0.225552946329,0.0,0.0,0.0,0.0,0.0,0.0,0.0,0.0,0.0
1784517300,433793,1644543887074037075,1,0.0,0.0,0.0,0.0,0.0,0.0,0.0,0.0,0.0,0.0,0.0,0.0,0.0,0.0,0.0,0.0,0.0,0.0,0.0,0.0,0.0,0.0,0.0,0.0,0.0,-0.166713044047,-9.62032318115,0.225552946329,0.0,0.0,0.0,0.0,0.0,0.0,0.0,0.0,0.0
1786559800,433794,1644543887076049805,1,0.0,0.0,0.0,0.0,0.0,0.0,0.0,0.0,0.0,0.0,0.0,0.0,0.0,0.0,0.0,0.0,0.0,0.0,0.0,0.0,0.0,0.0,0.0,0.0,0.0,-0.137293100357,-9.64974308014,0.137293100357,0.0,0.0,0.0,0.0,0.0,0.0,0.0,0.0,0.0
1788969000,433795,1644543887078064680,1,0.0,0.0,0.0,0.0,0.0,0.0,0.0,0.0,0.0,0.0,0.0,0.0,0.0,0.0,0.0,0.0,0.0,0.0,0.0,0.0,0.0,0.0,0.0,0.0,0.0,-0.196132987738,-9.62032318115,0.137293100357,0.0,0.0,0.0,0.0,0.0,0.0,0.0,0.0,0.0
1791177700,433796,1644543887080079317,1,0.0,0.0,0.0,0.0,0.0,0.0,0.0,0.0,0.0,0.0,0.0,0.0,0.0,0.0,0.0,0.0,0.0,0.0,0.0,0.0,0.0,0.0,0.0,0.0,0.0,-0.196132987738,-9.66935634613,0.225552946329,0.0,0.0,0.0,0.0,0.0,0.0,0.0,0.0,0.0
1792581400,433797,1644543887082093954,1,0.0,0.0,0.0,0.0,0.0,0.0,0.0,0.0,0.0,0.0,0.0,0.0,0.0,0.0,0.0,0.0,0.0,0.0,0.0,0.0,0.0,0.0,0.0,0.0,0.0,-0.176519691944,-9.62032318115,0.245166242123,0.0,0.0,0.0,0.0,0.0,0.0,0.0,0.0,0.0
1794543400,433798,1644543887084106684,1,0.0,0.0,0.0,0.0,0.0,0.0,0.0,0.0,0.0,0.0,0.0,0.0,0.0,0.0,0.0,0.0,0.0,0.0,0.0,0.0,0.0,0.0,0.0,0.0,0.0,-0.137293100357,-9.66935634613,0.12748645246,0.0,0.0,0.0,0.0,0.0,0.0,0.0,0.0,0.0
1796561600,433799,1644543887086121559,1,0.0,0.0,0.0,0.0,0.0,0.0,0.0,0.0,0.0,0.0,0.0,0.0,0.0,0.0,0.0,0.0,0.0,0.0,0.0,0.0,0.0,0.0,0.0,0.0,0.0,-0.166713044047,-9.66935634613,0.225552946329,0.0,0.0,0.0,0.0,0.0,0.0,0.0,0.0,0.0
1798539500,433800,1644543887088136196,1,0.0,0.0,0.0,0.0,0.0,0.0,0.0,0.0,0.0,0.0,0.0,0.0,0.0,0.0,0.0,0.0,0.0,0.0,0.0,0.0,0.0,0.0,0.0,0.0,0.0,-0.176519691944,-9.66935634613,0.166713044047,0.0,0.0,0.0,0.0,0.0,0.0,0.0,0.0,0.0
1800532800,433801,1644543887090151072,1,0.0,0.0,0.0,0.0,0.0,0.0,0.0,0.0,0.0,0.0,0.0,0.0,0.0,0.0,0.0,0.0,0.0,0.0,0.0,0.0,0.0,0.0,0.0,0.0,0.0,-0.12748645246,-9.64974308014,0.245166242123,0.0,0.0,0.0,0.0,0.0,0.0,0.0,0.0,0.0
1802533400,433802,1644543887092165709,1,0.0,0.0,0.0,0.0,0.0,0.0,0.0,0.0,0.0,0.0,0.0,0.0,0.0,0.0,0.0,0.0,0.0,0.0,0.0,0.0,0.0,0.0,0.0,0.0,0.0,-0.137293100357,-9.61051654816,0.196132987738,0.0,0.0,0.0,0.0,0.0,0.0,0.0,0.0,0.0
1804529300,433803,1644543887094178438,1,0.0,0.0,0.0,0.0,0.0,0.0,0.0,0.0,0.0,0.0,0.0,0.0,0.0,0.0,0.0,0.0,0.0,0.0,0.0,0.0,0.0,0.0,0.0,0.0,0.0,-0.176519691944,-9.61051654816,0.176519691944,0.0,0.0,0.0,0.0,0.0,0.0,0.0,0.0,0.0
1807147900,433804,1644543887096193075,1,0.0,0.0,0.0,0.0,0.0,0.0,0.0,0.0,0.0,0.0,0.0,0.0,0.0,0.0,0.0,0.0,0.0,0.0,0.0,0.0,0.0,0.0,0.0,0.0,0.0,-0.166713044047,-9.61051654816,0.166713044047,0.0,0.0,0.0,0.0,0.0,0.0,0.0,0.0,0.0
1808551000,433805,1644543887098207951,1,0.0,0.0,0.0,0.0,0.0,0.0,0.0,0.0,0.0,0.0,0.0,0.0,0.0,0.0,0.0,0.0,0.0,0.0,0.0,0.0,0.0,0.0,0.0,0.0,0.0,-0.137293100357,-9.64974308014,0.264779537916,0.0,0.0,0.0,0.0,0.0,0.0,0.0,0.0,0.0
1810534500,433806,1644543887100222588,1,0.0,0.0,0.0,0.0,0.0,0.0,0.0,0.0,0.0,0.0,0.0,0.0,0.0,0.0,0.0,0.0,0.0,0.0,0.0,0.0,0.0,0.0,0.0,0.0,0.0,-0.137293100357,-9.61051654816,0.166713044047,0.0,0.0,0.0,0.0,0.0,0.0,0.0,0.0,0.0
1812530400,433807,1644543887102235317,1,0.0,0.0,0.0,0.0,0.0,0.0,0.0,0.0,0.0,0.0,0.0,0.0,0.0,0.0,0.0,0.0,0.0,0.0,0.0,0.0,0.0,0.0,0.0,0.0,0.0,-0.176519691944,-9.61051654816,0.137293100357,0.0,0.0,0.0,0.0,0.0,0.0,0.0,0.0,0.0
1814585200,433808,1644543887104250193,1,0.0,0.0,0.0,0.0,0.0,0.0,0.0,0.0,0.0,0.0,0.0,0.0,0.0,0.0,0.0,0.0,0.0,0.0,0.0,0.0,0.0,0.0,0.0,0.0,0.0,-0.196132987738,-9.58109664917,0.196132987738,0.0,0.0,0.0,0.0,0.0,0.0,0.0,0.0,0.0
1816654300,433809,1644543887106264830,1,0.0,0.0,0.0,0.0,0.0,0.0,0.0,0.0,0.0,0.0,0.0,0.0,0.0,0.0,0.0,0.0,0.0,0.0,0.0,0.0,0.0,0.0,0.0,0.0,0.0,-0.196132987738,-9.61051654816,0.196132987738,0.0,0.0,0.0,0.0,0.0,0.0,0.0,0.0,0.0
1818794100,433810,1644543887108279705,1,0.0,0.0,0.0,0.0,0.0,0.0,0.0,0.0,0.0,0.0,0.0,0.0,0.0,0.0,0.0,0.0,0.0,0.0,0.0,0.0,0.0,0.0,0.0,0.0,0.0,-0.176519691944,-9.62032318115,0.166713044047,0.0,0.0,0.0,0.0,0.0,0.0,0.0,0.0,0.0
1820938300,433811,1644543887110292435,1,0.0,0.0,0.0,0.0,0.0,0.0,0.0,0.0,0.0,0.0,0.0,0.0,0.0,0.0,0.0,0.0,0.0,0.0,0.0,0.0,0.0,0.0,0.0,0.0,0.0,-0.137293100357,-9.61051654816,0.245166242123,0.0,0.0,0.0,0.0,0.0,0.0,0.0,0.0,0.0
1823428400,433812,1644543887112307072,1,0.0,0.0,0.0,0.0,0.0,0.0,0.0,0.0,0.0,0.0,0.0,0.0,0.0,0.0,0.0,0.0,0.0,0.0,0.0,0.0,0.0,0.0,0.0,0.0,0.0,-0.176519691944,-9.61051654816,0.166713044047,0.0,0.0,0.0,0.0,0.0,0.0,0.0,0.0,0.0
1824830500,433813,1644543887114321709,1,0.0,0.0,0.0,0.0,0.0,0.0,0.0,0.0,0.0,0.0,0.0,0.0,0.0,0.0,0.0,0.0,0.0,0.0,0.0,0.0,0.0,0.0,0.0,0.0,0.0,-0.166713044047,-9.61051654816,0.176519691944,0.0,0.0,0.0,0.0,0.0,0.0,0.0,0.0,0.0
1826866800,433814,1644543887116334677,1,0.0,0.0,0.0,0.0,0.0,0.0,0.0,0.0,0.0,0.0,0.0,0.0,0.0,0.0,0.0,0.0,0.0,0.0,0.0,0.0,0.0,0.0,0.0,0.0,0.0,-0.137293100357,-9.64974308014,0.196132987738,0.0,0.0,0.0,0.0,0.0,0.0,0.0,0.0,0.0
1828803700,433815,1644543887118349314,1,0.0,0.0,0.0,0.0,0.0,0.0,0.0,0.0,0.0,0.0,0.0,0.0,0.0,0.0,0.0,0.0,0.0,0.0,0.0,0.0,0.0,0.0,0.0,0.0,0.0,-0.196132987738,-9.61051654816,0.166713044047,0.0,0.0,0.0,0.0,0.0,0.0,0.0,0.0,0.0
1830728800,433816,1644543887120363951,1,0.0,0.0,0.0,0.0,0.0,0.0,0.0,0.0,0.0,0.0,0.0,0.0,0.0,0.0,0.0,0.0,0.0,0.0,0.0,0.0,0.0,0.0,0.0,0.0,0.0,-0.196132987738,-9.61051654816,0.225552946329,0.0,0.0,0.0,0.0,0.0,0.0,0.0,0.0,0.0
1832701200,433817,1644543887122376919,1,0.0,0.0,0.0,0.0,0.0,0.0,0.0,0.0,0.0,0.0,0.0,0.0,0.0,0.0,0.0,0.0,0.0,0.0,0.0,0.0,0.0,0.0,0.0,0.0,0.0,-0.196132987738,-9.64974308014,0.225552946329,0.0,0.0,0.0,0.0,0.0,0.0,0.0,0.0,0.0
1834817000,433818,1644543887124391556,1,0.0,0.0,0.0,0.0,0.0,0.0,0.0,0.0,0.0,0.0,0.0,0.0,0.0,0.0,0.0,0.0,0.0,0.0,0.0,0.0,0.0,0.0,0.0,0.0,0.0,-0.166713044047,-9.58109664917,0.225552946329,0.0,0.0,0.0,0.0,0.0,0.0,0.0,0.0,0.0
1836746700,433819,1644543887126406193,1,0.0,0.0,0.0,0.0,0.0,0.0,0.0,0.0,0.0,0.0,0.0,0.0,0.0,0.0,0.0,0.0,0.0,0.0,0.0,0.0,0.0,0.0,0.0,0.0,0.0,-0.166713044047,-9.61051654816,0.176519691944,0.0,0.0,0.0,0.0,0.0,0.0,0.0,0.0,0.0
1838791800,433820,1644543887128421068,1,0.0,0.0,0.0,0.0,0.0,0.0,0.0,0.0,0.0,0.0,0.0,0.0,0.0,0.0,0.0,0.0,0.0,0.0,0.0,0.0,0.0,0.0,0.0,0.0,0.0,-0.196132987738,-9.64974308014,0.245166242123,0.0,0.0,0.0,0.0,0.0,0.0,0.0,0.0,0.0
1840746600,433821,1644543887130433798,1,0.0,0.0,0.0,0.0,0.0,0.0,0.0,0.0,0.0,0.0,0.0,0.0,0.0,0.0,0.0,0.0,0.0,0.0,0.0,0.0,0.0,0.0,0.0,0.0,0.0,-0.166713044047,-9.62032318115,0.274586200714,0.0,0.0,0.0,0.0,0.0,0.0,0.0,0.0,0.0
1842740700,433822,1644543887132448435,1,0.0,0.0,0.0,0.0,0.0,0.0,0.0,0.0,0.0,0.0,0.0,0.0,0.0,0.0,0.0,0.0,0.0,0.0,0.0,0.0,0.0,0.0,0.0,0.0,0.0,-0.166713044047,-9.64974308014,0.225552946329,0.0,0.0,0.0,0.0,0.0,0.0,0.0,0.0,0.0
