%time,field.header.seq,field.header.stamp,field.header.frame_id,field.orientation.x,field.orientation.y,field.orientation.z,field.orientation.w,field.orientation_covariance0,field.orientation_covariance1,field.orientation_covariance2,field.orientation_covariance3,field.orientation_covariance4,field.orientation_covariance5,field.orientation_covariance6,field.orientation_covariance7,field.orientation_covariance8,field.angular_velocity.x,field.angular_velocity.y,field.angular_velocity.z,field.angular_velocity_covariance0,field.angular_velocity_covariance1,field.angular_velocity_covariance2,field.angular_velocity_covariance3,field.angular_velocity_covariance4,field.angular_velocity_covariance5,field.angular_velocity_covariance6,field.angular_velocity_covariance7,field.angular_velocity_covariance8,field.linear_acceleration.x,field.linear_acceleration.y,field.linear_acceleration.z,field.linear_acceleration_covariance0,field.linear_acceleration_covariance1,field.linear_acceleration_covariance2,field.linear_acceleration_covariance3,field.linear_acceleration_covariance4,field.linear_acceleration_covariance5,field.linear_acceleration_covariance6,field.linear_acceleration_covariance7,field.linear_acceleration_covariance8
200,23981,1644543061744060278,1,0.0,0.0,0.0,0.0,0.0,0.0,0.0,0.0,0.0,0.0,0.0,0.0,0.0,0.0,0.0,0.0,0.0,0.0,0.0,0.0,0.0,0.0,0.0,0.0,0.0,0.137293100357,-9.66935634613,-0.529559075832,0.0,0.0,0.0,0.0,0.0,0.0,0.0,0.0,0.0
2016700,23982,1644543061746076822,1,0.0,0.0,0.0,0.0,0.0,0.0,0.0,0.0,0.0,0.0,0.0,0.0,0.0,0.0,0.0,0.0,0.0,0.0,0.0,0.0,0.0,0.0,0.0,0.0,0.0,0.137293100357,-9.62032318115,-0.509945809841,0.0,0.0,0.0,0.0,0.0,0.0,0.0,0.0,0.0
3734800,23983,1644543061748093843,1,0.0,0.0,0.0,0.0,0.0,0.0,0.0,0.0,0.0,0.0,0.0,0.0,0.0,0.0,0.0,0.0,0.0,0.0,0.0,0.0,0.0,0.0,0.0,0.0,0.0,0.0784531980753,-9.57129001617,-0.509945809841,0.0,0.0,0.0,0.0,0.0,0.0,0.0,0.0,0.0
5749300,23984,1644543061750110388,1,0.0,0.0,0.0,0.0,0.0,0.0,0.0,0.0,0.0,0.0,0.0,0.0,0.0,0.0,0.0,0.0,0.0,0.0,0.0,0.0,0.0,0.0,0.0,0.0,0.0,0.0686465501785,-9.58109664917,-0.490332484245,0.0,0.0,0.0,0.0,0.0,0.0,0.0,0.0,0.0
8062000,23985,1644543061752125263,1,0.0,0.0,0.0,0.0,0.0,0.0,0.0,0.0,0.0,0.0,0.0,0.0,0.0,0.0,0.0,0.0,0.0,0.0,0.0,0.0,0.0,0.0,0.0,0.0,0.0,0.0784531980753,-9.61051654816,-0.549172401428,0.0,0.0,0.0,0.0,0.0,0.0,0.0,0.0,0.0
10110000,23986,1644543061754141808,1,0.0,0.0,0.0,0.0,0.0,0.0,0.0,0.0,0.0,0.0,0.0,0.0,0.0,0.0,0.0,0.0,0.0,0.0,0.0,0.0,0.0,0.0,0.0,0.0,0.0,0.0392265990376,-9.57129001617,-0.490332484245,0.0,0.0,0.0,0.0,0.0,0.0,0.0,0.0,0.0
12085400,23987,1644543061756158590,1,0.0,0.0,0.0,0.0,0.0,0.0,0.0,0.0,0.0,0.0,0.0,0.0,0.0,0.0,0.0,0.0,0.0,0.0,0.0,0.0,0.0,0.0,0.0,0.0,0.0,0.0686465501785,-9.61051654816,-0.509945809841,0.0,0.0,0.0,0.0,0.0,0.0,0.0,0.0,0.0
14026900,23988,1644543061758175373,1,0.0,0.0,0.0,0.0,0.0,0.0,0.0,0.0,0.0,0.0,0.0,0.0,0.0,0.0,0.0,0.0,0.0,0.0,0.0,0.0,0.0,0.0,0.0,0.0,0.0,0.0392265990376,-9.57129001617,-0.598205626011,0.0,0.0,0.0,0.0,0.0,0.0,0.0,0.0,0.0
16033800,23989,1644543061760192156,1,0.0,0.0,0.0,0.0,0.0,0.0,0.0,0.0,0.0,0.0,0.0,0.0,0.0,0.0,0.0,0.0,0.0,0.0,0.0,0.0,0.0,0.0,0.0,0.0,0.0,0.0980664938688,-9.57129001617,-0.470719188452,0.0,0.0,0.0,0.0,0.0,0.0,0.0,0.0,0.0
17984700,23990,1644543061762208700,1,0.0,0.0,0.0,0.0,0.0,0.0,0.0,0.0,0.0,0.0,0.0,0.0,0.0,0.0,0.0,0.0,0.0,0.0,0.0,0.0,0.0,0.0,0.0,0.0,0.0,0.0686465501785,-9.58109664917,-0.490332484245,0.0,0.0,0.0,0.0,0.0,0.0,0.0,0.0,0.0
20154400,23991,1644543061764225483,1,0.0,0.0,0.0,0.0,0.0,0.0,0.0,0.0,0.0,0.0,0.0,0.0,0.0,0.0,0.0,0.0,0.0,0.0,0.0,0.0,0.0,0.0,0.0,0.0,0.0,0.0686465501785,-9.57129001617,-0.470719188452,0.0,0.0,0.0,0.0,0.0,0.0,0.0,0.0,0.0
22158600,23992,1644543061766240120,1,0.0,0.0,0.0,0.0,0.0,0.0,0.0,0.0,0.0,0.0,0.0,0.0,0.0,0.0,0.0,0.0,0.0,0.0,0.0,0.0,0.0,0.0,0.0,0.0,0.0,0.0392265990376,-9.53206348419,-0.549172401428,0.0,0.0,0.0,0.0,0.0,0.0,0.0,0.0,0.0
24071300,23993,1644543061768257141,1,0.0,0.0,0.0,0.0,0.0,0.0,0.0,0.0,0.0,0.0,0.0,0.0,0.0,0.0,0.0,0.0,0.0,0.0,0.0,0.0,0.0,0.0,0.0,0.0,0.0,0.0686465501785,-9.56148338318,-0.549172401428,0.0,0.0,0.0,0.0,0.0,0.0,0.0,0.0,0.0
26109400,23994,1644543061770273685,1,0.0,0.0,0.0,0.0,0.0,0.0,0.0,0.0,0.0,0.0,0.0,0.0,0.0,0.0,0.0,0.0,0.0,0.0,0.0,0.0,0.0,0.0,0.0,0.0,0.0,0.0392265990376,-9.56148338318,-0.549172401428,0.0,0.0,0.0,0.0,0.0,0.0,0.0,0.0,0.0
28042300,23995,1644543061772290468,1,0.0,0.0,0.0,0.0,0.0,0.0,0.0,0.0,0.0,0.0,0.0,0.0,0.0,0.0,0.0,0.0,0.0,0.0,0.0,0.0,0.0,0.0,0.0,0.0,0.0,0.0686465501785,-9.58109664917,-0.451105892658,0.0,0.0,0.0,0.0,0.0,0.0,0.0,0.0,0.0
30068200,23996,1644543061774307013,1,0.0,0.0,0.0,0.0,0.0,0.0,0.0,0.0,0.0,0.0,0.0,0.0,0.0,0.0,0.0,0.0,0.0,0.0,0.0,0.0,0.0,0.0,0.0,0.0,0.0,0.0294199492782,-9.57129001617,-0.57859236002,0.0,0.0,0.0,0.0,0.0,0.0,0.0,0.0,0.0
789426400,24373,1644543062534576178,1,0.0,0.0,0.0,0.0,0.0,0.0,0.0,0.0,0.0,0.0,0.0,0.0,0.0,0.0,0.0,0.0,0.0,0.0,0.0,0.0,0.0,0.0,0.0,0.0,0.0,0.196132987738,-9.5222568512,-0.470719188452,0.0,0.0,0.0,0.0,0.0,0.0,0.0,0.0,0.0
791540400,24374,1644543062536592722,1,0.0,0.0,0.0,0.0,0.0,0.0,0.0,0.0,0.0,0.0,0.0,0.0,0.0,0.0,0.0,0.0,0.0,0.0,0.0,0.0,0.0,0.0,0.0,0.0,0.0,0.343232750893,-9.58109664917,-0.421685934067,0.0,0.0,0.0,0.0,0.0,0.0,0.0,0.0,0.0
793388700,24375,1644543062538607597,1,0.0,0.0,0.0,0.0,0.0,0.0,0.0,0.0,0.0,0.0,0.0,0.0,0.0,0.0,0.0,0.0,0.0,0.0,0.0,0.0,0.0,0.0,0.0,0.0,0.0,0.00980664975941,-9.66935634613,-0.57859236002,0.0,0.0,0.0,0.0,0.0,0.0,0.0,0.0,0.0
795339900,24376,1644543062540624380,1,0.0,0.0,0.0,0.0,0.0,0.0,0.0,0.0,0.0,0.0,0.0,0.0,0.0,0.0,0.0,0.0,0.0,0.0,0.0,0.0,0.0,0.0,0.0,0.0,0.0,-0.0294199492782,-9.57129001617,-0.509945809841,0.0,0.0,0.0,0.0,0.0,0.0,0.0,0.0,0.0
797385000,24377,1644543062542643070,1,0.0,0.0,0.0,0.0,0.0,0.0,0.0,0.0,0.0,0.0,0.0,0.0,0.0,0.0,0.0,0.0,0.0,0.0,0.0,0.0,0.0,0.0,0.0,0.0,0.0,0.166713044047,-9.58109664917,-0.490332484245,0.0,0.0,0.0,0.0,0.0,0.0,0.0,0.0,0.0
799354200,24378,1644543062544659615,1,0.0,0.0,0.0,0.0,0.0,0.0,0.0,0.0,0.0,0.0,0.0,0.0,0.0,0.0,0.0,0.0,0.0,0.0,0.0,0.0,0.0,0.0,0.0,0.0,0.0,0.274586200714,-9.66935634613,-0.421685934067,0.0,0.0,0.0,0.0,0.0,0.0,0.0,0.0,0.0
801308400,24379,1644543062546676397,1,0.0,0.0,0.0,0.0,0.0,0.0,0.0,0.0,0.0,0.0,0.0,0.0,0.0,0.0,0.0,0.0,0.0,0.0,0.0,0.0,0.0,0.0,0.0,0.0,0.0,0.0686465501785,-9.57129001617,-0.490332484245,0.0,0.0,0.0,0.0,0.0,0.0,0.0,0.0,0.0
803347600,24380,1644543062548691273,1,0.0,0.0,0.0,0.0,0.0,0.0,0.0,0.0,0.0,0.0,0.0,0.0,0.0,0.0,0.0,0.0,0.0,0.0,0.0,0.0,0.0,0.0,0.0,0.0,0.0,-0.0686465501785,-9.5222568512,-0.490332484245,0.0,0.0,0.0,0.0,0.0,0.0,0.0,0.0,0.0
805470400,24381,1644543062550709963,1,0.0,0.0,0.0,0.0,0.0,0.0,0.0,0.0,0.0,0.0,0.0,0.0,0.0,0.0,0.0,0.0,0.0,0.0,0.0,0.0,0.0,0.0,0.0,0.0,0.0,0.166713044047,-9.62032318115,-0.490332484245,0.0,0.0,0.0,0.0,0.0,0.0,0.0,0.0,0.0
807270600,24382,1644543062552724838,1,0.0,0.0,0.0,0.0,0.0,0.0,0.0,0.0,0.0,0.0,0.0,0.0,0.0,0.0,0.0,0.0,0.0,0.0,0.0,0.0,0.0,0.0,0.0,0.0,0.0,0.166713044047,-9.57129001617,-0.509945809841,0.0,0.0,0.0,0.0,0.0,0.0,0.0,0.0,0.0
809277400,24383,1644543062554741383,1,0.0,0.0,0.0,0.0,0.0,0.0,0.0,0.0,0.0,0.0,0.0,0.0,0.0,0.0,0.0,0.0,0.0,0.0,0.0,0.0,0.0,0.0,0.0,0.0,0.0,0.0392265990376,-9.57129001617,-0.470719188452,0.0,0.0,0.0,0.0,0.0,0.0,0.0,0.0,0.0
811241000,24384,1644543062556758404,1,0.0,0.0,0.0,0.0,0.0,0.0,0.0,0.0,0.0,0.0,0.0,0.0,0.0,0.0,0.0,0.0,0.0,0.0,0.0,0.0,0.0,0.0,0.0,0.0,0.0,0.00980664975941,-9.61051654816,-0.470719188452,0.0,0.0,0.0,0.0,0.0,0.0,0.0,0.0,0.0
813557800,24385,1644543062558774948,1,0.0,0.0,0.0,0.0,0.0,0.0,0.0,0.0,0.0,0.0,0.0,0.0,0.0,0.0,0.0,0.0,0.0,0.0,0.0,0.0,0.0,0.0,0.0,0.0,0.0,0.12748645246,-9.64974308014,-0.509945809841,0.0,0.0,0.0,0.0,0.0,0.0,0.0,0.0,0.0
815650400,24386,1644543062560791731,1,0.0,0.0,0.0,0.0,0.0,0.0,0.0,0.0,0.0,0.0,0.0,0.0,0.0,0.0,0.0,0.0,0.0,0.0,0.0,0.0,0.0,0.0,0.0,0.0,0.0,0.137293100357,-9.58109664917,-0.598205626011,0.0,0.0,0.0,0.0,0.0,0.0,0.0,0.0,0.0
817642100,24387,1644543062562808275,1,0.0,0.0,0.0,0.0,0.0,0.0,0.0,0.0,0.0,0.0,0.0,0.0,0.0,0.0,0.0,0.0,0.0,0.0,0.0,0.0,0.0,0.0,0.0,0.0,0.0,0.0784531980753,-9.61051654816,-0.509945809841,0.0,0.0,0.0,0.0,0.0,0.0,0.0,0.0,0.0
819934300,24388,1644543062564825296,1,0.0,0.0,0.0,0.0,0.0,0.0,0.0,0.0,0.0,0.0,0.0,0.0,0.0,0.0,0.0,0.0,0.0,0.0,0.0,0.0,0.0,0.0,0.0,0.0,0.0,0.0,-9.57129001617,-0.509945809841,0.0,0.0,0.0,0.0,0.0,0.0,0.0,0.0,0.0
821637200,24389,1644543062566842079,1,0.0,0.0,0.0,0.0,0.0,0.0,0.0,0.0,0.0,0.0,0.0,0.0,0.0,0.0,0.0,0.0,0.0,0.0,0.0,0.0,0.0,0.0,0.0,0.0,0.0,0.0784531980753,-9.57129001617,-0.549172401428,0.0,0.0,0.0,0.0,0.0,0.0,0.0,0.0,0.0
823639400,24390,1644543062568858624,1,0.0,0.0,0.0,0.0,0.0,0.0,0.0,0.0,0.0,0.0,0.0,0.0,0.0,0.0,0.0,0.0,0.0,0.0,0.0,0.0,0.0,0.0,0.0,0.0,0.0,0.12748645246,-9.66935634613,-0.509945809841,0.0,0.0,0.0,0.0,0.0,0.0,0.0,0.0,0.0
825700400,24391,1644543062570875406,1,0.0,0.0,0.0,0.0,0.0,0.0,0.0,0.0,0.0,0.0,0.0,0.0,0.0,0.0,0.0,0.0,0.0,0.0,0.0,0.0,0.0,0.0,0.0,0.0,0.0,0.0392265990376,-9.61051654816,-0.509945809841,0.0,0.0,0.0,0.0,0.0,0.0,0.0,0.0,0.0
827563100,24392,1644543062572892189,1,0.0,0.0,0.0,0.0,0.0,0.0,0.0,0.0,0.0,0.0,0.0,0.0,0.0,0.0,0.0,0.0,0.0,0.0,0.0,0.0,0.0,0.0,0.0,0.0,0.0,0.0294199492782,-9.57129001617,-0.549172401428,0.0,0.0,0.0,0.0,0.0,0.0,0.0,0.0,0.0
829501600,24393,1644543062574910879,1,0.0,0.0,0.0,0.0,0.0,0.0,0.0,0.0,0.0,0.0,0.0,0.0,0.0,0.0,0.0,0.0,0.0,0.0,0.0,0.0,0.0,0.0,0.0,0.0,0.0,0.0784531980753,-9.57129001617,-0.509945809841,0.0,0.0,0.0,0.0,0.0,0.0,0.0,0.0,0.0
831741100,24394,1644543062576927662,1,0.0,0.0,0.0,0.0,0.0,0.0,0.0,0.0,0.0,0.0,0.0,0.0,0.0,0.0,0.0,0.0,0.0,0.0,0.0,0.0,0.0,0.0,0.0,0.0,0.0,0.0980664938688,-9.61051654816,-0.558979034424,0.0,0.0,0.0,0.0,0.0,0.0,0.0,0.0,0.0
833606900,24395,1644543062578944445,1,0.0,0.0,0.0,0.0,0.0,0.0,0.0,0.0,0.0,0.0,0.0,0.0,0.0,0.0,0.0,0.0,0.0,0.0,0.0,0.0,0.0,0.0,0.0,0.0,0.0,0.0686465501785,-9.53206348419,-0.549172401428,0.0,0.0,0.0,0.0,0.0,0.0,0.0,0.0,0.0
835756100,24396,1644543062580961227,1,0.0,0.0,0.0,0.0,0.0,0.0,0.0,0.0,0.0,0.0,0.0,0.0,0.0,0.0,0.0,0.0,0.0,0.0,0.0,0.0,0.0,0.0,0.0,0.0,0.0,0.0980664938688,-9.57129001617,-0.549172401428,0.0,0.0,0.0,0.0,0.0,0.0,0.0,0.0,0.0
837770100,24397,1644543062582977772,1,0.0,0.0,0.0,0.0,0.0,0.0,0.0,0.0,0.0,0.0,0.0,0.0,0.0,0.0,0.0,0.0,0.0,0.0,0.0,0.0,0.0,0.0,0.0,0.0,0.0,0.137293100357,-9.61051654816,-0.558979034424,0.0,0.0,0.0,0.0,0.0,0.0,0.0,0.0,0.0
839772900,24398,1644543062584994555,1,0.0,0.0,0.0,0.0,0.0,0.0,0.0,0.0,0.0,0.0,0.0,0.0,0.0,0.0,0.0,0.0,0.0,0.0,0.0,0.0,0.0,0.0,0.0,0.0,0.0,0.0784531980753,-9.56148338318,-0.509945809841,0.0,0.0,0.0,0.0,0.0,0.0,0.0,0.0,0.0
841851300,24399,1644543062587011337,1,0.0,0.0,0.0,0.0,0.0,0.0,0.0,0.0,0.0,0.0,0.0,0.0,0.0,0.0,0.0,0.0,0.0,0.0,0.0,0.0,0.0,0.0,0.0,0.0,0.0,0.0784531980753,-9.57129001617,-0.529559075832,0.0,0.0,0.0,0.0,0.0,0.0,0.0,0.0,0.0
843804100,24400,1644543062589028120,1,0.0,0.0,0.0,0.0,0.0,0.0,0.0,0.0,0.0,0.0,0.0,0.0,0.0,0.0,0.0,0.0,0.0,0.0,0.0,0.0,0.0,0.0,0.0,0.0,0.0,0.0784531980753,-9.64974308014,-0.509945809841,0.0,0.0,0.0,0.0,0.0,0.0,0.0,0.0,0.0
845843900,24401,1644543062591044903,1,0.0,0.0,0.0,0.0,0.0,0.0,0.0,0.0,0.0,0.0,0.0,0.0,0.0,0.0,0.0,0.0,0.0,0.0,0.0,0.0,0.0,0.0,0.0,0.0,0.0,0.0784531980753,-9.58109664917,-0.529559075832,0.0,0.0,0.0,0.0,0.0,0.0,0.0,0.0,0.0
847794300,24402,1644543062593061447,1,0.0,0.0,0.0,0.0,0.0,0.0,0.0,0.0,0.0,0.0,0.0,0.0,0.0,0.0,0.0,0.0,0.0,0.0,0.0,0.0,0.0,0.0,0.0,0.0,0.0,0.0686465501785,-9.57129001617,-0.549172401428,0.0,0.0,0.0,0.0,0.0,0.0,0.0,0.0,0.0
849829800,24403,1644543062595078468,1,0.0,0.0,0.0,0.0,0.0,0.0,0.0,0.0,0.0,0.0,0.0,0.0,0.0,0.0,0.0,0.0,0.0,0.0,0.0,0.0,0.0,0.0,0.0,0.0,0.0,0.12748645246,-9.64974308014,-0.549172401428,0.0,0.0,0.0,0.0,0.0,0.0,0.0,0.0,0.0
851916200,24404,1644543062597095013,1,0.0,0.0,0.0,0.0,0.0,0.0,0.0,0.0,0.0,0.0,0.0,0.0,0.0,0.0,0.0,0.0,0.0,0.0,0.0,0.0,0.0,0.0,0.0,0.0,0.0,0.0980664938688,-9.57129001617,-0.549172401428,0.0,0.0,0.0,0.0,0.0,0.0,0.0,0.0,0.0
853986800,24405,1644543062599111795,1,0.0,0.0,0.0,0.0,0.0,0.0,0.0,0.0,0.0,0.0,0.0,0.0,0.0,0.0,0.0,0.0,0.0,0.0,0.0,0.0,0.0,0.0,0.0,0.0,0.0,0.0980664938688,-9.57129001617,-0.57859236002,0.0,0.0,0.0,0.0,0.0,0.0,0.0,0.0,0.0
855938100,24406,1644543062601128578,1,0.0,0.0,0.0,0.0,0.0,0.0,0.0,0.0,0.0,0.0,0.0,0.0,0.0,0.0,0.0,0.0,0.0,0.0,0.0,0.0,0.0,0.0,0.0,0.0,0.0,0.0784531980753,-9.64974308014,-0.509945809841,0.0,0.0,0.0,0.0,0.0,0.0,0.0,0.0,0.0
858069000,24407,1644543062603145361,1,0.0,0.0,0.0,0.0,0.0,0.0,0.0,0.0,0.0,0.0,0.0,0.0,0.0,0.0,0.0,0.0,0.0,0.0,0.0,0.0,0.0,0.0,0.0,0.0,0.0,0.0294199492782,-9.58109664917,-0.558979034424,0.0,0.0,0.0,0.0,0.0,0.0,0.0,0.0,0.0
859870700,24408,1644543062605162144,1,0.0,0.0,0.0,0.0,0.0,0.0,0.0,0.0,0.0,0.0,0.0,0.0,0.0,0.0,0.0,0.0,0.0,0.0,0.0,0.0,0.0,0.0,0.0,0.0,0.0,0.12748645246,-9.57129001617,-0.549172401428,0.0,0.0,0.0,0.0,0.0,0.0,0.0,0.0,0.0
861812800,24409,1644543062607178688,1,0.0,0.0,0.0,0.0,0.0,0.0,0.0,0.0,0.0,0.0,0.0,0.0,0.0,0.0,0.0,0.0,0.0,0.0,0.0,0.0,0.0,0.0,0.0,0.0,0.0,0.137293100357,-9.61051654816,-0.509945809841,0.0,0.0,0.0,0.0,0.0,0.0,0.0,0.0,0.0
864051400,24410,1644543062609195471,1,0.0,0.0,0.0,0.0,0.0,0.0,0.0,0.0,0.0,0.0,0.0,0.0,0.0,0.0,0.0,0.0,0.0,0.0,0.0,0.0,0.0,0.0,0.0,0.0,0.0,0.0980664938688,-9.57129001617,-0.509945809841,0.0,0.0,0.0,0.0,0.0,0.0,0.0,0.0,0.0
865961000,24411,1644543062611212254,1,0.0,0.0,0.0,0.0,0.0,0.0,0.0,0.0,0.0,0.0,0.0,0.0,0.0,0.0,0.0,0.0,0.0,0.0,0.0,0.0,0.0,0.0,0.0,0.0,0.0,0.0686465501785,-9.61051654816,-0.509945809841,0.0,0.0,0.0,0.0,0.0,0.0,0.0,0.0,0.0
867808900,24412,1644543062613229036,1,0.0,0.0,0.0,0.0,0.0,0.0,0.0,0.0,0.0,0.0,0.0,0.0,0.0,0.0,0.0,0.0,0.0,0.0,0.0,0.0,0.0,0.0,0.0,0.0,0.0,0.0686465501785,-9.57129001617,-0.529559075832,0.0,0.0,0.0,0.0,0.0,0.0,0.0,0.0,0.0
869761500,24413,1644543062615245819,1,0.0,0.0,0.0,0.0,0.0,0.0,0.0,0.0,0.0,0.0,0.0,0.0,0.0,0.0,0.0,0.0,0.0,0.0,0.0,0.0,0.0,0.0,0.0,0.0,0.0,0.0980664938688,-9.62032318115,-0.529559075832,0.0,0.0,0.0,0.0,0.0,0.0,0.0,0.0,0.0
871772700,24414,1644543062617262363,1,0.0,0.0,0.0,0.0,0.0,0.0,0.0,0.0,0.0,0.0,0.0,0.0,0.0,0.0,0.0,0.0,0.0,0.0,0.0,0.0,0.0,0.0,0.0,0.0,0.0,0.137293100357,-9.62032318115,-0.558979034424,0.0,0.0,0.0,0.0,0.0,0.0,0.0,0.0,0.0
873986600,24415,1644543062619279385,1,0.0,0.0,0.0,0.0,0.0,0.0,0.0,0.0,0.0,0.0,0.0,0.0,0.0,0.0,0.0,0.0,0.0,0.0,0.0,0.0,0.0,0.0,0.0,0.0,0.0,0.0686465501785,-9.56148338318,-0.549172401428,0.0,0.0,0.0,0.0,0.0,0.0,0.0,0.0,0.0
875782800,24416,1644543062621294022,1,0.0,0.0,0.0,0.0,0.0,0.0,0.0,0.0,0.0,0.0,0.0,0.0,0.0,0.0,0.0,0.0,0.0,0.0,0.0,0.0,0.0,0.0,0.0,0.0,0.0,0.00980664975941,-9.58109664917,-0.529559075832,0.0,0.0,0.0,0.0,0.0,0.0,0.0,0.0,0.0
877733400,24417,1644543062623312712,1,0.0,0.0,0.0,0.0,0.0,0.0,0.0,0.0,0.0,0.0,0.0,0.0,0.0,0.0,0.0,0.0,0.0,0.0,0.0,0.0,0.0,0.0,0.0,0.0,0.0,0.0686465501785,-9.53206348419,-0.558979034424,0.0,0.0,0.0,0.0,0.0,0.0,0.0,0.0,0.0
880139300,24418,1644543062625329256,1,0.0,0.0,0.0,0.0,0.0,0.0,0.0,0.0,0.0,0.0,0.0,0.0,0.0,0.0,0.0,0.0,0.0,0.0,0.0,0.0,0.0,0.0,0.0,0.0,0.0,0.137293100357,-9.58109664917,-0.509945809841,0.0,0.0,0.0,0.0,0.0,0.0,0.0,0.0,0.0
881898300,24419,1644543062627346277,1,0.0,0.0,0.0,0.0,0.0,0.0,0.0,0.0,0.0,0.0,0.0,0.0,0.0,0.0,0.0,0.0,0.0,0.0,0.0,0.0,0.0,0.0,0.0,0.0,0.0,0.0980664938688,-9.58109664917,-0.529559075832,0.0,0.0,0.0,0.0,0.0,0.0,0.0,0.0,0.0
884114100,24420,1644543062629363060,1,0.0,0.0,0.0,0.0,0.0,0.0,0.0,0.0,0.0,0.0,0.0,0.0,0.0,0.0,0.0,0.0,0.0,0.0,0.0,0.0,0.0,0.0,0.0,0.0,0.0,0.0784531980753,-9.61051654816,-0.509945809841,0.0,0.0,0.0,0.0,0.0,0.0,0.0,0.0,0.0
886152300,24421,1644543062631379604,1,0.0,0.0,0.0,0.0,0.0,0.0,0.0,0.0,0.0,0.0,0.0,0.0,0.0,0.0,0.0,0.0,0.0,0.0,0.0,0.0,0.0,0.0,0.0,0.0,0.0,0.0784531980753,-9.61051654816,-0.558979034424,0.0,0.0,0.0,0.0,0.0,0.0,0.0,0.0,0.0
888124700,24422,1644543062633394480,1,0.0,0.0,0.0,0.0,0.0,0.0,0.0,0.0,0.0,0.0,0.0,0.0,0.0,0.0,0.0,0.0,0.0,0.0,0.0,0.0,0.0,0.0,0.0,0.0,0.0,0.12748645246,-9.62032318115,-0.529559075832,0.0,0.0,0.0,0.0,0.0,0.0,0.0,0.0,0.0
890050700,24423,1644543062635411024,1,0.0,0.0,0.0,0.0,0.0,0.0,0.0,0.0,0.0,0.0,0.0,0.0,0.0,0.0,0.0,0.0,0.0,0.0,0.0,0.0,0.0,0.0,0.0,0.0,0.0,0.166713044047,-9.56148338318,-0.57859236002,0.0,0.0,0.0,0.0,0.0,0.0,0.0,0.0,0.0
892120000,24424,1644543062637428045,1,0.0,0.0,0.0,0.0,0.0,0.0,0.0,0.0,0.0,0.0,0.0,0.0,0.0,0.0,0.0,0.0,0.0,0.0,0.0,0.0,0.0,0.0,0.0,0.0,0.0,0.0980664938688,-9.61051654816,-0.558979034424,0.0,0.0,0.0,0.0,0.0,0.0,0.0,0.0,0.0
894095900,24425,1644543062639444590,1,0.0,0.0,0.0,0.0,0.0,0.0,0.0,0.0,0.0,0.0,0.0,0.0,0.0,0.0,0.0,0.0,0.0,0.0,0.0,0.0,0.0,0.0,0.0,0.0,0.0,0.0686465501785,-9.62032318115,-0.549172401428,0.0,0.0,0.0,0.0,0.0,0.0,0.0,0.0,0.0
896348000,24426,1644543062641459465,1,0.0,0.0,0.0,0.0,0.0,0.0,0.0,0.0,0.0,0.0,0.0,0.0,0.0,0.0,0.0,0.0,0.0,0.0,0.0,0.0,0.0,0.0,0.0,0.0,0.0,-0.0392265990376,-9.48303031921,-0.529559075832,0.0,0.0,0.0,0.0,0.0,0.0,0.0,0.0,0.0
898440700,24427,1644543062643477917,1,0.0,0.0,0.0,0.0,0.0,0.0,0.0,0.0,0.0,0.0,0.0,0.0,0.0,0.0,0.0,0.0,0.0,0.0,0.0,0.0,0.0,0.0,0.0,0.0,0.0,0.12748645246,-9.66935634613,-0.509945809841,0.0,0.0,0.0,0.0,0.0,0.0,0.0,0.0,0.0
900017800,24428,1644543062645494938,1,0.0,0.0,0.0,0.0,0.0,0.0,0.0,0.0,0.0,0.0,0.0,0.0,0.0,0.0,0.0,0.0,0.0,0.0,0.0,0.0,0.0,0.0,0.0,0.0,0.0,0.245166242123,-9.58109664917,-0.529559075832,0.0,0.0,0.0,0.0,0.0,0.0,0.0,0.0,0.0
902015700,24429,1644543062647511721,1,0.0,0.0,0.0,0.0,0.0,0.0,0.0,0.0,0.0,0.0,0.0,0.0,0.0,0.0,0.0,0.0,0.0,0.0,0.0,0.0,0.0,0.0,0.0,0.0,0.0,0.196132987738,-9.57129001617,-0.509945809841,0.0,0.0,0.0,0.0,0.0,0.0,0.0,0.0,0.0
904014100,24430,1644543062649528265,1,0.0,0.0,0.0,0.0,0.0,0.0,0.0,0.0,0.0,0.0,0.0,0.0,0.0,0.0,0.0,0.0,0.0,0.0,0.0,0.0,0.0,0.0,0.0,0.0,0.0,0.0686465501785,-9.62032318115,-0.451105892658,0.0,0.0,0.0,0.0,0.0,0.0,0.0,0.0,0.0
906026500,24431,1644543062651543140,1,0.0,0.0,0.0,0.0,0.0,0.0,0.0,0.0,0.0,0.0,0.0,0.0,0.0,0.0,0.0,0.0,0.0,0.0,0.0,0.0,0.0,0.0,0.0,0.0,0.0,0.00980664975941,-9.57129001617,-0.451105892658,0.0,0.0,0.0,0.0,0.0,0.0,0.0,0.0,0.0
908025600,24432,1644543062653559923,1,0.0,0.0,0.0,0.0,0.0,0.0,0.0,0.0,0.0,0.0,0.0,0.0,0.0,0.0,0.0,0.0,0.0,0.0,0.0,0.0,0.0,0.0,0.0,0.0,0.0,0.0980664938688,-9.57129001617,-0.490332484245,0.0,0.0,0.0,0.0,0.0,0.0,0.0,0.0,0.0
910068100,24433,1644543062655576706,1,0.0,0.0,0.0,0.0,0.0,0.0,0.0,0.0,0.0,0.0,0.0,0.0,0.0,0.0,0.0,0.0,0.0,0.0,0.0,0.0,0.0,0.0,0.0,0.0,0.0,0.137293100357,-9.57129001617,-0.451105892658,0.0,0.0,0.0,0.0,0.0,0.0,0.0,0.0,0.0
912068000,24434,1644543062657593250,1,0.0,0.0,0.0,0.0,0.0,0.0,0.0,0.0,0.0,0.0,0.0,0.0,0.0,0.0,0.0,0.0,0.0,0.0,0.0,0.0,0.0,0.0,0.0,0.0,0.0,0.0686465501785,-9.56148338318,-0.490332484245,0.0,0.0,0.0,0.0,0.0,0.0,0.0,0.0,0.0
914061900,24435,1644543062659610033,1,0.0,0.0,0.0,0.0,0.0,0.0,0.0,0.0,0.0,0.0,0.0,0.0,0.0,0.0,0.0,0.0,0.0,0.0,0.0,0.0,0.0,0.0,0.0,0.0,0.0,0.0784531980753,-9.56148338318,-0.451105892658,0.0,0.0,0.0,0.0,0.0,0.0,0.0,0.0,0.0
916223700,24436,1644543062661626816,1,0.0,0.0,0.0,0.0,0.0,0.0,0.0,0.0,0.0,0.0,0.0,0.0,0.0,0.0,0.0,0.0,0.0,0.0,0.0,0.0,0.0,0.0,0.0,0.0,0.0,0.12748645246,-9.58109664917,-0.509945809841,0.0,0.0,0.0,0.0,0.0,0.0,0.0,0.0,0.0
918083100,24437,1644543062663643599,1,0.0,0.0,0.0,0.0,0.0,0.0,0.0,0.0,0.0,0.0,0.0,0.0,0.0,0.0,0.0,0.0,0.0,0.0,0.0,0.0,0.0,0.0,0.0,0.0,0.0,0.12748645246,-9.64974308014,-0.402072638273,0.0,0.0,0.0,0.0,0.0,0.0,0.0,0.0,0.0
920118600,24438,1644543062665660381,1,0.0,0.0,0.0,0.0,0.0,0.0,0.0,0.0,0.0,0.0,0.0,0.0,0.0,0.0,0.0,0.0,0.0,0.0,0.0,0.0,0.0,0.0,0.0,0.0,0.0,0.0980664938688,-9.64974308014,-0.402072638273,0.0,0.0,0.0,0.0,0.0,0.0,0.0,0.0,0.0
922094600,24439,1644543062667676926,1,0.0,0.0,0.0,0.0,0.0,0.0,0.0,0.0,0.0,0.0,0.0,0.0,0.0,0.0,0.0,0.0,0.0,0.0,0.0,0.0,0.0,0.0,0.0,0.0,0.0,0.0686465501785,-9.58109664917,-0.509945809841,0.0,0.0,0.0,0.0,0.0,0.0,0.0,0.0,0.0
924329500,24440,1644543062669693947,1,0.0,0.0,0.0,0.0,0.0,0.0,0.0,0.0,0.0,0.0,0.0,0.0,0.0,0.0,0.0,0.0,0.0,0.0,0.0,0.0,0.0,0.0,0.0,0.0,0.0,0.0686465501785,-9.64974308014,-0.509945809841,0.0,0.0,0.0,0.0,0.0,0.0,0.0,0.0,0.0
926352100,24441,1644543062671710491,1,0.0,0.0,0.0,0.0,0.0,0.0,0.0,0.0,0.0,0.0,0.0,0.0,0.0,0.0,0.0,0.0,0.0,0.0,0.0,0.0,0.0,0.0,0.0,0.0,0.0,0.12748645246,-9.62032318115,-0.509945809841,0.0,0.0,0.0,0.0,0.0,0.0,0.0,0.0,0.0
928498200,24442,1644543062673725367,1,0.0,0.0,0.0,0.0,0.0,0.0,0.0,0.0,0.0,0.0,0.0,0.0,0.0,0.0,0.0,0.0,0.0,0.0,0.0,0.0,0.0,0.0,0.0,0.0,0.0,0.0980664938688,-9.61051654816,-0.451105892658,0.0,0.0,0.0,0.0,0.0,0.0,0.0,0.0,0.0
930395800,24443,1644543062675741911,1,0.0,0.0,0.0,0.0,0.0,0.0,0.0,0.0,0.0,0.0,0.0,0.0,0.0,0.0,0.0,0.0,0.0,0.0,0.0,0.0,0.0,0.0,0.0,0.0,0.0,0.0784531980753,-9.58109664917,-0.490332484245,0.0,0.0,0.0,0.0,0.0,0.0,0.0,0.0,0.0
932269100,24444,1644543062677758694,1,0.0,0.0,0.0,0.0,0.0,0.0,0.0,0.0,0.0,0.0,0.0,0.0,0.0,0.0,0.0,0.0,0.0,0.0,0.0,0.0,0.0,0.0,0.0,0.0,0.0,0.0980664938688,-9.62032318115,-0.549172401428,0.0,0.0,0.0,0.0,0.0,0.0,0.0,0.0,0.0
934222500,24445,1644543062679775476,1,0.0,0.0,0.0,0.0,0.0,0.0,0.0,0.0,0.0,0.0,0.0,0.0,0.0,0.0,0.0,0.0,0.0,0.0,0.0,0.0,0.0,0.0,0.0,0.0,0.0,0.0980664938688,-9.61051654816,-0.490332484245,0.0,0.0,0.0,0.0,0.0,0.0,0.0,0.0,0.0
936261400,24446,1644543062681792259,1,0.0,0.0,0.0,0.0,0.0,0.0,0.0,0.0,0.0,0.0,0.0,0.0,0.0,0.0,0.0,0.0,0.0,0.0,0.0,0.0,0.0,0.0,0.0,0.0,0.0,0.0392265990376,-9.61051654816,-0.470719188452,0.0,0.0,0.0,0.0,0.0,0.0,0.0,0.0,0.0
938285700,24447,1644543062683809042,1,0.0,0.0,0.0,0.0,0.0,0.0,0.0,0.0,0.0,0.0,0.0,0.0,0.0,0.0,0.0,0.0,0.0,0.0,0.0,0.0,0.0,0.0,0.0,0.0,0.0,0.0784531980753,-9.62032318115,-0.470719188452,0.0,0.0,0.0,0.0,0.0,0.0,0.0,0.0,0.0
940310900,24448,1644543062685825586,1,0.0,0.0,0.0,0.0,0.0,0.0,0.0,0.0,0.0,0.0,0.0,0.0,0.0,0.0,0.0,0.0,0.0,0.0,0.0,0.0,0.0,0.0,0.0,0.0,0.0,0.137293100357,-9.58109664917,-0.451105892658,0.0,0.0,0.0,0.0,0.0,0.0,0.0,0.0,0.0
943153300,24449,1644543062687842607,1,0.0,0.0,0.0,0.0,0.0,0.0,0.0,0.0,0.0,0.0,0.0,0.0,0.0,0.0,0.0,0.0,0.0,0.0,0.0,0.0,0.0,0.0,0.0,0.0,0.0,0.0980664938688,-9.56148338318,-0.509945809841,0.0,0.0,0.0,0.0,0.0,0.0,0.0,0.0,0.0
944618400,24450,1644543062689859152,1,0.0,0.0,0.0,0.0,0.0,0.0,0.0,0.0,0.0,0.0,0.0,0.0,0.0,0.0,0.0,0.0,0.0,0.0,0.0,0.0,0.0,0.0,0.0,0.0,0.0,0.0686465501785,-9.64974308014,-0.529559075832,0.0,0.0,0.0,0.0,0.0,0.0,0.0,0.0,0.0
946243500,24451,1644543062691875935,1,0.0,0.0,0.0,0.0,0.0,0.0,0.0,0.0,0.0,0.0,0.0,0.0,0.0,0.0,0.0,0.0,0.0,0.0,0.0,0.0,0.0,0.0,0.0,0.0,0.0,0.12748645246,-9.61051654816,-0.509945809841,0.0,0.0,0.0,0.0,0.0,0.0,0.0,0.0,0.0
948667500,24452,1644543062693892479,1,0.0,0.0,0.0,0.0,0.0,0.0,0.0,0.0,0.0,0.0,0.0,0.0,0.0,0.0,0.0,0.0,0.0,0.0,0.0,0.0,0.0,0.0,0.0,0.0,0.0,0.12748645246,-9.61051654816,-0.451105892658,0.0,0.0,0.0,0.0,0.0,0.0,0.0,0.0,0.0
950654000,24453,1644543062695907354,1,0.0,0.0,0.0,0.0,0.0,0.0,0.0,0.0,0.0,0.0,0.0,0.0,0.0,0.0,0.0,0.0,0.0,0.0,0.0,0.0,0.0,0.0,0.0,0.0,0.0,0.12748645246,-9.57129001617,-0.549172401428,0.0,0.0,0.0,0.0,0.0,0.0,0.0,0.0,0.0
952530700,24454,1644543062697924137,1,0.0,0.0,0.0,0.0,0.0,0.0,0.0,0.0,0.0,0.0,0.0,0.0,0.0,0.0,0.0,0.0,0.0,0.0,0.0,0.0,0.0,0.0,0.0,0.0,0.0,0.0686465501785,-9.58109664917,-0.490332484245,0.0,0.0,0.0,0.0,0.0,0.0,0.0,0.0,0.0
954584800,24455,1644543062699940920,1,0.0,0.0,0.0,0.0,0.0,0.0,0.0,0.0,0.0,0.0,0.0,0.0,0.0,0.0,0.0,0.0,0.0,0.0,0.0,0.0,0.0,0.0,0.0,0.0,0.0,0.137293100357,-9.62032318115,-0.421685934067,0.0,0.0,0.0,0.0,0.0,0.0,0.0,0.0,0.0
956677500,24456,1644543062701957703,1,0.0,0.0,0.0,0.0,0.0,0.0,0.0,0.0,0.0,0.0,0.0,0.0,0.0,0.0,0.0,0.0,0.0,0.0,0.0,0.0,0.0,0.0,0.0,0.0,0.0,0.137293100357,-9.58109664917,-0.529559075832,0.0,0.0,0.0,0.0,0.0,0.0,0.0,0.0,0.0
958749900,24457,1644543062703974247,1,0.0,0.0,0.0,0.0,0.0,0.0,0.0,0.0,0.0,0.0,0.0,0.0,0.0,0.0,0.0,0.0,0.0,0.0,0.0,0.0,0.0,0.0,0.0,0.0,0.0,0.0392265990376,-9.62032318115,-0.558979034424,0.0,0.0,0.0,0.0,0.0,0.0,0.0,0.0,0.0
960538600,24458,1644543062705991268,1,0.0,0.0,0.0,0.0,0.0,0.0,0.0,0.0,0.0,0.0,0.0,0.0,0.0,0.0,0.0,0.0,0.0,0.0,0.0,0.0,0.0,0.0,0.0,0.0,0.0,0.0784531980753,-9.64974308014,-0.529559075832,0.0,0.0,0.0,0.0,0.0,0.0,0.0,0.0,0.0
962526600,24459,1644543062708007813,1,0.0,0.0,0.0,0.0,0.0,0.0,0.0,0.0,0.0,0.0,0.0,0.0,0.0,0.0,0.0,0.0,0.0,0.0,0.0,0.0,0.0,0.0,0.0,0.0,0.0,0.166713044047,-9.58109664917,-0.549172401428,0.0,0.0,0.0,0.0,0.0,0.0,0.0,0.0,0.0
964530900,24460,1644543062710022688,1,0.0,0.0,0.0,0.0,0.0,0.0,0.0,0.0,0.0,0.0,0.0,0.0,0.0,0.0,0.0,0.0,0.0,0.0,0.0,0.0,0.0,0.0,0.0,0.0,0.0,0.137293100357,-9.57129001617,-0.529559075832,0.0,0.0,0.0,0.0,0.0,0.0,0.0,0.0,0.0
966545900,24461,1644543062712039232,1,0.0,0.0,0.0,0.0,0.0,0.0,0.0,0.0,0.0,0.0,0.0,0.0,0.0,0.0,0.0,0.0,0.0,0.0,0.0,0.0,0.0,0.0,0.0,0.0,0.0,0.0980664938688,-9.64974308014,-0.490332484245,0.0,0.0,0.0,0.0,0.0,0.0,0.0,0.0,0.0
968526900,24462,1644543062714056253,1,0.0,0.0,0.0,0.0,0.0,0.0,0.0,0.0,0.0,0.0,0.0,0.0,0.0,0.0,0.0,0.0,0.0,0.0,0.0,0.0,0.0,0.0,0.0,0.0,0.0,0.0686465501785,-9.61051654816,-0.558979034424,0.0,0.0,0.0,0.0,0.0,0.0,0.0,0.0,0.0
970532800,24463,1644543062716073036,1,0.0,0.0,0.0,0.0,0.0,0.0,0.0,0.0,0.0,0.0,0.0,0.0,0.0,0.0,0.0,0.0,0.0,0.0,0.0,0.0,0.0,0.0,0.0,0.0,0.0,0.0784531980753,-9.58109664917,-0.509945809841,0.0,0.0,0.0,0.0,0.0,0.0,0.0,0.0,0.0
972643200,24464,1644543062718089581,1,0.0,0.0,0.0,0.0,0.0,0.0,0.0,0.0,0.0,0.0,0.0,0.0,0.0,0.0,0.0,0.0,0.0,0.0,0.0,0.0,0.0,0.0,0.0,0.0,0.0,0.137293100357,-9.64974308014,-0.490332484245,0.0,0.0,0.0,0.0,0.0,0.0,0.0,0.0,0.0
974817800,24465,1644543062720106363,1,0.0,0.0,0.0,0.0,0.0,0.0,0.0,0.0,0.0,0.0,0.0,0.0,0.0,0.0,0.0,0.0,0.0,0.0,0.0,0.0,0.0,0.0,0.0,0.0,0.0,0.0784531980753,-9.58109664917,-0.529559075832,0.0,0.0,0.0,0.0,0.0,0.0,0.0,0.0,0.0
976891800,24466,1644543062722123146,1,0.0,0.0,0.0,0.0,0.0,0.0,0.0,0.0,0.0,0.0,0.0,0.0,0.0,0.0,0.0,0.0,0.0,0.0,0.0,0.0,0.0,0.0,0.0,0.0,0.0,0.0784531980753,-9.61051654816,-0.421685934067,0.0,0.0,0.0,0.0,0.0,0.0,0.0,0.0,0.0
978563000,24467,1644543062724139929,1,0.0,0.0,0.0,0.0,0.0,0.0,0.0,0.0,0.0,0.0,0.0,0.0,0.0,0.0,0.0,0.0,0.0,0.0,0.0,0.0,0.0,0.0,0.0,0.0,0.0,0.12748645246,-9.61051654816,-0.509945809841,0.0,0.0,0.0,0.0,0.0,0.0,0.0,0.0,0.0
980888400,24468,1644543062726154566,1,0.0,0.0,0.0,0.0,0.0,0.0,0.0,0.0,0.0,0.0,0.0,0.0,0.0,0.0,0.0,0.0,0.0,0.0,0.0,0.0,0.0,0.0,0.0,0.0,0.0,0.0784531980753,-9.57129001617,-0.490332484245,0.0,0.0,0.0,0.0,0.0,0.0,0.0,0.0,0.0
982640900,24469,1644543062728171349,1,0.0,0.0,0.0,0.0,0.0,0.0,0.0,0.0,0.0,0.0,0.0,0.0,0.0,0.0,0.0,0.0,0.0,0.0,0.0,0.0,0.0,0.0,0.0,0.0,0.0,0.0686465501785,-9.58109664917,-0.549172401428,0.0,0.0,0.0,0.0,0.0,0.0,0.0,0.0,0.0
984604700,24470,1644543062730187893,1,0.0,0.0,0.0,0.0,0.0,0.0,0.0,0.0,0.0,0.0,0.0,0.0,0.0,0.0,0.0,0.0,0.0,0.0,0.0,0.0,0.0,0.0,0.0,0.0,0.0,0.0784531980753,-9.57129001617,-0.558979034424,0.0,0.0,0.0,0.0,0.0,0.0,0.0,0.0,0.0
986943500,24471,1644543062732204914,1,0.0,0.0,0.0,0.0,0.0,0.0,0.0,0.0,0.0,0.0,0.0,0.0,0.0,0.0,0.0,0.0,0.0,0.0,0.0,0.0,0.0,0.0,0.0,0.0,0.0,0.0980664938688,-9.62032318115,-0.549172401428,0.0,0.0,0.0,0.0,0.0,0.0,0.0,0.0,0.0
989105500,24472,1644543062734221697,1,0.0,0.0,0.0,0.0,0.0,0.0,0.0,0.0,0.0,0.0,0.0,0.0,0.0,0.0,0.0,0.0,0.0,0.0,0.0,0.0,0.0,0.0,0.0,0.0,0.0,0.0686465501785,-9.57129001617,-0.529559075832,0.0,0.0,0.0,0.0,0.0,0.0,0.0,0.0,0.0
990735500,24473,1644543062736236334,1,0.0,0.0,0.0,0.0,0.0,0.0,0.0,0.0,0.0,0.0,0.0,0.0,0.0,0.0,0.0,0.0,0.0,0.0,0.0,0.0,0.0,0.0,0.0,0.0,0.0,0.0980664938688,-9.58109664917,-0.490332484245,0.0,0.0,0.0,0.0,0.0,0.0,0.0,0.0,0.0
992796300,24474,1644543062738253117,1,0.0,0.0,0.0,0.0,0.0,0.0,0.0,0.0,0.0,0.0,0.0,0.0,0.0,0.0,0.0,0.0,0.0,0.0,0.0,0.0,0.0,0.0,0.0,0.0,0.0,0.0980664938688,-9.61051654816,-0.509945809841,0.0,0.0,0.0,0.0,0.0,0.0,0.0,0.0,0.0
994498500,24475,1644543062740269661,1,0.0,0.0,0.0,0.0,0.0,0.0,0.0,0.0,0.0,0.0,0.0,0.0,0.0,0.0,0.0,0.0,0.0,0.0,0.0,0.0,0.0,0.0,0.0,0.0,0.0,0.0686465501785,-9.57129001617,-0.451105892658,0.0,0.0,0.0,0.0,0.0,0.0,0.0,0.0,0.0
996802900,24476,1644543062742286682,1,0.0,0.0,0.0,0.0,0.0,0.0,0.0,0.0,0.0,0.0,0.0,0.0,0.0,0.0,0.0,0.0,0.0,0.0,0.0,0.0,0.0,0.0,0.0,0.0,0.0,0.0784531980753,-9.56148338318,-0.558979034424,0.0,0.0,0.0,0.0,0.0,0.0,0.0,0.0,0.0
998782000,24477,1644543062744303226,1,0.0,0.0,0.0,0.0,0.0,0.0,0.0,0.0,0.0,0.0,0.0,0.0,0.0,0.0,0.0,0.0,0.0,0.0,0.0,0.0,0.0,0.0,0.0,0.0,0.0,0.0784531980753,-9.57129001617,-0.529559075832,0.0,0.0,0.0,0.0,0.0,0.0,0.0,0.0,0.0
1000763100,24478,1644543062746319771,1,0.0,0.0,0.0,0.0,0.0,0.0,0.0,0.0,0.0,0.0,0.0,0.0,0.0,0.0,0.0,0.0,0.0,0.0,0.0,0.0,0.0,0.0,0.0,0.0,0.0,0.0784531980753,-9.62032318115,-0.509945809841,0.0,0.0,0.0,0.0,0.0,0.0,0.0,0.0,0.0
1003409700,24479,1644543062748336077,1,0.0,0.0,0.0,0.0,0.0,0.0,0.0,0.0,0.0,0.0,0.0,0.0,0.0,0.0,0.0,0.0,0.0,0.0,0.0,0.0,0.0,0.0,0.0,0.0,0.0,0.0686465501785,-9.58109664917,-0.529559075832,0.0,0.0,0.0,0.0,0.0,0.0,0.0,0.0,0.0
1004877700,24480,1644543062750350475,1,0.0,0.0,0.0,0.0,0.0,0.0,0.0,0.0,0.0,0.0,0.0,0.0,0.0,0.0,0.0,0.0,0.0,0.0,0.0,0.0,0.0,0.0,0.0,0.0,0.0,0.0784531980753,-9.61051654816,-0.558979034424,0.0,0.0,0.0,0.0,0.0,0.0,0.0,0.0,0.0
1006815700,24481,1644543062752367258,1,0.0,0.0,0.0,0.0,0.0,0.0,0.0,0.0,0.0,0.0,0.0,0.0,0.0,0.0,0.0,0.0,0.0,0.0,0.0,0.0,0.0,0.0,0.0,0.0,0.0,0.0784531980753,-9.58109664917,-0.509945809841,0.0,0.0,0.0,0.0,0.0,0.0,0.0,0.0,0.0
1008881500,24482,1644543062754383564,1,0.0,0.0,0.0,0.0,0.0,0.0,0.0,0.0,0.0,0.0,0.0,0.0,0.0,0.0,0.0,0.0,0.0,0.0,0.0,0.0,0.0,0.0,0.0,0.0,0.0,0.0784531980753,-9.58109664917,-0.509945809841,0.0,0.0,0.0,0.0,0.0,0.0,0.0,0.0,0.0
1010812600,24483,1644543062756399870,1,0.0,0.0,0.0,0.0,0.0,0.0,0.0,0.0,0.0,0.0,0.0,0.0,0.0,0.0,0.0,0.0,0.0,0.0,0.0,0.0,0.0,0.0,0.0,0.0,0.0,0.0784531980753,-9.57129001617,-0.549172401428,0.0,0.0,0.0,0.0,0.0,0.0,0.0,0.0,0.0
1013084400,24484,1644543062758416414,1,0.0,0.0,0.0,0.0,0.0,0.0,0.0,0.0,0.0,0.0,0.0,0.0,0.0,0.0,0.0,0.0,0.0,0.0,0.0,0.0,0.0,0.0,0.0,0.0,0.0,0.0686465501785,-9.58109664917,-0.470719188452,0.0,0.0,0.0,0.0,0.0,0.0,0.0,0.0,0.0
1015015500,24485,1644543062760430813,1,0.0,0.0,0.0,0.0,0.0,0.0,0.0,0.0,0.0,0.0,0.0,0.0,0.0,0.0,0.0,0.0,0.0,0.0,0.0,0.0,0.0,0.0,0.0,0.0,0.0,0.0784531980753,-9.58109664917,-0.451105892658,0.0,0.0,0.0,0.0,0.0,0.0,0.0,0.0,0.0
1017026300,24486,1644543062762447357,1,0.0,0.0,0.0,0.0,0.0,0.0,0.0,0.0,0.0,0.0,0.0,0.0,0.0,0.0,0.0,0.0,0.0,0.0,0.0,0.0,0.0,0.0,0.0,0.0,0.0,0.0980664938688,-9.61051654816,-0.451105892658,0.0,0.0,0.0,0.0,0.0,0.0,0.0,0.0,0.0
1019017200,24487,1644543062764463902,1,0.0,0.0,0.0,0.0,0.0,0.0,0.0,0.0,0.0,0.0,0.0,0.0,0.0,0.0,0.0,0.0,0.0,0.0,0.0,0.0,0.0,0.0,0.0,0.0,0.0,0.0294199492782,-9.64974308014,-0.470719188452,0.0,0.0,0.0,0.0,0.0,0.0,0.0,0.0,0.0
1021068300,24488,1644543062766480207,1,0.0,0.0,0.0,0.0,0.0,0.0,0.0,0.0,0.0,0.0,0.0,0.0,0.0,0.0,0.0,0.0,0.0,0.0,0.0,0.0,0.0,0.0,0.0,0.0,0.0,0.0294199492782,-9.58109664917,-0.402072638273,0.0,0.0,0.0,0.0,0.0,0.0,0.0,0.0,0.0
1022923500,24489,1644543062768496513,1,0.0,0.0,0.0,0.0,0.0,0.0,0.0,0.0,0.0,0.0,0.0,0.0,0.0,0.0,0.0,0.0,0.0,0.0,0.0,0.0,0.0,0.0,0.0,0.0,0.0,0.12748645246,-9.61051654816,-0.421685934067,0.0,0.0,0.0,0.0,0.0,0.0,0.0,0.0,0.0
1024935200,24490,1644543062770513296,1,0.0,0.0,0.0,0.0,0.0,0.0,0.0,0.0,0.0,0.0,0.0,0.0,0.0,0.0,0.0,0.0,0.0,0.0,0.0,0.0,0.0,0.0,0.0,0.0,0.0,0.0686465501785,-9.58109664917,-0.470719188452,0.0,0.0,0.0,0.0,0.0,0.0,0.0,0.0,0.0
1026874500,24491,1644543062772529602,1,0.0,0.0,0.0,0.0,0.0,0.0,0.0,0.0,0.0,0.0,0.0,0.0,0.0,0.0,0.0,0.0,0.0,0.0,0.0,0.0,0.0,0.0,0.0,0.0,0.0,0.0686465501785,-9.62032318115,-0.402072638273,0.0,0.0,0.0,0.0,0.0,0.0,0.0,0.0,0.0
1029140800,24492,1644543062774546146,1,0.0,0.0,0.0,0.0,0.0,0.0,0.0,0.0,0.0,0.0,0.0,0.0,0.0,0.0,0.0,0.0,0.0,0.0,0.0,0.0,0.0,0.0,0.0,0.0,0.0,0.0784531980753,-9.57129001617,-0.451105892658,0.0,0.0,0.0,0.0,0.0,0.0,0.0,0.0,0.0
1030917900,24493,1644543062776562452,1,0.0,0.0,0.0,0.0,0.0,0.0,0.0,0.0,0.0,0.0,0.0,0.0,0.0,0.0,0.0,0.0,0.0,0.0,0.0,0.0,0.0,0.0,0.0,0.0,0.0,0.12748645246,-9.61051654816,-0.451105892658,0.0,0.0,0.0,0.0,0.0,0.0,0.0,0.0,0.0
1033050300,24494,1644543062778578758,1,0.0,0.0,0.0,0.0,0.0,0.0,0.0,0.0,0.0,0.0,0.0,0.0,0.0,0.0,0.0,0.0,0.0,0.0,0.0,0.0,0.0,0.0,0.0,0.0,0.0,0.0294199492782,-9.58109664917,-0.509945809841,0.0,0.0,0.0,0.0,0.0,0.0,0.0,0.0,0.0
1035516000,24495,1644543062780593395,1,0.0,0.0,0.0,0.0,0.0,0.0,0.0,0.0,0.0,0.0,0.0,0.0,0.0,0.0,0.0,0.0,0.0,0.0,0.0,0.0,0.0,0.0,0.0,0.0,0.0,0.0686465501785,-9.61051654816,-0.529559075832,0.0,0.0,0.0,0.0,0.0,0.0,0.0,0.0,0.0
1037259100,24496,1644543062782609940,1,0.0,0.0,0.0,0.0,0.0,0.0,0.0,0.0,0.0,0.0,0.0,0.0,0.0,0.0,0.0,0.0,0.0,0.0,0.0,0.0,0.0,0.0,0.0,0.0,0.0,0.0980664938688,-9.66935634613,-0.421685934067,0.0,0.0,0.0,0.0,0.0,0.0,0.0,0.0,0.0
1039100100,24497,1644543062784626245,1,0.0,0.0,0.0,0.0,0.0,0.0,0.0,0.0,0.0,0.0,0.0,0.0,0.0,0.0,0.0,0.0,0.0,0.0,0.0,0.0,0.0,0.0,0.0,0.0,0.0,0.0980664938688,-9.62032318115,-0.490332484245,0.0,0.0,0.0,0.0,0.0,0.0,0.0,0.0,0.0
1041169100,24498,1644543062786642790,1,0.0,0.0,0.0,0.0,0.0,0.0,0.0,0.0,0.0,0.0,0.0,0.0,0.0,0.0,0.0,0.0,0.0,0.0,0.0,0.0,0.0,0.0,0.0,0.0,0.0,0.0980664938688,-9.58109664917,-0.470719188452,0.0,0.0,0.0,0.0,0.0,0.0,0.0,0.0,0.0
1043299900,24499,1644543062788659096,1,0.0,0.0,0.0,0.0,0.0,0.0,0.0,0.0,0.0,0.0,0.0,0.0,0.0,0.0,0.0,0.0,0.0,0.0,0.0,0.0,0.0,0.0,0.0,0.0,0.0,0.0392265990376,-9.62032318115,-0.402072638273,0.0,0.0,0.0,0.0,0.0,0.0,0.0,0.0,0.0
1045157300,24500,1644543062790675879,1,0.0,0.0,0.0,0.0,0.0,0.0,0.0,0.0,0.0,0.0,0.0,0.0,0.0,0.0,0.0,0.0,0.0,0.0,0.0,0.0,0.0,0.0,0.0,0.0,0.0,0.12748645246,-9.61051654816,-0.402072638273,0.0,0.0,0.0,0.0,0.0,0.0,0.0,0.0,0.0
1047188500,24501,1644543062792692184,1,0.0,0.0,0.0,0.0,0.0,0.0,0.0,0.0,0.0,0.0,0.0,0.0,0.0,0.0,0.0,0.0,0.0,0.0,0.0,0.0,0.0,0.0,0.0,0.0,0.0,0.12748645246,-9.57129001617,-0.529559075832,0.0,0.0,0.0,0.0,0.0,0.0,0.0,0.0,0.0
1049275100,24502,1644543062794708490,1,0.0,0.0,0.0,0.0,0.0,0.0,0.0,0.0,0.0,0.0,0.0,0.0,0.0,0.0,0.0,0.0,0.0,0.0,0.0,0.0,0.0,0.0,0.0,0.0,0.0,0.12748645246,-9.61051654816,-0.598205626011,0.0,0.0,0.0,0.0,0.0,0.0,0.0,0.0,0.0
1051133600,24503,1644543062796725035,1,0.0,0.0,0.0,0.0,0.0,0.0,0.0,0.0,0.0,0.0,0.0,0.0,0.0,0.0,0.0,0.0,0.0,0.0,0.0,0.0,0.0,0.0,0.0,0.0,0.0,0.176519691944,-9.58109664917,-0.725692093372,0.0,0.0,0.0,0.0,0.0,0.0,0.0,0.0,0.0
1053048300,24504,1644543062798741341,1,0.0,0.0,0.0,0.0,0.0,0.0,0.0,0.0,0.0,0.0,0.0,0.0,0.0,0.0,0.0,0.0,0.0,0.0,0.0,0.0,0.0,0.0,0.0,0.0,0.0,0.245166242123,-9.66935634613,-0.725692093372,0.0,0.0,0.0,0.0,0.0,0.0,0.0,0.0,0.0
1055316900,24505,1644543062800755978,1,0.0,0.0,0.0,0.0,0.0,0.0,0.0,0.0,0.0,0.0,0.0,0.0,0.0,0.0,0.0,0.0,0.0,0.0,0.0,0.0,0.0,0.0,0.0,0.0,0.0,-0.0784531980753,-9.45361042023,-0.696272134781,0.0,0.0,0.0,0.0,0.0,0.0,0.0,0.0,0.0
1057522800,24506,1644543062802774429,1,0.0,0.0,0.0,0.0,0.0,0.0,0.0,0.0,0.0,0.0,0.0,0.0,0.0,0.0,0.0,0.0,0.0,0.0,0.0,0.0,0.0,0.0,0.0,0.0,0.0,0.00980664975941,-9.66935634613,-0.421685934067,0.0,0.0,0.0,0.0,0.0,0.0,0.0,0.0,0.0
1059151300,24507,1644543062804790735,1,0.0,0.0,0.0,0.0,0.0,0.0,0.0,0.0,0.0,0.0,0.0,0.0,0.0,0.0,0.0,0.0,0.0,0.0,0.0,0.0,0.0,0.0,0.0,0.0,0.0,0.176519691944,-9.61051654816,-0.313812792301,0.0,0.0,0.0,0.0,0.0,0.0,0.0,0.0,0.0
1061587700,24508,1644543062806823254,1,0.0,0.0,0.0,0.0,0.0,0.0,0.0,0.0,0.0,0.0,0.0,0.0,0.0,0.0,0.0,0.0,0.0,0.0,0.0,0.0,0.0,0.0,0.0,0.0,0.0,0.166713044047,-9.61051654816,-0.362846046686,0.0,0.0,0.0,0.0,0.0,0.0,0.0,0.0,0.0
1063650200,24509,1644543062808821678,1,0.0,0.0,0.0,0.0,0.0,0.0,0.0,0.0,0.0,0.0,0.0,0.0,0.0,0.0,0.0,0.0,0.0,0.0,0.0,0.0,0.0,0.0,0.0,0.0,0.0,-0.0392265990376,-9.61051654816,-0.38245934248,0.0,0.0,0.0,0.0,0.0,0.0,0.0,0.0,0.0
1065744200,24510,1644543062810840130,1,0.0,0.0,0.0,0.0,0.0,0.0,0.0,0.0,0.0,0.0,0.0,0.0,0.0,0.0,0.0,0.0,0.0,0.0,0.0,0.0,0.0,0.0,0.0,0.0,0.0,0.0686465501785,-9.67916297913,-0.451105892658,0.0,0.0,0.0,0.0,0.0,0.0,0.0,0.0,0.0
1067737900,24511,1644543062812856674,1,0.0,0.0,0.0,0.0,0.0,0.0,0.0,0.0,0.0,0.0,0.0,0.0,0.0,0.0,0.0,0.0,0.0,0.0,0.0,0.0,0.0,0.0,0.0,0.0,0.0,0.137293100357,-9.57129001617,-0.402072638273,0.0,0.0,0.0,0.0,0.0,0.0,0.0,0.0,0.0
1069826400,24512,1644543062814872980,1,0.0,0.0,0.0,0.0,0.0,0.0,0.0,0.0,0.0,0.0,0.0,0.0,0.0,0.0,0.0,0.0,0.0,0.0,0.0,0.0,0.0,0.0,0.0,0.0,0.0,0.343232750893,-9.61051654816,-0.774725317955,0.0,0.0,0.0,0.0,0.0,0.0,0.0,0.0,0.0
1071614200,24513,1644543062816889763,1,0.0,0.0,0.0,0.0,0.0,0.0,0.0,0.0,0.0,0.0,0.0,0.0,0.0,0.0,0.0,0.0,0.0,0.0,0.0,0.0,0.0,0.0,0.0,0.0,0.0,-0.0686465501785,-9.53206348419,-0.686465501785,0.0,0.0,0.0,0.0,0.0,0.0,0.0,0.0,0.0
1073567800,24514,1644543062818906069,1,0.0,0.0,0.0,0.0,0.0,0.0,0.0,0.0,0.0,0.0,0.0,0.0,0.0,0.0,0.0,0.0,0.0,0.0,0.0,0.0,0.0,0.0,0.0,0.0,0.0,0.12748645246,-9.78703689575,-0.529559075832,0.0,0.0,0.0,0.0,0.0,0.0,0.0,0.0,0.0
1075570700,24515,1644543062820922375,1,0.0,0.0,0.0,0.0,0.0,0.0,0.0,0.0,0.0,0.0,0.0,0.0,0.0,0.0,0.0,0.0,0.0,0.0,0.0,0.0,0.0,0.0,0.0,0.0,0.0,0.0294199492782,-9.39477062225,-0.451105892658,0.0,0.0,0.0,0.0,0.0,0.0,0.0,0.0,0.0
1077433800,24516,1644543062822938919,1,0.0,0.0,0.0,0.0,0.0,0.0,0.0,0.0,0.0,0.0,0.0,0.0,0.0,0.0,0.0,0.0,0.0,0.0,0.0,0.0,0.0,0.0,0.0,0.0,0.0,0.137293100357,-9.62032318115,-0.490332484245,0.0,0.0,0.0,0.0,0.0,0.0,0.0,0.0,0.0
1080030000,24517,1644543062824955225,1,0.0,0.0,0.0,0.0,0.0,0.0,0.0,0.0,0.0,0.0,0.0,0.0,0.0,0.0,0.0,0.0,0.0,0.0,0.0,0.0,0.0,0.0,0.0,0.0,0.0,0.0784531980753,-9.66935634613,-0.402072638273,0.0,0.0,0.0,0.0,0.0,0.0,0.0,0.0,0.0
1081598700,24518,1644543062826971769,1,0.0,0.0,0.0,0.0,0.0,0.0,0.0,0.0,0.0,0.0,0.0,0.0,0.0,0.0,0.0,0.0,0.0,0.0,0.0,0.0,0.0,0.0,0.0,0.0,0.0,0.0784531980753,-9.56148338318,-0.402072638273,0.0,0.0,0.0,0.0,0.0,0.0,0.0,0.0,0.0
1083334400,24519,1644543062828988314,1,0.0,0.0,0.0,0.0,0.0,0.0,0.0,0.0,0.0,0.0,0.0,0.0,0.0,0.0,0.0,0.0,0.0,0.0,0.0,0.0,0.0,0.0,0.0,0.0,0.0,0.0686465501785,-9.56148338318,-0.470719188452,0.0,0.0,0.0,0.0,0.0,0.0,0.0,0.0,0.0
1085311300,24520,1644543062831004620,1,0.0,0.0,0.0,0.0,0.0,0.0,0.0,0.0,0.0,0.0,0.0,0.0,0.0,0.0,0.0,0.0,0.0,0.0,0.0,0.0,0.0,0.0,0.0,0.0,0.0,0.0784531980753,-9.64974308014,-0.451105892658,0.0,0.0,0.0,0.0,0.0,0.0,0.0,0.0,0.0
1087303700,24521,1644543062833021164,1,0.0,0.0,0.0,0.0,0.0,0.0,0.0,0.0,0.0,0.0,0.0,0.0,0.0,0.0,0.0,0.0,0.0,0.0,0.0,0.0,0.0,0.0,0.0,0.0,0.0,0.0980664938688,-9.57129001617,-0.421685934067,0.0,0.0,0.0,0.0,0.0,0.0,0.0,0.0,0.0
1089560100,24522,1644543062835037708,1,0.0,0.0,0.0,0.0,0.0,0.0,0.0,0.0,0.0,0.0,0.0,0.0,0.0,0.0,0.0,0.0,0.0,0.0,0.0,0.0,0.0,0.0,0.0,0.0,0.0,0.0980664938688,-9.57129001617,-0.421685934067,0.0,0.0,0.0,0.0,0.0,0.0,0.0,0.0,0.0
1091277100,24523,1644543062837054014,1,0.0,0.0,0.0,0.0,0.0,0.0,0.0,0.0,0.0,0.0,0.0,0.0,0.0,0.0,0.0,0.0,0.0,0.0,0.0,0.0,0.0,0.0,0.0,0.0,0.0,0.0980664938688,-9.66935634613,-0.509945809841,0.0,0.0,0.0,0.0,0.0,0.0,0.0,0.0,0.0
1093374000,24524,1644543062839070559,1,0.0,0.0,0.0,0.0,0.0,0.0,0.0,0.0,0.0,0.0,0.0,0.0,0.0,0.0,0.0,0.0,0.0,0.0,0.0,0.0,0.0,0.0,0.0,0.0,0.0,0.12748645246,-9.66935634613,-0.470719188452,0.0,0.0,0.0,0.0,0.0,0.0,0.0,0.0,0.0
1095351500,24525,1644543062841086864,1,0.0,0.0,0.0,0.0,0.0,0.0,0.0,0.0,0.0,0.0,0.0,0.0,0.0,0.0,0.0,0.0,0.0,0.0,0.0,0.0,0.0,0.0,0.0,0.0,0.0,0.0980664938688,-9.58109664917,-0.529559075832,0.0,0.0,0.0,0.0,0.0,0.0,0.0,0.0,0.0
1097359100,24526,1644543062843103170,1,0.0,0.0,0.0,0.0,0.0,0.0,0.0,0.0,0.0,0.0,0.0,0.0,0.0,0.0,0.0,0.0,0.0,0.0,0.0,0.0,0.0,0.0,0.0,0.0,0.0,0.137293100357,-9.61051654816,-0.509945809841,0.0,0.0,0.0,0.0,0.0,0.0,0.0,0.0,0.0
1099661400,24527,1644543062845119953,1,0.0,0.0,0.0,0.0,0.0,0.0,0.0,0.0,0.0,0.0,0.0,0.0,0.0,0.0,0.0,0.0,0.0,0.0,0.0,0.0,0.0,0.0,0.0,0.0,0.0,0.12748645246,-9.64974308014,-0.509945809841,0.0,0.0,0.0,0.0,0.0,0.0,0.0,0.0,0.0
1101399400,24528,1644543062847136259,1,0.0,0.0,0.0,0.0,0.0,0.0,0.0,0.0,0.0,0.0,0.0,0.0,0.0,0.0,0.0,0.0,0.0,0.0,0.0,0.0,0.0,0.0,0.0,0.0,0.0,0.0392265990376,-9.53206348419,-0.529559075832,0.0,0.0,0.0,0.0,0.0,0.0,0.0,0.0,0.0
1103333500,24529,1644543062849152803,1,0.0,0.0,0.0,0.0,0.0,0.0,0.0,0.0,0.0,0.0,0.0,0.0,0.0,0.0,0.0,0.0,0.0,0.0,0.0,0.0,0.0,0.0,0.0,0.0,0.0,0.0980664938688,-9.64974308014,-0.509945809841,0.0,0.0,0.0,0.0,0.0,0.0,0.0,0.0,0.0
1105559700,24530,1644543062851169109,1,0.0,0.0,0.0,0.0,0.0,0.0,0.0,0.0,0.0,0.0,0.0,0.0,0.0,0.0,0.0,0.0,0.0,0.0,0.0,0.0,0.0,0.0,0.0,0.0,0.0,0.12748645246,-9.58109664917,-0.509945809841,0.0,0.0,0.0,0.0,0.0,0.0,0.0,0.0,0.0
1107558700,24531,1644543062853185654,1,0.0,0.0,0.0,0.0,0.0,0.0,0.0,0.0,0.0,0.0,0.0,0.0,0.0,0.0,0.0,0.0,0.0,0.0,0.0,0.0,0.0,0.0,0.0,0.0,0.0,0.137293100357,-9.58109664917,-0.549172401428,0.0,0.0,0.0,0.0,0.0,0.0,0.0,0.0,0.0
1109769400,24532,1644543062855202198,1,0.0,0.0,0.0,0.0,0.0,0.0,0.0,0.0,0.0,0.0,0.0,0.0,0.0,0.0,0.0,0.0,0.0,0.0,0.0,0.0,0.0,0.0,0.0,0.0,0.0,0.0980664938688,-9.61051654816,-0.549172401428,0.0,0.0,0.0,0.0,0.0,0.0,0.0,0.0,0.0
1111577300,24533,1644543062857218504,1,0.0,0.0,0.0,0.0,0.0,0.0,0.0,0.0,0.0,0.0,0.0,0.0,0.0,0.0,0.0,0.0,0.0,0.0,0.0,0.0,0.0,0.0,0.0,0.0,0.0,0.137293100357,-9.57129001617,-0.627625584602,0.0,0.0,0.0,0.0,0.0,0.0,0.0,0.0,0.0
1113562800,24534,1644543062859234810,1,0.0,0.0,0.0,0.0,0.0,0.0,0.0,0.0,0.0,0.0,0.0,0.0,0.0,0.0,0.0,0.0,0.0,0.0,0.0,0.0,0.0,0.0,0.0,0.0,0.0,0.12748645246,-9.56148338318,-0.549172401428,0.0,0.0,0.0,0.0,0.0,0.0,0.0,0.0,0.0
1115594200,24535,1644543062861251354,1,0.0,0.0,0.0,0.0,0.0,0.0,0.0,0.0,0.0,0.0,0.0,0.0,0.0,0.0,0.0,0.0,0.0,0.0,0.0,0.0,0.0,0.0,0.0,0.0,0.0,0.176519691944,-9.57129001617,-0.529559075832,0.0,0.0,0.0,0.0,0.0,0.0,0.0,0.0,0.0
1117552000,24536,1644543062863265753,1,0.0,0.0,0.0,0.0,0.0,0.0,0.0,0.0,0.0,0.0,0.0,0.0,0.0,0.0,0.0,0.0,0.0,0.0,0.0,0.0,0.0,0.0,0.0,0.0,0.0,0.12748645246,-9.75761604309,-0.598205626011,0.0,0.0,0.0,0.0,0.0,0.0,0.0,0.0,0.0
1119568600,24537,1644543062865284204,1,0.0,0.0,0.0,0.0,0.0,0.0,0.0,0.0,0.0,0.0,0.0,0.0,0.0,0.0,0.0,0.0,0.0,0.0,0.0,0.0,0.0,0.0,0.0,0.0,0.0,0.176519691944,-9.58109664917,-0.627625584602,0.0,0.0,0.0,0.0,0.0,0.0,0.0,0.0,0.0
1121551800,24538,1644543062867300749,1,0.0,0.0,0.0,0.0,0.0,0.0,0.0,0.0,0.0,0.0,0.0,0.0,0.0,0.0,0.0,0.0,0.0,0.0,0.0,0.0,0.0,0.0,0.0,0.0,0.0,0.0392265990376,-9.42419052124,-0.558979034424,0.0,0.0,0.0,0.0,0.0,0.0,0.0,0.0,0.0
1123674300,24539,1644543062869317055,1,0.0,0.0,0.0,0.0,0.0,0.0,0.0,0.0,0.0,0.0,0.0,0.0,0.0,0.0,0.0,0.0,0.0,0.0,0.0,0.0,0.0,0.0,0.0,0.0,0.0,0.196132987738,-9.67916297913,-0.549172401428,0.0,0.0,0.0,0.0,0.0,0.0,0.0,0.0,0.0
1126124100,24540,1644543062871331453,1,0.0,0.0,0.0,0.0,0.0,0.0,0.0,0.0,0.0,0.0,0.0,0.0,0.0,0.0,0.0,0.0,0.0,0.0,0.0,0.0,0.0,0.0,0.0,0.0,0.0,0.196132987738,-9.7478094101,-0.549172401428,0.0,0.0,0.0,0.0,0.0,0.0,0.0,0.0,0.0
1127949100,24541,1644543062873348236,1,0.0,0.0,0.0,0.0,0.0,0.0,0.0,0.0,0.0,0.0,0.0,0.0,0.0,0.0,0.0,0.0,0.0,0.0,0.0,0.0,0.0,0.0,0.0,0.0,0.0,0.0784531980753,-9.56148338318,-0.57859236002,0.0,0.0,0.0,0.0,0.0,0.0,0.0,0.0,0.0
1130019600,24542,1644543062875364542,1,0.0,0.0,0.0,0.0,0.0,0.0,0.0,0.0,0.0,0.0,0.0,0.0,0.0,0.0,0.0,0.0,0.0,0.0,0.0,0.0,0.0,0.0,0.0,0.0,0.0,0.137293100357,-9.53206348419,-0.666852176189,0.0,0.0,0.0,0.0,0.0,0.0,0.0,0.0,0.0
1131778700,24543,1644543062877380848,1,0.0,0.0,0.0,0.0,0.0,0.0,0.0,0.0,0.0,0.0,0.0,0.0,0.0,0.0,0.0,0.0,0.0,0.0,0.0,0.0,0.0,0.0,0.0,0.0,0.0,0.225552946329,-9.66935634613,-0.57859236002,0.0,0.0,0.0,0.0,0.0,0.0,0.0,0.0,0.0
1133639700,24544,1644543062879397392,1,0.0,0.0,0.0,0.0,0.0,0.0,0.0,0.0,0.0,0.0,0.0,0.0,0.0,0.0,0.0,0.0,0.0,0.0,0.0,0.0,0.0,0.0,0.0,0.0,0.0,0.166713044047,-9.58109664917,-0.558979034424,0.0,0.0,0.0,0.0,0.0,0.0,0.0,0.0,0.0
1135623200,24545,1644543062881413937,1,0.0,0.0,0.0,0.0,0.0,0.0,0.0,0.0,0.0,0.0,0.0,0.0,0.0,0.0,0.0,0.0,0.0,0.0,0.0,0.0,0.0,0.0,0.0,0.0,0.0,0.0784531980753,-9.61051654816,-0.598205626011,0.0,0.0,0.0,0.0,0.0,0.0,0.0,0.0,0.0
1137609400,24546,1644543062883430481,1,0.0,0.0,0.0,0.0,0.0,0.0,0.0,0.0,0.0,0.0,0.0,0.0,0.0,0.0,0.0,0.0,0.0,0.0,0.0,0.0,0.0,0.0,0.0,0.0,0.0,0.137293100357,-9.66935634613,-0.627625584602,0.0,0.0,0.0,0.0,0.0,0.0,0.0,0.0,0.0
1139663200,24547,1644543062885446787,1,0.0,0.0,0.0,0.0,0.0,0.0,0.0,0.0,0.0,0.0,0.0,0.0,0.0,0.0,0.0,0.0,0.0,0.0,0.0,0.0,0.0,0.0,0.0,0.0,0.0,0.0980664938688,-9.57129001617,-0.57859236002,0.0,0.0,0.0,0.0,0.0,0.0,0.0,0.0,0.0
1141549000,24548,1644543062887463093,1,0.0,0.0,0.0,0.0,0.0,0.0,0.0,0.0,0.0,0.0,0.0,0.0,0.0,0.0,0.0,0.0,0.0,0.0,0.0,0.0,0.0,0.0,0.0,0.0,0.0,0.0686465501785,-9.61051654816,-0.558979034424,0.0,0.0,0.0,0.0,0.0,0.0,0.0,0.0,0.0
1143727300,24549,1644543062889479637,1,0.0,0.0,0.0,0.0,0.0,0.0,0.0,0.0,0.0,0.0,0.0,0.0,0.0,0.0,0.0,0.0,0.0,0.0,0.0,0.0,0.0,0.0,0.0,0.0,0.0,0.0784531980753,-9.61051654816,-0.598205626011,0.0,0.0,0.0,0.0,0.0,0.0,0.0,0.0,0.0
1145753400,24550,1644543062891498089,1,0.0,0.0,0.0,0.0,0.0,0.0,0.0,0.0,0.0,0.0,0.0,0.0,0.0,0.0,0.0,0.0,0.0,0.0,0.0,0.0,0.0,0.0,0.0,0.0,0.0,0.137293100357,-9.61051654816,-0.627625584602,0.0,0.0,0.0,0.0,0.0,0.0,0.0,0.0,0.0
1147789200,24551,1644543062893514633,1,0.0,0.0,0.0,0.0,0.0,0.0,0.0,0.0,0.0,0.0,0.0,0.0,0.0,0.0,0.0,0.0,0.0,0.0,0.0,0.0,0.0,0.0,0.0,0.0,0.0,0.0784531980753,-9.56148338318,-0.529559075832,0.0,0.0,0.0,0.0,0.0,0.0,0.0,0.0,0.0
1149743100,24552,1644543062895530939,1,0.0,0.0,0.0,0.0,0.0,0.0,0.0,0.0,0.0,0.0,0.0,0.0,0.0,0.0,0.0,0.0,0.0,0.0,0.0,0.0,0.0,0.0,0.0,0.0,0.0,0.0784531980753,-9.58109664917,-0.627625584602,0.0,0.0,0.0,0.0,0.0,0.0,0.0,0.0,0.0
1151767800,24553,1644543062897547245,1,0.0,0.0,0.0,0.0,0.0,0.0,0.0,0.0,0.0,0.0,0.0,0.0,0.0,0.0,0.0,0.0,0.0,0.0,0.0,0.0,0.0,0.0,0.0,0.0,0.0,0.0980664938688,-9.58109664917,-0.549172401428,0.0,0.0,0.0,0.0,0.0,0.0,0.0,0.0,0.0
1153779100,24554,1644543062899564028,1,0.0,0.0,0.0,0.0,0.0,0.0,0.0,0.0,0.0,0.0,0.0,0.0,0.0,0.0,0.0,0.0,0.0,0.0,0.0,0.0,0.0,0.0,0.0,0.0,0.0,0.0784531980753,-9.58109664917,-0.490332484245,0.0,0.0,0.0,0.0,0.0,0.0,0.0,0.0,0.0
1156574800,24555,1644543062901580334,1,0.0,0.0,0.0,0.0,0.0,0.0,0.0,0.0,0.0,0.0,0.0,0.0,0.0,0.0,0.0,0.0,0.0,0.0,0.0,0.0,0.0,0.0,0.0,0.0,0.0,0.0686465501785,-9.61051654816,-0.509945809841,0.0,0.0,0.0,0.0,0.0,0.0,0.0,0.0,0.0
1158062400,24556,1644543062903596640,1,0.0,0.0,0.0,0.0,0.0,0.0,0.0,0.0,0.0,0.0,0.0,0.0,0.0,0.0,0.0,0.0,0.0,0.0,0.0,0.0,0.0,0.0,0.0,0.0,0.0,0.0784531980753,-9.61051654816,-0.558979034424,0.0,0.0,0.0,0.0,0.0,0.0,0.0,0.0,0.0
1159944700,24557,1644543062905613184,1,0.0,0.0,0.0,0.0,0.0,0.0,0.0,0.0,0.0,0.0,0.0,0.0,0.0,0.0,0.0,0.0,0.0,0.0,0.0,0.0,0.0,0.0,0.0,0.0,0.0,0.0784531980753,-9.62032318115,-0.509945809841,0.0,0.0,0.0,0.0,0.0,0.0,0.0,0.0,0.0
1162211100,24558,1644543062907629728,1,0.0,0.0,0.0,0.0,0.0,0.0,0.0,0.0,0.0,0.0,0.0,0.0,0.0,0.0,0.0,0.0,0.0,0.0,0.0,0.0,0.0,0.0,0.0,0.0,0.0,0.12748645246,-9.58109664917,-0.529559075832,0.0,0.0,0.0,0.0,0.0,0.0,0.0,0.0,0.0
1164323100,24559,1644543062909646034,1,0.0,0.0,0.0,0.0,0.0,0.0,0.0,0.0,0.0,0.0,0.0,0.0,0.0,0.0,0.0,0.0,0.0,0.0,0.0,0.0,0.0,0.0,0.0,0.0,0.0,0.0784531980753,-9.58109664917,-0.529559075832,0.0,0.0,0.0,0.0,0.0,0.0,0.0,0.0,0.0
1166353100,24560,1644543062911662579,1,0.0,0.0,0.0,0.0,0.0,0.0,0.0,0.0,0.0,0.0,0.0,0.0,0.0,0.0,0.0,0.0,0.0,0.0,0.0,0.0,0.0,0.0,0.0,0.0,0.0,0.0686465501785,-9.57129001617,-0.509945809841,0.0,0.0,0.0,0.0,0.0,0.0,0.0,0.0,0.0
1168096100,24561,1644543062913678885,1,0.0,0.0,0.0,0.0,0.0,0.0,0.0,0.0,0.0,0.0,0.0,0.0,0.0,0.0,0.0,0.0,0.0,0.0,0.0,0.0,0.0,0.0,0.0,0.0,0.0,0.0686465501785,-9.5222568512,-0.509945809841,0.0,0.0,0.0,0.0,0.0,0.0,0.0,0.0,0.0
1170053200,24562,1644543062915697575,1,0.0,0.0,0.0,0.0,0.0,0.0,0.0,0.0,0.0,0.0,0.0,0.0,0.0,0.0,0.0,0.0,0.0,0.0,0.0,0.0,0.0,0.0,0.0,0.0,0.0,0.0784531980753,-9.5222568512,-0.509945809841,0.0,0.0,0.0,0.0,0.0,0.0,0.0,0.0,0.0
1171815100,24563,1644543062917713881,1,0.0,0.0,0.0,0.0,0.0,0.0,0.0,0.0,0.0,0.0,0.0,0.0,0.0,0.0,0.0,0.0,0.0,0.0,0.0,0.0,0.0,0.0,0.0,0.0,0.0,0.0784531980753,-9.5222568512,-0.451105892658,0.0,0.0,0.0,0.0,0.0,0.0,0.0,0.0,0.0
1174116100,24564,1644543062919730186,1,0.0,0.0,0.0,0.0,0.0,0.0,0.0,0.0,0.0,0.0,0.0,0.0,0.0,0.0,0.0,0.0,0.0,0.0,0.0,0.0,0.0,0.0,0.0,0.0,0.0,0.0980664938688,-9.56148338318,-0.421685934067,0.0,0.0,0.0,0.0,0.0,0.0,0.0,0.0,0.0
1176026900,24565,1644543062921746731,1,0.0,0.0,0.0,0.0,0.0,0.0,0.0,0.0,0.0,0.0,0.0,0.0,0.0,0.0,0.0,0.0,0.0,0.0,0.0,0.0,0.0,0.0,0.0,0.0,0.0,0.0392265990376,-9.57129001617,-0.490332484245,0.0,0.0,0.0,0.0,0.0,0.0,0.0,0.0,0.0
1178075400,24566,1644543062923761129,1,0.0,0.0,0.0,0.0,0.0,0.0,0.0,0.0,0.0,0.0,0.0,0.0,0.0,0.0,0.0,0.0,0.0,0.0,0.0,0.0,0.0,0.0,0.0,0.0,0.0,0.0686465501785,-9.62032318115,-0.509945809841,0.0,0.0,0.0,0.0,0.0,0.0,0.0,0.0,0.0
1180056700,24567,1644543062925777674,1,0.0,0.0,0.0,0.0,0.0,0.0,0.0,0.0,0.0,0.0,0.0,0.0,0.0,0.0,0.0,0.0,0.0,0.0,0.0,0.0,0.0,0.0,0.0,0.0,0.0,0.0686465501785,-9.62032318115,-0.549172401428,0.0,0.0,0.0,0.0,0.0,0.0,0.0,0.0,0.0
1182013000,24568,1644543062927794218,1,0.0,0.0,0.0,0.0,0.0,0.0,0.0,0.0,0.0,0.0,0.0,0.0,0.0,0.0,0.0,0.0,0.0,0.0,0.0,0.0,0.0,0.0,0.0,0.0,0.0,0.0784531980753,-9.7478094101,-0.509945809841,0.0,0.0,0.0,0.0,0.0,0.0,0.0,0.0,0.0
1184052100,24569,1644543062929810524,1,0.0,0.0,0.0,0.0,0.0,0.0,0.0,0.0,0.0,0.0,0.0,0.0,0.0,0.0,0.0,0.0,0.0,0.0,0.0,0.0,0.0,0.0,0.0,0.0,0.0,0.0392265990376,-9.70858287811,-0.490332484245,0.0,0.0,0.0,0.0,0.0,0.0,0.0,0.0,0.0
1186185500,24570,1644543062931826830,1,0.0,0.0,0.0,0.0,0.0,0.0,0.0,0.0,0.0,0.0,0.0,0.0,0.0,0.0,0.0,0.0,0.0,0.0,0.0,0.0,0.0,0.0,0.0,0.0,0.0,0.00980664975941,-9.58109664917,-0.470719188452,0.0,0.0,0.0,0.0,0.0,0.0,0.0,0.0,0.0
1188145800,24571,1644543062933843613,1,0.0,0.0,0.0,0.0,0.0,0.0,0.0,0.0,0.0,0.0,0.0,0.0,0.0,0.0,0.0,0.0,0.0,0.0,0.0,0.0,0.0,0.0,0.0,0.0,0.0,0.12748645246,-9.62032318115,-0.529559075832,0.0,0.0,0.0,0.0,0.0,0.0,0.0,0.0,0.0
1190154700,24572,1644543062935859919,1,0.0,0.0,0.0,0.0,0.0,0.0,0.0,0.0,0.0,0.0,0.0,0.0,0.0,0.0,0.0,0.0,0.0,0.0,0.0,0.0,0.0,0.0,0.0,0.0,0.0,0.137293100357,-9.61051654816,-0.490332484245,0.0,0.0,0.0,0.0,0.0,0.0,0.0,0.0,0.0
1192405000,24573,1644543062937876225,1,0.0,0.0,0.0,0.0,0.0,0.0,0.0,0.0,0.0,0.0,0.0,0.0,0.0,0.0,0.0,0.0,0.0,0.0,0.0,0.0,0.0,0.0,0.0,0.0,0.0,0.0392265990376,-9.39477062225,-0.451105892658,0.0,0.0,0.0,0.0,0.0,0.0,0.0,0.0,0.0
1194123300,24574,1644543062939892769,1,0.0,0.0,0.0,0.0,0.0,0.0,0.0,0.0,0.0,0.0,0.0,0.0,0.0,0.0,0.0,0.0,0.0,0.0,0.0,0.0,0.0,0.0,0.0,0.0,0.0,0.0686465501785,-9.43399715424,-0.509945809841,0.0,0.0,0.0,0.0,0.0,0.0,0.0,0.0,0.0
1196117400,24575,1644543062941909075,1,0.0,0.0,0.0,0.0,0.0,0.0,0.0,0.0,0.0,0.0,0.0,0.0,0.0,0.0,0.0,0.0,0.0,0.0,0.0,0.0,0.0,0.0,0.0,0.0,0.0,0.137293100357,-9.5222568512,-0.451105892658,0.0,0.0,0.0,0.0,0.0,0.0,0.0,0.0,0.0
1198056500,24576,1644543062943925619,1,0.0,0.0,0.0,0.0,0.0,0.0,0.0,0.0,0.0,0.0,0.0,0.0,0.0,0.0,0.0,0.0,0.0,0.0,0.0,0.0,0.0,0.0,0.0,0.0,0.0,0.0784531980753,-9.45361042023,-0.509945809841,0.0,0.0,0.0,0.0,0.0,0.0,0.0,0.0,0.0
1200023600,24577,1644543062945942163,1,0.0,0.0,0.0,0.0,0.0,0.0,0.0,0.0,0.0,0.0,0.0,0.0,0.0,0.0,0.0,0.0,0.0,0.0,0.0,0.0,0.0,0.0,0.0,0.0,0.0,0.0392265990376,-9.45361042023,-0.470719188452,0.0,0.0,0.0,0.0,0.0,0.0,0.0,0.0,0.0
1202291400,24578,1644543062947958469,1,0.0,0.0,0.0,0.0,0.0,0.0,0.0,0.0,0.0,0.0,0.0,0.0,0.0,0.0,0.0,0.0,0.0,0.0,0.0,0.0,0.0,0.0,0.0,0.0,0.0,0.0980664938688,-9.61051654816,-0.470719188452,0.0,0.0,0.0,0.0,0.0,0.0,0.0,0.0,0.0
1204093100,24579,1644543062949974775,1,0.0,0.0,0.0,0.0,0.0,0.0,0.0,0.0,0.0,0.0,0.0,0.0,0.0,0.0,0.0,0.0,0.0,0.0,0.0,0.0,0.0,0.0,0.0,0.0,0.0,0.0980664938688,-9.64974308014,-0.451105892658,0.0,0.0,0.0,0.0,0.0,0.0,0.0,0.0,0.0
1206073000,24580,1644543062951991558,1,0.0,0.0,0.0,0.0,0.0,0.0,0.0,0.0,0.0,0.0,0.0,0.0,0.0,0.0,0.0,0.0,0.0,0.0,0.0,0.0,0.0,0.0,0.0,0.0,0.0,0.0392265990376,-9.56148338318,-0.490332484245,0.0,0.0,0.0,0.0,0.0,0.0,0.0,0.0,0.0
1208299400,24581,1644543062954007864,1,0.0,0.0,0.0,0.0,0.0,0.0,0.0,0.0,0.0,0.0,0.0,0.0,0.0,0.0,0.0,0.0,0.0,0.0,0.0,0.0,0.0,0.0,0.0,0.0,0.0,0.0294199492782,-9.64974308014,-0.402072638273,0.0,0.0,0.0,0.0,0.0,0.0,0.0,0.0,0.0
1210051500,24582,1644543062956024408,1,0.0,0.0,0.0,0.0,0.0,0.0,0.0,0.0,0.0,0.0,0.0,0.0,0.0,0.0,0.0,0.0,0.0,0.0,0.0,0.0,0.0,0.0,0.0,0.0,0.0,0.0392265990376,-9.70858287811,-0.421685934067,0.0,0.0,0.0,0.0,0.0,0.0,0.0,0.0,0.0
1212284900,24583,1644543062958040714,1,0.0,0.0,0.0,0.0,0.0,0.0,0.0,0.0,0.0,0.0,0.0,0.0,0.0,0.0,0.0,0.0,0.0,0.0,0.0,0.0,0.0,0.0,0.0,0.0,0.0,0.0980664938688,-9.64974308014,-0.421685934067,0.0,0.0,0.0,0.0,0.0,0.0,0.0,0.0,0.0
1214008400,24584,1644543062960057020,1,0.0,0.0,0.0,0.0,0.0,0.0,0.0,0.0,0.0,0.0,0.0,0.0,0.0,0.0,0.0,0.0,0.0,0.0,0.0,0.0,0.0,0.0,0.0,0.0,0.0,0.0,-9.61051654816,-0.421685934067,0.0,0.0,0.0,0.0,0.0,0.0,0.0,0.0,0.0
1216403100,24585,1644543062962075710,1,0.0,0.0,0.0,0.0,0.0,0.0,0.0,0.0,0.0,0.0,0.0,0.0,0.0,0.0,0.0,0.0,0.0,0.0,0.0,0.0,0.0,0.0,0.0,0.0,0.0,0.0392265990376,-9.58109664917,-0.402072638273,0.0,0.0,0.0,0.0,0.0,0.0,0.0,0.0,0.0
1218822500,24586,1644543062964092016,1,0.0,0.0,0.0,0.0,0.0,0.0,0.0,0.0,0.0,0.0,0.0,0.0,0.0,0.0,0.0,0.0,0.0,0.0,0.0,0.0,0.0,0.0,0.0,0.0,0.0,0.0784531980753,-9.62032318115,-0.421685934067,0.0,0.0,0.0,0.0,0.0,0.0,0.0,0.0,0.0
1220552100,24587,1644543062966108322,1,0.0,0.0,0.0,0.0,0.0,0.0,0.0,0.0,0.0,0.0,0.0,0.0,0.0,0.0,0.0,0.0,0.0,0.0,0.0,0.0,0.0,0.0,0.0,0.0,0.0,0.0294199492782,-9.58109664917,-0.451105892658,0.0,0.0,0.0,0.0,0.0,0.0,0.0,0.0,0.0
1222435600,24588,1644543062968125105,1,0.0,0.0,0.0,0.0,0.0,0.0,0.0,0.0,0.0,0.0,0.0,0.0,0.0,0.0,0.0,0.0,0.0,0.0,0.0,0.0,0.0,0.0,0.0,0.0,0.0,0.0294199492782,-9.53206348419,-0.470719188452,0.0,0.0,0.0,0.0,0.0,0.0,0.0,0.0,0.0
1224454300,24589,1644543062970141411,1,0.0,0.0,0.0,0.0,0.0,0.0,0.0,0.0,0.0,0.0,0.0,0.0,0.0,0.0,0.0,0.0,0.0,0.0,0.0,0.0,0.0,0.0,0.0,0.0,0.0,0.0392265990376,-9.56148338318,-0.421685934067,0.0,0.0,0.0,0.0,0.0,0.0,0.0,0.0,0.0
1226561200,24590,1644543062972157717,1,0.0,0.0,0.0,0.0,0.0,0.0,0.0,0.0,0.0,0.0,0.0,0.0,0.0,0.0,0.0,0.0,0.0,0.0,0.0,0.0,0.0,0.0,0.0,0.0,0.0,0.12748645246,-9.58109664917,-0.421685934067,0.0,0.0,0.0,0.0,0.0,0.0,0.0,0.0,0.0
1228424600,24591,1644543062974174261,1,0.0,0.0,0.0,0.0,0.0,0.0,0.0,0.0,0.0,0.0,0.0,0.0,0.0,0.0,0.0,0.0,0.0,0.0,0.0,0.0,0.0,0.0,0.0,0.0,0.0,0.0980664938688,-9.5222568512,-0.451105892658,0.0,0.0,0.0,0.0,0.0,0.0,0.0,0.0,0.0
1230347800,24592,1644543062976190567,1,0.0,0.0,0.0,0.0,0.0,0.0,0.0,0.0,0.0,0.0,0.0,0.0,0.0,0.0,0.0,0.0,0.0,0.0,0.0,0.0,0.0,0.0,0.0,0.0,0.0,0.0686465501785,-9.49283695221,-0.451105892658,0.0,0.0,0.0,0.0,0.0,0.0,0.0,0.0,0.0
1232326500,24593,1644543062978207111,1,0.0,0.0,0.0,0.0,0.0,0.0,0.0,0.0,0.0,0.0,0.0,0.0,0.0,0.0,0.0,0.0,0.0,0.0,0.0,0.0,0.0,0.0,0.0,0.0,0.0,0.0686465501785,-9.53206348419,-0.451105892658,0.0,0.0,0.0,0.0,0.0,0.0,0.0,0.0,0.0
1234310500,24594,1644543062980223656,1,0.0,0.0,0.0,0.0,0.0,0.0,0.0,0.0,0.0,0.0,0.0,0.0,0.0,0.0,0.0,0.0,0.0,0.0,0.0,0.0,0.0,0.0,0.0,0.0,0.0,0.12748645246,-9.61051654816,-0.402072638273,0.0,0.0,0.0,0.0,0.0,0.0,0.0,0.0,0.0
1236352900,24595,1644543062982239962,1,0.0,0.0,0.0,0.0,0.0,0.0,0.0,0.0,0.0,0.0,0.0,0.0,0.0,0.0,0.0,0.0,0.0,0.0,0.0,0.0,0.0,0.0,0.0,0.0,0.0,0.0980664938688,-9.58109664917,-0.402072638273,0.0,0.0,0.0,0.0,0.0,0.0,0.0,0.0,0.0
1238328900,24596,1644543062984256268,1,0.0,0.0,0.0,0.0,0.0,0.0,0.0,0.0,0.0,0.0,0.0,0.0,0.0,0.0,0.0,0.0,0.0,0.0,0.0,0.0,0.0,0.0,0.0,0.0,0.0,0.0686465501785,-9.61051654816,-0.421685934067,0.0,0.0,0.0,0.0,0.0,0.0,0.0,0.0,0.0
1240342000,24597,1644543062986273050,1,0.0,0.0,0.0,0.0,0.0,0.0,0.0,0.0,0.0,0.0,0.0,0.0,0.0,0.0,0.0,0.0,0.0,0.0,0.0,0.0,0.0,0.0,0.0,0.0,0.0,0.0784531980753,-9.64974308014,-0.470719188452,0.0,0.0,0.0,0.0,0.0,0.0,0.0,0.0,0.0
1242306400,24598,1644543062988289356,1,0.0,0.0,0.0,0.0,0.0,0.0,0.0,0.0,0.0,0.0,0.0,0.0,0.0,0.0,0.0,0.0,0.0,0.0,0.0,0.0,0.0,0.0,0.0,0.0,0.0,0.12748645246,-9.67916297913,-0.509945809841,0.0,0.0,0.0,0.0,0.0,0.0,0.0,0.0,0.0
1244416800,24599,1644543062990305901,1,0.0,0.0,0.0,0.0,0.0,0.0,0.0,0.0,0.0,0.0,0.0,0.0,0.0,0.0,0.0,0.0,0.0,0.0,0.0,0.0,0.0,0.0,0.0,0.0,0.0,0.0784531980753,-9.58109664917,-0.509945809841,0.0,0.0,0.0,0.0,0.0,0.0,0.0,0.0,0.0
1246507600,24600,1644543062992322206,1,0.0,0.0,0.0,0.0,0.0,0.0,0.0,0.0,0.0,0.0,0.0,0.0,0.0,0.0,0.0,0.0,0.0,0.0,0.0,0.0,0.0,0.0,0.0,0.0,0.0,0.12748645246,-9.58109664917,-0.451105892658,0.0,0.0,0.0,0.0,0.0,0.0,0.0,0.0,0.0
1248850300,24601,1644543062994338512,1,0.0,0.0,0.0,0.0,0.0,0.0,0.0,0.0,0.0,0.0,0.0,0.0,0.0,0.0,0.0,0.0,0.0,0.0,0.0,0.0,0.0,0.0,0.0,0.0,0.0,0.0980664938688,-9.64974308014,-0.509945809841,0.0,0.0,0.0,0.0,0.0,0.0,0.0,0.0,0.0
1250499700,24602,1644543062996355295,1,0.0,0.0,0.0,0.0,0.0,0.0,0.0,0.0,0.0,0.0,0.0,0.0,0.0,0.0,0.0,0.0,0.0,0.0,0.0,0.0,0.0,0.0,0.0,0.0,0.0,0.0784531980753,-9.61051654816,-0.529559075832,0.0,0.0,0.0,0.0,0.0,0.0,0.0,0.0,0.0
1252896200,24603,1644543062998371601,1,0.0,0.0,0.0,0.0,0.0,0.0,0.0,0.0,0.0,0.0,0.0,0.0,0.0,0.0,0.0,0.0,0.0,0.0,0.0,0.0,0.0,0.0,0.0,0.0,0.0,0.0784531980753,-9.57129001617,-0.529559075832,0.0,0.0,0.0,0.0,0.0,0.0,0.0,0.0,0.0
1254648800,24604,1644543063000387907,1,0.0,0.0,0.0,0.0,0.0,0.0,0.0,0.0,0.0,0.0,0.0,0.0,0.0,0.0,0.0,0.0,0.0,0.0,0.0,0.0,0.0,0.0,0.0,0.0,0.0,0.0980664938688,-9.56148338318,-0.451105892658,0.0,0.0,0.0,0.0,0.0,0.0,0.0,0.0,0.0
1256609200,24605,1644543063002404451,1,0.0,0.0,0.0,0.0,0.0,0.0,0.0,0.0,0.0,0.0,0.0,0.0,0.0,0.0,0.0,0.0,0.0,0.0,0.0,0.0,0.0,0.0,0.0,0.0,0.0,0.0980664938688,-9.58109664917,-0.558979034424,0.0,0.0,0.0,0.0,0.0,0.0,0.0,0.0,0.0
1258824300,24606,1644543063004420996,1,0.0,0.0,0.0,0.0,0.0,0.0,0.0,0.0,0.0,0.0,0.0,0.0,0.0,0.0,0.0,0.0,0.0,0.0,0.0,0.0,0.0,0.0,0.0,0.0,0.0,0.137293100357,-9.56148338318,-0.57859236002,0.0,0.0,0.0,0.0,0.0,0.0,0.0,0.0,0.0
1260536200,24607,1644543063006437302,1,0.0,0.0,0.0,0.0,0.0,0.0,0.0,0.0,0.0,0.0,0.0,0.0,0.0,0.0,0.0,0.0,0.0,0.0,0.0,0.0,0.0,0.0,0.0,0.0,0.0,0.166713044047,-9.56148338318,-0.549172401428,0.0,0.0,0.0,0.0,0.0,0.0,0.0,0.0,0.0
1262986700,24608,1644543063008453846,1,0.0,0.0,0.0,0.0,0.0,0.0,0.0,0.0,0.0,0.0,0.0,0.0,0.0,0.0,0.0,0.0,0.0,0.0,0.0,0.0,0.0,0.0,0.0,0.0,0.0,0.137293100357,-9.53206348419,-0.529559075832,0.0,0.0,0.0,0.0,0.0,0.0,0.0,0.0,0.0
1265053800,24609,1644543063010470152,1,0.0,0.0,0.0,0.0,0.0,0.0,0.0,0.0,0.0,0.0,0.0,0.0,0.0,0.0,0.0,0.0,0.0,0.0,0.0,0.0,0.0,0.0,0.0,0.0,0.0,0.137293100357,-9.64974308014,-0.549172401428,0.0,0.0,0.0,0.0,0.0,0.0,0.0,0.0,0.0
1266617000,24610,1644543063012486458,1,0.0,0.0,0.0,0.0,0.0,0.0,0.0,0.0,0.0,0.0,0.0,0.0,0.0,0.0,0.0,0.0,0.0,0.0,0.0,0.0,0.0,0.0,0.0,0.0,0.0,0.166713044047,-9.64974308014,-0.57859236002,0.0,0.0,0.0,0.0,0.0,0.0,0.0,0.0,0.0
1268550500,24611,1644543063014503002,1,0.0,0.0,0.0,0.0,0.0,0.0,0.0,0.0,0.0,0.0,0.0,0.0,0.0,0.0,0.0,0.0,0.0,0.0,0.0,0.0,0.0,0.0,0.0,0.0,0.0,0.196132987738,-10.1106557846,-0.274586200714,0.0,0.0,0.0,0.0,0.0,0.0,0.0,0.0,0.0
1270501500,24612,1644543063016519547,1,0.0,0.0,0.0,0.0,0.0,0.0,0.0,0.0,0.0,0.0,0.0,0.0,0.0,0.0,0.0,0.0,0.0,0.0,0.0,0.0,0.0,0.0,0.0,0.0,0.0,0.00980664975941,-9.42419052124,-1.04931151867,0.0,0.0,0.0,0.0,0.0,0.0,0.0,0.0,0.0
1272787900,24613,1644543063018535852,1,0.0,0.0,0.0,0.0,0.0,0.0,0.0,0.0,0.0,0.0,0.0,0.0,0.0,0.0,0.0,0.0,0.0,0.0,0.0,0.0,0.0,0.0,0.0,0.0,0.0,0.0784531980753,-9.34573745728,-0.529559075832,0.0,0.0,0.0,0.0,0.0,0.0,0.0,0.0,0.0
1274586900,24614,1644543063020552158,1,0.0,0.0,0.0,0.0,0.0,0.0,0.0,0.0,0.0,0.0,0.0,0.0,0.0,0.0,0.0,0.0,0.0,0.0,0.0,0.0,0.0,0.0,0.0,0.0,0.0,0.402072638273,-9.8949098587,-0.549172401428,0.0,0.0,0.0,0.0,0.0,0.0,0.0,0.0,0.0
1276904900,24615,1644543063022568941,1,0.0,0.0,0.0,0.0,0.0,0.0,0.0,0.0,0.0,0.0,0.0,0.0,0.0,0.0,0.0,0.0,0.0,0.0,0.0,0.0,0.0,0.0,0.0,0.0,0.0,0.264779537916,-9.66935634613,-0.637432217598,0.0,0.0,0.0,0.0,0.0,0.0,0.0,0.0,0.0
1278915300,24616,1644543063024583340,1,0.0,0.0,0.0,0.0,0.0,0.0,0.0,0.0,0.0,0.0,0.0,0.0,0.0,0.0,0.0,0.0,0.0,0.0,0.0,0.0,0.0,0.0,0.0,0.0,0.0,-0.245166242123,-9.31631755829,-0.627625584602,0.0,0.0,0.0,0.0,0.0,0.0,0.0,0.0,0.0
1280811100,24617,1644543063026601553,1,0.0,0.0,0.0,0.0,0.0,0.0,0.0,0.0,0.0,0.0,0.0,0.0,0.0,0.0,0.0,0.0,0.0,0.0,0.0,0.0,0.0,0.0,0.0,0.0,0.0,-0.0686465501785,-9.61051654816,-0.637432217598,0.0,0.0,0.0,0.0,0.0,0.0,0.0,0.0,0.0
1282880000,24618,1644543063028618097,1,0.0,0.0,0.0,0.0,0.0,0.0,0.0,0.0,0.0,0.0,0.0,0.0,0.0,0.0,0.0,0.0,0.0,0.0,0.0,0.0,0.0,0.0,0.0,0.0,0.0,0.313812792301,-9.64974308014,-0.696272134781,0.0,0.0,0.0,0.0,0.0,0.0,0.0,0.0,0.0
1285207500,24619,1644543063030634403,1,0.0,0.0,0.0,0.0,0.0,0.0,0.0,0.0,0.0,0.0,0.0,0.0,0.0,0.0,0.0,0.0,0.0,0.0,0.0,0.0,0.0,0.0,0.0,0.0,0.0,0.166713044047,-9.35554409027,-0.57859236002,0.0,0.0,0.0,0.0,0.0,0.0,0.0,0.0,0.0
1286930600,24620,1644543063032650948,1,0.0,0.0,0.0,0.0,0.0,0.0,0.0,0.0,0.0,0.0,0.0,0.0,0.0,0.0,0.0,0.0,0.0,0.0,0.0,0.0,0.0,0.0,0.0,0.0,0.0,-0.0686465501785,-9.48303031921,-0.558979034424,0.0,0.0,0.0,0.0,0.0,0.0,0.0,0.0,0.0
1288808100,24621,1644543063034667492,1,0.0,0.0,0.0,0.0,0.0,0.0,0.0,0.0,0.0,0.0,0.0,0.0,0.0,0.0,0.0,0.0,0.0,0.0,0.0,0.0,0.0,0.0,0.0,0.0,0.0,0.12748645246,-9.66935634613,-0.598205626011,0.0,0.0,0.0,0.0,0.0,0.0,0.0,0.0,0.0
1290837200,24622,1644543063036683798,1,0.0,0.0,0.0,0.0,0.0,0.0,0.0,0.0,0.0,0.0,0.0,0.0,0.0,0.0,0.0,0.0,0.0,0.0,0.0,0.0,0.0,0.0,0.0,0.0,0.0,0.245166242123,-9.56148338318,-0.57859236002,0.0,0.0,0.0,0.0,0.0,0.0,0.0,0.0,0.0
1292905900,24623,1644543063038700104,1,0.0,0.0,0.0,0.0,0.0,0.0,0.0,0.0,0.0,0.0,0.0,0.0,0.0,0.0,0.0,0.0,0.0,0.0,0.0,0.0,0.0,0.0,0.0,0.0,0.0,0.12748645246,-9.56148338318,-0.509945809841,0.0,0.0,0.0,0.0,0.0,0.0,0.0,0.0,0.0
1295054100,24624,1644543063040716887,1,0.0,0.0,0.0,0.0,0.0,0.0,0.0,0.0,0.0,0.0,0.0,0.0,0.0,0.0,0.0,0.0,0.0,0.0,0.0,0.0,0.0,0.0,0.0,0.0,0.0,0.0686465501785,-9.70858287811,-0.57859236002,0.0,0.0,0.0,0.0,0.0,0.0,0.0,0.0,0.0
1296817900,24625,1644543063042733192,1,0.0,0.0,0.0,0.0,0.0,0.0,0.0,0.0,0.0,0.0,0.0,0.0,0.0,0.0,0.0,0.0,0.0,0.0,0.0,0.0,0.0,0.0,0.0,0.0,0.0,0.0980664938688,-9.70858287811,-0.598205626011,0.0,0.0,0.0,0.0,0.0,0.0,0.0,0.0,0.0
1298789000,24626,1644543063044749498,1,0.0,0.0,0.0,0.0,0.0,0.0,0.0,0.0,0.0,0.0,0.0,0.0,0.0,0.0,0.0,0.0,0.0,0.0,0.0,0.0,0.0,0.0,0.0,0.0,0.0,0.137293100357,-9.58109664917,-0.549172401428,0.0,0.0,0.0,0.0,0.0,0.0,0.0,0.0,0.0
1300753700,24627,1644543063046766043,1,0.0,0.0,0.0,0.0,0.0,0.0,0.0,0.0,0.0,0.0,0.0,0.0,0.0,0.0,0.0,0.0,0.0,0.0,0.0,0.0,0.0,0.0,0.0,0.0,0.0,0.0392265990376,-9.61051654816,-0.529559075832,0.0,0.0,0.0,0.0,0.0,0.0,0.0,0.0,0.0
1302787200,24628,1644543063048782587,1,0.0,0.0,0.0,0.0,0.0,0.0,0.0,0.0,0.0,0.0,0.0,0.0,0.0,0.0,0.0,0.0,0.0,0.0,0.0,0.0,0.0,0.0,0.0,0.0,0.0,0.0686465501785,-9.64974308014,-0.558979034424,0.0,0.0,0.0,0.0,0.0,0.0,0.0,0.0,0.0
1305032800,24629,1644543063050796986,1,0.0,0.0,0.0,0.0,0.0,0.0,0.0,0.0,0.0,0.0,0.0,0.0,0.0,0.0,0.0,0.0,0.0,0.0,0.0,0.0,0.0,0.0,0.0,0.0,0.0,0.0,-9.53206348419,-0.549172401428,0.0,0.0,0.0,0.0,0.0,0.0,0.0,0.0,0.0
1306932300,24630,1644543063052815437,1,0.0,0.0,0.0,0.0,0.0,0.0,0.0,0.0,0.0,0.0,0.0,0.0,0.0,0.0,0.0,0.0,0.0,0.0,0.0,0.0,0.0,0.0,0.0,0.0,0.0,0.0686465501785,-9.57129001617,-0.529559075832,0.0,0.0,0.0,0.0,0.0,0.0,0.0,0.0,0.0
1308765400,24631,1644543063054831743,1,0.0,0.0,0.0,0.0,0.0,0.0,0.0,0.0,0.0,0.0,0.0,0.0,0.0,0.0,0.0,0.0,0.0,0.0,0.0,0.0,0.0,0.0,0.0,0.0,0.0,0.0784531980753,-9.53206348419,-0.509945809841,0.0,0.0,0.0,0.0,0.0,0.0,0.0,0.0,0.0
1310795400,24632,1644543063056848049,1,0.0,0.0,0.0,0.0,0.0,0.0,0.0,0.0,0.0,0.0,0.0,0.0,0.0,0.0,0.0,0.0,0.0,0.0,0.0,0.0,0.0,0.0,0.0,0.0,0.0,0.0784531980753,-9.58109664917,-0.558979034424,0.0,0.0,0.0,0.0,0.0,0.0,0.0,0.0,0.0
1312874300,24633,1644543063058862448,1,0.0,0.0,0.0,0.0,0.0,0.0,0.0,0.0,0.0,0.0,0.0,0.0,0.0,0.0,0.0,0.0,0.0,0.0,0.0,0.0,0.0,0.0,0.0,0.0,0.0,0.0392265990376,-9.49283695221,-0.490332484245,0.0,0.0,0.0,0.0,0.0,0.0,0.0,0.0,0.0
1315012300,24634,1644543063060881138,1,0.0,0.0,0.0,0.0,0.0,0.0,0.0,0.0,0.0,0.0,0.0,0.0,0.0,0.0,0.0,0.0,0.0,0.0,0.0,0.0,0.0,0.0,0.0,0.0,0.0,0.0784531980753,-9.56148338318,-0.529559075832,0.0,0.0,0.0,0.0,0.0,0.0,0.0,0.0,0.0
1316803800,24635,1644543063062897444,1,0.0,0.0,0.0,0.0,0.0,0.0,0.0,0.0,0.0,0.0,0.0,0.0,0.0,0.0,0.0,0.0,0.0,0.0,0.0,0.0,0.0,0.0,0.0,0.0,0.0,0.137293100357,-9.58109664917,-0.549172401428,0.0,0.0,0.0,0.0,0.0,0.0,0.0,0.0,0.0
1318791300,24636,1644543063064911842,1,0.0,0.0,0.0,0.0,0.0,0.0,0.0,0.0,0.0,0.0,0.0,0.0,0.0,0.0,0.0,0.0,0.0,0.0,0.0,0.0,0.0,0.0,0.0,0.0,0.0,0.0686465501785,-9.62032318115,-0.470719188452,0.0,0.0,0.0,0.0,0.0,0.0,0.0,0.0,0.0
1321022500,24637,1644543063066928387,1,0.0,0.0,0.0,0.0,0.0,0.0,0.0,0.0,0.0,0.0,0.0,0.0,0.0,0.0,0.0,0.0,0.0,0.0,0.0,0.0,0.0,0.0,0.0,0.0,0.0,0.0,-9.56148338318,-0.490332484245,0.0,0.0,0.0,0.0,0.0,0.0,0.0,0.0,0.0
1323138800,24638,1644543063068944931,1,0.0,0.0,0.0,0.0,0.0,0.0,0.0,0.0,0.0,0.0,0.0,0.0,0.0,0.0,0.0,0.0,0.0,0.0,0.0,0.0,0.0,0.0,0.0,0.0,0.0,0.12748645246,-9.67916297913,-0.549172401428,0.0,0.0,0.0,0.0,0.0,0.0,0.0,0.0,0.0
1325136600,24639,1644543063070961237,1,0.0,0.0,0.0,0.0,0.0,0.0,0.0,0.0,0.0,0.0,0.0,0.0,0.0,0.0,0.0,0.0,0.0,0.0,0.0,0.0,0.0,0.0,0.0,0.0,0.0,0.166713044047,-9.75761604309,-0.509945809841,0.0,0.0,0.0,0.0,0.0,0.0,0.0,0.0,0.0
1327030700,24640,1644543063072977781,1,0.0,0.0,0.0,0.0,0.0,0.0,0.0,0.0,0.0,0.0,0.0,0.0,0.0,0.0,0.0,0.0,0.0,0.0,0.0,0.0,0.0,0.0,0.0,0.0,0.0,0.0980664938688,-9.75761604309,-0.490332484245,0.0,0.0,0.0,0.0,0.0,0.0,0.0,0.0,0.0
1329028200,24641,1644543063074994087,1,0.0,0.0,0.0,0.0,0.0,0.0,0.0,0.0,0.0,0.0,0.0,0.0,0.0,0.0,0.0,0.0,0.0,0.0,0.0,0.0,0.0,0.0,0.0,0.0,0.0,0.0980664938688,-9.75761604309,-0.57859236002,0.0,0.0,0.0,0.0,0.0,0.0,0.0,0.0,0.0
1331013800,24642,1644543063077010393,1,0.0,0.0,0.0,0.0,0.0,0.0,0.0,0.0,0.0,0.0,0.0,0.0,0.0,0.0,0.0,0.0,0.0,0.0,0.0,0.0,0.0,0.0,0.0,0.0,0.0,0.225552946329,-9.88510322571,-0.558979034424,0.0,0.0,0.0,0.0,0.0,0.0,0.0,0.0,0.0
1333121700,24643,1644543063079027176,1,0.0,0.0,0.0,0.0,0.0,0.0,0.0,0.0,0.0,0.0,0.0,0.0,0.0,0.0,0.0,0.0,0.0,0.0,0.0,0.0,0.0,0.0,0.0,0.0,0.0,0.137293100357,-9.62032318115,-0.470719188452,0.0,0.0,0.0,0.0,0.0,0.0,0.0,0.0,0.0
1335244000,24644,1644543063081043482,1,0.0,0.0,0.0,0.0,0.0,0.0,0.0,0.0,0.0,0.0,0.0,0.0,0.0,0.0,0.0,0.0,0.0,0.0,0.0,0.0,0.0,0.0,0.0,0.0,0.0,0.0686465501785,-9.39477062225,-0.451105892658,0.0,0.0,0.0,0.0,0.0,0.0,0.0,0.0,0.0
1337390700,24645,1644543063083059788,1,0.0,0.0,0.0,0.0,0.0,0.0,0.0,0.0,0.0,0.0,0.0,0.0,0.0,0.0,0.0,0.0,0.0,0.0,0.0,0.0,0.0,0.0,0.0,0.0,0.0,0.12748645246,-9.2868976593,-0.421685934067,0.0,0.0,0.0,0.0,0.0,0.0,0.0,0.0,0.0
1339278500,24646,1644543063085076332,1,0.0,0.0,0.0,0.0,0.0,0.0,0.0,0.0,0.0,0.0,0.0,0.0,0.0,0.0,0.0,0.0,0.0,0.0,0.0,0.0,0.0,0.0,0.0,0.0,0.0,0.274586200714,-9.43399715424,-0.402072638273,0.0,0.0,0.0,0.0,0.0,0.0,0.0,0.0,0.0
1341485400,24647,1644543063087092876,1,0.0,0.0,0.0,0.0,0.0,0.0,0.0,0.0,0.0,0.0,0.0,0.0,0.0,0.0,0.0,0.0,0.0,0.0,0.0,0.0,0.0,0.0,0.0,0.0,0.0,0.0686465501785,-9.15941047668,-0.490332484245,0.0,0.0,0.0,0.0,0.0,0.0,0.0,0.0,0.0
1343080000,24648,1644543063089109182,1,0.0,0.0,0.0,0.0,0.0,0.0,0.0,0.0,0.0,0.0,0.0,0.0,0.0,0.0,0.0,0.0,0.0,0.0,0.0,0.0,0.0,0.0,0.0,0.0,0.0,0.0294199492782,-9.20844459534,-0.549172401428,0.0,0.0,0.0,0.0,0.0,0.0,0.0,0.0,0.0
1345364200,24649,1644543063091123581,1,0.0,0.0,0.0,0.0,0.0,0.0,0.0,0.0,0.0,0.0,0.0,0.0,0.0,0.0,0.0,0.0,0.0,0.0,0.0,0.0,0.0,0.0,0.0,0.0,0.0,0.176519691944,-9.5222568512,-0.509945809841,0.0,0.0,0.0,0.0,0.0,0.0,0.0,0.0,0.0
1347143700,24650,1644543063093140125,1,0.0,0.0,0.0,0.0,0.0,0.0,0.0,0.0,0.0,0.0,0.0,0.0,0.0,0.0,0.0,0.0,0.0,0.0,0.0,0.0,0.0,0.0,0.0,0.0,0.0,0.225552946329,-9.64974308014,-0.402072638273,0.0,0.0,0.0,0.0,0.0,0.0,0.0,0.0,0.0
1349063600,24651,1644543063095156431,1,0.0,0.0,0.0,0.0,0.0,0.0,0.0,0.0,0.0,0.0,0.0,0.0,0.0,0.0,0.0,0.0,0.0,0.0,0.0,0.0,0.0,0.0,0.0,0.0,0.0,-0.00980664975941,-9.5222568512,-0.451105892658,0.0,0.0,0.0,0.0,0.0,0.0,0.0,0.0,0.0
1351094700,24652,1644543063097172737,1,0.0,0.0,0.0,0.0,0.0,0.0,0.0,0.0,0.0,0.0,0.0,0.0,0.0,0.0,0.0,0.0,0.0,0.0,0.0,0.0,0.0,0.0,0.0,0.0,0.0,0.0784531980753,-9.81645679474,-0.490332484245,0.0,0.0,0.0,0.0,0.0,0.0,0.0,0.0,0.0
1353102000,24653,1644543063099189520,1,0.0,0.0,0.0,0.0,0.0,0.0,0.0,0.0,0.0,0.0,0.0,0.0,0.0,0.0,0.0,0.0,0.0,0.0,0.0,0.0,0.0,0.0,0.0,0.0,0.0,0.176519691944,-9.99297618866,-0.470719188452,0.0,0.0,0.0,0.0,0.0,0.0,0.0,0.0,0.0
1355216200,24654,1644543063101205826,1,0.0,0.0,0.0,0.0,0.0,0.0,0.0,0.0,0.0,0.0,0.0,0.0,0.0,0.0,0.0,0.0,0.0,0.0,0.0,0.0,0.0,0.0,0.0,0.0,0.0,0.0784531980753,-9.86548995972,-0.490332484245,0.0,0.0,0.0,0.0,0.0,0.0,0.0,0.0,0.0
1357049800,24655,1644543063103220224,1,0.0,0.0,0.0,0.0,0.0,0.0,0.0,0.0,0.0,0.0,0.0,0.0,0.0,0.0,0.0,0.0,0.0,0.0,0.0,0.0,0.0,0.0,0.0,0.0,0.0,-0.00980664975941,-9.80665016174,-0.509945809841,0.0,0.0,0.0,0.0,0.0,0.0,0.0,0.0,0.0
1359045500,24656,1644543063105238438,1,0.0,0.0,0.0,0.0,0.0,0.0,0.0,0.0,0.0,0.0,0.0,0.0,0.0,0.0,0.0,0.0,0.0,0.0,0.0,0.0,0.0,0.0,0.0,0.0,0.0,0.0392265990376,-9.94394302368,-0.549172401428,0.0,0.0,0.0,0.0,0.0,0.0,0.0,0.0,0.0
1361035000,24657,1644543063107255220,1,0.0,0.0,0.0,0.0,0.0,0.0,0.0,0.0,0.0,0.0,0.0,0.0,0.0,0.0,0.0,0.0,0.0,0.0,0.0,0.0,0.0,0.0,0.0,0.0,0.0,0.0980664938688,-9.88510322571,-0.549172401428,0.0,0.0,0.0,0.0,0.0,0.0,0.0,0.0,0.0
1363249800,24658,1644543063109269619,1,0.0,0.0,0.0,0.0,0.0,0.0,0.0,0.0,0.0,0.0,0.0,0.0,0.0,0.0,0.0,0.0,0.0,0.0,0.0,0.0,0.0,0.0,0.0,0.0,0.0,0.0,-9.66935634613,-0.470719188452,0.0,0.0,0.0,0.0,0.0,0.0,0.0,0.0,0.0
1365317600,24659,1644543063111287832,1,0.0,0.0,0.0,0.0,0.0,0.0,0.0,0.0,0.0,0.0,0.0,0.0,0.0,0.0,0.0,0.0,0.0,0.0,0.0,0.0,0.0,0.0,0.0,0.0,0.0,0.0392265990376,-9.57129001617,-0.451105892658,0.0,0.0,0.0,0.0,0.0,0.0,0.0,0.0,0.0
1367312800,24660,1644543063113304377,1,0.0,0.0,0.0,0.0,0.0,0.0,0.0,0.0,0.0,0.0,0.0,0.0,0.0,0.0,0.0,0.0,0.0,0.0,0.0,0.0,0.0,0.0,0.0,0.0,0.0,0.137293100357,-9.57129001617,-0.421685934067,0.0,0.0,0.0,0.0,0.0,0.0,0.0,0.0,0.0
1369627700,24661,1644543063115318775,1,0.0,0.0,0.0,0.0,0.0,0.0,0.0,0.0,0.0,0.0,0.0,0.0,0.0,0.0,0.0,0.0,0.0,0.0,0.0,0.0,0.0,0.0,0.0,0.0,0.0,0.12748645246,-9.53206348419,-0.470719188452,0.0,0.0,0.0,0.0,0.0,0.0,0.0,0.0,0.0
1371636600,24662,1644543063117335320,1,0.0,0.0,0.0,0.0,0.0,0.0,0.0,0.0,0.0,0.0,0.0,0.0,0.0,0.0,0.0,0.0,0.0,0.0,0.0,0.0,0.0,0.0,0.0,0.0,0.0,0.0784531980753,-9.42419052124,-0.490332484245,0.0,0.0,0.0,0.0,0.0,0.0,0.0,0.0,0.0
1373595600,24663,1644543063119351625,1,0.0,0.0,0.0,0.0,0.0,0.0,0.0,0.0,0.0,0.0,0.0,0.0,0.0,0.0,0.0,0.0,0.0,0.0,0.0,0.0,0.0,0.0,0.0,0.0,0.0,0.0980664938688,-9.39477062225,-0.451105892658,0.0,0.0,0.0,0.0,0.0,0.0,0.0,0.0,0.0
1375454100,24664,1644543063121368170,1,0.0,0.0,0.0,0.0,0.0,0.0,0.0,0.0,0.0,0.0,0.0,0.0,0.0,0.0,0.0,0.0,0.0,0.0,0.0,0.0,0.0,0.0,0.0,0.0,0.0,0.176519691944,-9.39477062225,-0.421685934067,0.0,0.0,0.0,0.0,0.0,0.0,0.0,0.0,0.0
1377384200,24665,1644543063123384476,1,0.0,0.0,0.0,0.0,0.0,0.0,0.0,0.0,0.0,0.0,0.0,0.0,0.0,0.0,0.0,0.0,0.0,0.0,0.0,0.0,0.0,0.0,0.0,0.0,0.0,0.137293100357,-9.39477062225,-0.421685934067,0.0,0.0,0.0,0.0,0.0,0.0,0.0,0.0,0.0
1379250700,24666,1644543063125400782,1,0.0,0.0,0.0,0.0,0.0,0.0,0.0,0.0,0.0,0.0,0.0,0.0,0.0,0.0,0.0,0.0,0.0,0.0,0.0,0.0,0.0,0.0,0.0,0.0,0.0,0.0980664938688,-9.49283695221,-0.451105892658,0.0,0.0,0.0,0.0,0.0,0.0,0.0,0.0,0.0
1381283300,24667,1644543063127417564,1,0.0,0.0,0.0,0.0,0.0,0.0,0.0,0.0,0.0,0.0,0.0,0.0,0.0,0.0,0.0,0.0,0.0,0.0,0.0,0.0,0.0,0.0,0.0,0.0,0.0,0.0980664938688,-9.53206348419,-0.529559075832,0.0,0.0,0.0,0.0,0.0,0.0,0.0,0.0,0.0
1383922100,24668,1644543063129433870,1,0.0,0.0,0.0,0.0,0.0,0.0,0.0,0.0,0.0,0.0,0.0,0.0,0.0,0.0,0.0,0.0,0.0,0.0,0.0,0.0,0.0,0.0,0.0,0.0,0.0,0.166713044047,-9.61051654816,-0.421685934067,0.0,0.0,0.0,0.0,0.0,0.0,0.0,0.0,0.0
1385634300,24669,1644543063131450176,1,0.0,0.0,0.0,0.0,0.0,0.0,0.0,0.0,0.0,0.0,0.0,0.0,0.0,0.0,0.0,0.0,0.0,0.0,0.0,0.0,0.0,0.0,0.0,0.0,0.0,0.166713044047,-9.64974308014,-0.402072638273,0.0,0.0,0.0,0.0,0.0,0.0,0.0,0.0,0.0
1387294800,24670,1644543063133466482,1,0.0,0.0,0.0,0.0,0.0,0.0,0.0,0.0,0.0,0.0,0.0,0.0,0.0,0.0,0.0,0.0,0.0,0.0,0.0,0.0,0.0,0.0,0.0,0.0,0.0,0.0686465501785,-9.67916297913,-0.402072638273,0.0,0.0,0.0,0.0,0.0,0.0,0.0,0.0,0.0
1389561300,24671,1644543063135483265,1,0.0,0.0,0.0,0.0,0.0,0.0,0.0,0.0,0.0,0.0,0.0,0.0,0.0,0.0,0.0,0.0,0.0,0.0,0.0,0.0,0.0,0.0,0.0,0.0,0.0,0.0686465501785,-9.66935634613,-0.529559075832,0.0,0.0,0.0,0.0,0.0,0.0,0.0,0.0,0.0
1391634200,24672,1644543063137497663,1,0.0,0.0,0.0,0.0,0.0,0.0,0.0,0.0,0.0,0.0,0.0,0.0,0.0,0.0,0.0,0.0,0.0,0.0,0.0,0.0,0.0,0.0,0.0,0.0,0.0,0.12748645246,-9.71838951111,-0.470719188452,0.0,0.0,0.0,0.0,0.0,0.0,0.0,0.0,0.0
1393590500,24673,1644543063139513969,1,0.0,0.0,0.0,0.0,0.0,0.0,0.0,0.0,0.0,0.0,0.0,0.0,0.0,0.0,0.0,0.0,0.0,0.0,0.0,0.0,0.0,0.0,0.0,0.0,0.0,0.0784531980753,-9.64974308014,-0.549172401428,0.0,0.0,0.0,0.0,0.0,0.0,0.0,0.0,0.0
1395639200,24674,1644543063141530275,1,0.0,0.0,0.0,0.0,0.0,0.0,0.0,0.0,0.0,0.0,0.0,0.0,0.0,0.0,0.0,0.0,0.0,0.0,0.0,0.0,0.0,0.0,0.0,0.0,0.0,0.0392265990376,-9.57129001617,-0.451105892658,0.0,0.0,0.0,0.0,0.0,0.0,0.0,0.0,0.0
1397602700,24675,1644543063143546820,1,0.0,0.0,0.0,0.0,0.0,0.0,0.0,0.0,0.0,0.0,0.0,0.0,0.0,0.0,0.0,0.0,0.0,0.0,0.0,0.0,0.0,0.0,0.0,0.0,0.0,0.0686465501785,-9.58109664917,-0.549172401428,0.0,0.0,0.0,0.0,0.0,0.0,0.0,0.0,0.0
1399577100,24676,1644543063145563126,1,0.0,0.0,0.0,0.0,0.0,0.0,0.0,0.0,0.0,0.0,0.0,0.0,0.0,0.0,0.0,0.0,0.0,0.0,0.0,0.0,0.0,0.0,0.0,0.0,0.0,0.12748645246,-9.64974308014,-0.549172401428,0.0,0.0,0.0,0.0,0.0,0.0,0.0,0.0,0.0
1401833900,24677,1644543063147579670,1,0.0,0.0,0.0,0.0,0.0,0.0,0.0,0.0,0.0,0.0,0.0,0.0,0.0,0.0,0.0,0.0,0.0,0.0,0.0,0.0,0.0,0.0,0.0,0.0,0.0,0.12748645246,-9.64974308014,-0.509945809841,0.0,0.0,0.0,0.0,0.0,0.0,0.0,0.0,0.0
1403559400,24678,1644543063149594069,1,0.0,0.0,0.0,0.0,0.0,0.0,0.0,0.0,0.0,0.0,0.0,0.0,0.0,0.0,0.0,0.0,0.0,0.0,0.0,0.0,0.0,0.0,0.0,0.0,0.0,0.0784531980753,-9.57129001617,-0.470719188452,0.0,0.0,0.0,0.0,0.0,0.0,0.0,0.0,0.0
1405618900,24679,1644543063151610613,1,0.0,0.0,0.0,0.0,0.0,0.0,0.0,0.0,0.0,0.0,0.0,0.0,0.0,0.0,0.0,0.0,0.0,0.0,0.0,0.0,0.0,0.0,0.0,0.0,0.0,0.0784531980753,-9.62032318115,-0.490332484245,0.0,0.0,0.0,0.0,0.0,0.0,0.0,0.0,0.0
1407878300,24680,1644543063153626919,1,0.0,0.0,0.0,0.0,0.0,0.0,0.0,0.0,0.0,0.0,0.0,0.0,0.0,0.0,0.0,0.0,0.0,0.0,0.0,0.0,0.0,0.0,0.0,0.0,0.0,0.0980664938688,-9.62032318115,-0.509945809841,0.0,0.0,0.0,0.0,0.0,0.0,0.0,0.0,0.0
1409581200,24681,1644543063155643225,1,0.0,0.0,0.0,0.0,0.0,0.0,0.0,0.0,0.0,0.0,0.0,0.0,0.0,0.0,0.0,0.0,0.0,0.0,0.0,0.0,0.0,0.0,0.0,0.0,0.0,0.137293100357,-9.57129001617,-0.509945809841,0.0,0.0,0.0,0.0,0.0,0.0,0.0,0.0,0.0
1411585600,24682,1644543063157660007,1,0.0,0.0,0.0,0.0,0.0,0.0,0.0,0.0,0.0,0.0,0.0,0.0,0.0,0.0,0.0,0.0,0.0,0.0,0.0,0.0,0.0,0.0,0.0,0.0,0.0,0.0784531980753,-9.56148338318,-0.529559075832,0.0,0.0,0.0,0.0,0.0,0.0,0.0,0.0,0.0
1413876100,24683,1644543063159676313,1,0.0,0.0,0.0,0.0,0.0,0.0,0.0,0.0,0.0,0.0,0.0,0.0,0.0,0.0,0.0,0.0,0.0,0.0,0.0,0.0,0.0,0.0,0.0,0.0,0.0,0.0980664938688,-9.57129001617,-0.470719188452,0.0,0.0,0.0,0.0,0.0,0.0,0.0,0.0,0.0
1415874200,24684,1644543063161692619,1,0.0,0.0,0.0,0.0,0.0,0.0,0.0,0.0,0.0,0.0,0.0,0.0,0.0,0.0,0.0,0.0,0.0,0.0,0.0,0.0,0.0,0.0,0.0,0.0,0.0,0.137293100357,-9.57129001617,-0.598205626011,0.0,0.0,0.0,0.0,0.0,0.0,0.0,0.0,0.0
1418341400,24685,1644543063163707018,1,0.0,0.0,0.0,0.0,0.0,0.0,0.0,0.0,0.0,0.0,0.0,0.0,0.0,0.0,0.0,0.0,0.0,0.0,0.0,0.0,0.0,0.0,0.0,0.0,0.0,0.137293100357,-9.57129001617,-0.529559075832,0.0,0.0,0.0,0.0,0.0,0.0,0.0,0.0,0.0
1419856800,24686,1644543063165723562,1,0.0,0.0,0.0,0.0,0.0,0.0,0.0,0.0,0.0,0.0,0.0,0.0,0.0,0.0,0.0,0.0,0.0,0.0,0.0,0.0,0.0,0.0,0.0,0.0,0.0,0.0784531980753,-9.53206348419,-0.57859236002,0.0,0.0,0.0,0.0,0.0,0.0,0.0,0.0,0.0
1421783900,24687,1644543063167740107,1,0.0,0.0,0.0,0.0,0.0,0.0,0.0,0.0,0.0,0.0,0.0,0.0,0.0,0.0,0.0,0.0,0.0,0.0,0.0,0.0,0.0,0.0,0.0,0.0,0.0,0.137293100357,-9.58109664917,-0.558979034424,0.0,0.0,0.0,0.0,0.0,0.0,0.0,0.0,0.0
1423894300,24688,1644543063169756413,1,0.0,0.0,0.0,0.0,0.0,0.0,0.0,0.0,0.0,0.0,0.0,0.0,0.0,0.0,0.0,0.0,0.0,0.0,0.0,0.0,0.0,0.0,0.0,0.0,0.0,0.137293100357,-9.58109664917,-0.598205626011,0.0,0.0,0.0,0.0,0.0,0.0,0.0,0.0,0.0
1425626700,24689,1644543063171772718,1,0.0,0.0,0.0,0.0,0.0,0.0,0.0,0.0,0.0,0.0,0.0,0.0,0.0,0.0,0.0,0.0,0.0,0.0,0.0,0.0,0.0,0.0,0.0,0.0,0.0,0.12748645246,-9.53206348419,-0.558979034424,0.0,0.0,0.0,0.0,0.0,0.0,0.0,0.0,0.0
1427822300,24690,1644543063173789263,1,0.0,0.0,0.0,0.0,0.0,0.0,0.0,0.0,0.0,0.0,0.0,0.0,0.0,0.0,0.0,0.0,0.0,0.0,0.0,0.0,0.0,0.0,0.0,0.0,0.0,0.0686465501785,-9.48303031921,-0.558979034424,0.0,0.0,0.0,0.0,0.0,0.0,0.0,0.0,0.0
1429629100,24691,1644543063175805569,1,0.0,0.0,0.0,0.0,0.0,0.0,0.0,0.0,0.0,0.0,0.0,0.0,0.0,0.0,0.0,0.0,0.0,0.0,0.0,0.0,0.0,0.0,0.0,0.0,0.0,0.0980664938688,-9.56148338318,-0.637432217598,0.0,0.0,0.0,0.0,0.0,0.0,0.0,0.0,0.0
1431795300,24692,1644543063177822113,1,0.0,0.0,0.0,0.0,0.0,0.0,0.0,0.0,0.0,0.0,0.0,0.0,0.0,0.0,0.0,0.0,0.0,0.0,0.0,0.0,0.0,0.0,0.0,0.0,0.0,0.12748645246,-9.58109664917,-0.558979034424,0.0,0.0,0.0,0.0,0.0,0.0,0.0,0.0,0.0
1433780200,24693,1644543063179838657,1,0.0,0.0,0.0,0.0,0.0,0.0,0.0,0.0,0.0,0.0,0.0,0.0,0.0,0.0,0.0,0.0,0.0,0.0,0.0,0.0,0.0,0.0,0.0,0.0,0.0,0.12748645246,-9.57129001617,-0.627625584602,0.0,0.0,0.0,0.0,0.0,0.0,0.0,0.0,0.0
1435775800,24694,1644543063181854963,1,0.0,0.0,0.0,0.0,0.0,0.0,0.0,0.0,0.0,0.0,0.0,0.0,0.0,0.0,0.0,0.0,0.0,0.0,0.0,0.0,0.0,0.0,0.0,0.0,0.0,0.0980664938688,-9.61051654816,-0.598205626011,0.0,0.0,0.0,0.0,0.0,0.0,0.0,0.0,0.0
1437757300,24695,1644543063183871269,1,0.0,0.0,0.0,0.0,0.0,0.0,0.0,0.0,0.0,0.0,0.0,0.0,0.0,0.0,0.0,0.0,0.0,0.0,0.0,0.0,0.0,0.0,0.0,0.0,0.0,0.12748645246,-9.67916297913,-0.598205626011,0.0,0.0,0.0,0.0,0.0,0.0,0.0,0.0,0.0
1439810500,24696,1644543063185885668,1,0.0,0.0,0.0,0.0,0.0,0.0,0.0,0.0,0.0,0.0,0.0,0.0,0.0,0.0,0.0,0.0,0.0,0.0,0.0,0.0,0.0,0.0,0.0,0.0,0.0,0.0980664938688,-9.67916297913,-0.558979034424,0.0,0.0,0.0,0.0,0.0,0.0,0.0,0.0,0.0
1441851600,24697,1644543063187902451,1,0.0,0.0,0.0,0.0,0.0,0.0,0.0,0.0,0.0,0.0,0.0,0.0,0.0,0.0,0.0,0.0,0.0,0.0,0.0,0.0,0.0,0.0,0.0,0.0,0.0,0.0784531980753,-9.70858287811,-0.57859236002,0.0,0.0,0.0,0.0,0.0,0.0,0.0,0.0,0.0
1443784300,24698,1644543063189918756,1,0.0,0.0,0.0,0.0,0.0,0.0,0.0,0.0,0.0,0.0,0.0,0.0,0.0,0.0,0.0,0.0,0.0,0.0,0.0,0.0,0.0,0.0,0.0,0.0,0.0,0.0980664938688,-9.67916297913,-0.637432217598,0.0,0.0,0.0,0.0,0.0,0.0,0.0,0.0,0.0
1445907400,24699,1644543063191935062,1,0.0,0.0,0.0,0.0,0.0,0.0,0.0,0.0,0.0,0.0,0.0,0.0,0.0,0.0,0.0,0.0,0.0,0.0,0.0,0.0,0.0,0.0,0.0,0.0,0.0,0.0980664938688,-9.66935634613,-0.666852176189,0.0,0.0,0.0,0.0,0.0,0.0,0.0,0.0,0.0
1448118400,24700,1644543063193951368,1,0.0,0.0,0.0,0.0,0.0,0.0,0.0,0.0,0.0,0.0,0.0,0.0,0.0,0.0,0.0,0.0,0.0,0.0,0.0,0.0,0.0,0.0,0.0,0.0,0.0,0.0392265990376,-9.58109664917,-0.598205626011,0.0,0.0,0.0,0.0,0.0,0.0,0.0,0.0,0.0
1449794700,24701,1644543063195967913,1,0.0,0.0,0.0,0.0,0.0,0.0,0.0,0.0,0.0,0.0,0.0,0.0,0.0,0.0,0.0,0.0,0.0,0.0,0.0,0.0,0.0,0.0,0.0,0.0,0.0,0.12748645246,-9.62032318115,-0.509945809841,0.0,0.0,0.0,0.0,0.0,0.0,0.0,0.0,0.0
1451782600,24702,1644543063197984457,1,0.0,0.0,0.0,0.0,0.0,0.0,0.0,0.0,0.0,0.0,0.0,0.0,0.0,0.0,0.0,0.0,0.0,0.0,0.0,0.0,0.0,0.0,0.0,0.0,0.0,0.137293100357,-9.57129001617,-0.549172401428,0.0,0.0,0.0,0.0,0.0,0.0,0.0,0.0,0.0
1453750900,24703,1644543063200000763,1,0.0,0.0,0.0,0.0,0.0,0.0,0.0,0.0,0.0,0.0,0.0,0.0,0.0,0.0,0.0,0.0,0.0,0.0,0.0,0.0,0.0,0.0,0.0,0.0,0.0,0.12748645246,-9.56148338318,-0.509945809841,0.0,0.0,0.0,0.0,0.0,0.0,0.0,0.0,0.0
1455852200,24704,1644543063202017307,1,0.0,0.0,0.0,0.0,0.0,0.0,0.0,0.0,0.0,0.0,0.0,0.0,0.0,0.0,0.0,0.0,0.0,0.0,0.0,0.0,0.0,0.0,0.0,0.0,0.0,0.0686465501785,-9.53206348419,-0.549172401428,0.0,0.0,0.0,0.0,0.0,0.0,0.0,0.0,0.0
1457801300,24705,1644543063204033613,1,0.0,0.0,0.0,0.0,0.0,0.0,0.0,0.0,0.0,0.0,0.0,0.0,0.0,0.0,0.0,0.0,0.0,0.0,0.0,0.0,0.0,0.0,0.0,0.0,0.0,0.12748645246,-9.53206348419,-0.509945809841,0.0,0.0,0.0,0.0,0.0,0.0,0.0,0.0,0.0
1459776900,24706,1644543063206050158,1,0.0,0.0,0.0,0.0,0.0,0.0,0.0,0.0,0.0,0.0,0.0,0.0,0.0,0.0,0.0,0.0,0.0,0.0,0.0,0.0,0.0,0.0,0.0,0.0,0.0,0.0980664938688,-9.5222568512,-0.509945809841,0.0,0.0,0.0,0.0,0.0,0.0,0.0,0.0,0.0
1461890400,24707,1644543063208066463,1,0.0,0.0,0.0,0.0,0.0,0.0,0.0,0.0,0.0,0.0,0.0,0.0,0.0,0.0,0.0,0.0,0.0,0.0,0.0,0.0,0.0,0.0,0.0,0.0,0.0,0.0784531980753,-9.53206348419,-0.529559075832,0.0,0.0,0.0,0.0,0.0,0.0,0.0,0.0,0.0
1464068900,24708,1644543063210083008,1,0.0,0.0,0.0,0.0,0.0,0.0,0.0,0.0,0.0,0.0,0.0,0.0,0.0,0.0,0.0,0.0,0.0,0.0,0.0,0.0,0.0,0.0,0.0,0.0,0.0,0.0392265990376,-9.53206348419,-0.509945809841,0.0,0.0,0.0,0.0,0.0,0.0,0.0,0.0,0.0
1465857600,24709,1644543063212099314,1,0.0,0.0,0.0,0.0,0.0,0.0,0.0,0.0,0.0,0.0,0.0,0.0,0.0,0.0,0.0,0.0,0.0,0.0,0.0,0.0,0.0,0.0,0.0,0.0,0.0,0.0686465501785,-9.56148338318,-0.558979034424,0.0,0.0,0.0,0.0,0.0,0.0,0.0,0.0,0.0
1467901200,24710,1644543063214115620,1,0.0,0.0,0.0,0.0,0.0,0.0,0.0,0.0,0.0,0.0,0.0,0.0,0.0,0.0,0.0,0.0,0.0,0.0,0.0,0.0,0.0,0.0,0.0,0.0,0.0,0.0784531980753,-9.58109664917,-0.509945809841,0.0,0.0,0.0,0.0,0.0,0.0,0.0,0.0,0.0
1469797300,24711,1644543063216132402,1,0.0,0.0,0.0,0.0,0.0,0.0,0.0,0.0,0.0,0.0,0.0,0.0,0.0,0.0,0.0,0.0,0.0,0.0,0.0,0.0,0.0,0.0,0.0,0.0,0.0,0.0784531980753,-9.62032318115,-0.509945809841,0.0,0.0,0.0,0.0,0.0,0.0,0.0,0.0,0.0
1471773200,24712,1644543063218148708,1,0.0,0.0,0.0,0.0,0.0,0.0,0.0,0.0,0.0,0.0,0.0,0.0,0.0,0.0,0.0,0.0,0.0,0.0,0.0,0.0,0.0,0.0,0.0,0.0,0.0,0.00980664975941,-9.62032318115,-0.490332484245,0.0,0.0,0.0,0.0,0.0,0.0,0.0,0.0,0.0
1473972200,24713,1644543063220165014,1,0.0,0.0,0.0,0.0,0.0,0.0,0.0,0.0,0.0,0.0,0.0,0.0,0.0,0.0,0.0,0.0,0.0,0.0,0.0,0.0,0.0,0.0,0.0,0.0,0.0,0.0686465501785,-9.66935634613,-0.509945809841,0.0,0.0,0.0,0.0,0.0,0.0,0.0,0.0,0.0
1476048300,24714,1644543063222183704,1,0.0,0.0,0.0,0.0,0.0,0.0,0.0,0.0,0.0,0.0,0.0,0.0,0.0,0.0,0.0,0.0,0.0,0.0,0.0,0.0,0.0,0.0,0.0,0.0,0.0,0.0784531980753,-9.70858287811,-0.470719188452,0.0,0.0,0.0,0.0,0.0,0.0,0.0,0.0,0.0
1478124400,24715,1644543063224200010,1,0.0,0.0,0.0,0.0,0.0,0.0,0.0,0.0,0.0,0.0,0.0,0.0,0.0,0.0,0.0,0.0,0.0,0.0,0.0,0.0,0.0,0.0,0.0,0.0,0.0,0.0686465501785,-9.64974308014,-0.509945809841,0.0,0.0,0.0,0.0,0.0,0.0,0.0,0.0,0.0
1479983700,24716,1644543063226216316,1,0.0,0.0,0.0,0.0,0.0,0.0,0.0,0.0,0.0,0.0,0.0,0.0,0.0,0.0,0.0,0.0,0.0,0.0,0.0,0.0,0.0,0.0,0.0,0.0,0.0,0.0294199492782,-9.64974308014,-0.470719188452,0.0,0.0,0.0,0.0,0.0,0.0,0.0,0.0,0.0
1481975700,24717,1644543063228232622,1,0.0,0.0,0.0,0.0,0.0,0.0,0.0,0.0,0.0,0.0,0.0,0.0,0.0,0.0,0.0,0.0,0.0,0.0,0.0,0.0,0.0,0.0,0.0,0.0,0.0,0.0686465501785,-9.61051654816,-0.470719188452,0.0,0.0,0.0,0.0,0.0,0.0,0.0,0.0,0.0
1483972100,24718,1644543063230249166,1,0.0,0.0,0.0,0.0,0.0,0.0,0.0,0.0,0.0,0.0,0.0,0.0,0.0,0.0,0.0,0.0,0.0,0.0,0.0,0.0,0.0,0.0,0.0,0.0,0.0,0.0980664938688,-9.61051654816,-0.451105892658,0.0,0.0,0.0,0.0,0.0,0.0,0.0,0.0,0.0
1486021700,24719,1644543063232265711,1,0.0,0.0,0.0,0.0,0.0,0.0,0.0,0.0,0.0,0.0,0.0,0.0,0.0,0.0,0.0,0.0,0.0,0.0,0.0,0.0,0.0,0.0,0.0,0.0,0.0,0.0784531980753,-9.56148338318,-0.451105892658,0.0,0.0,0.0,0.0,0.0,0.0,0.0,0.0,0.0
1488017400,24720,1644543063234282017,1,0.0,0.0,0.0,0.0,0.0,0.0,0.0,0.0,0.0,0.0,0.0,0.0,0.0,0.0,0.0,0.0,0.0,0.0,0.0,0.0,0.0,0.0,0.0,0.0,0.0,0.0784531980753,-9.53206348419,-0.402072638273,0.0,0.0,0.0,0.0,0.0,0.0,0.0,0.0,0.0
1490101800,24721,1644543063236296415,1,0.0,0.0,0.0,0.0,0.0,0.0,0.0,0.0,0.0,0.0,0.0,0.0,0.0,0.0,0.0,0.0,0.0,0.0,0.0,0.0,0.0,0.0,0.0,0.0,0.0,0.0980664938688,-9.5222568512,-0.451105892658,0.0,0.0,0.0,0.0,0.0,0.0,0.0,0.0,0.0
1492370600,24722,1644543063238312960,1,0.0,0.0,0.0,0.0,0.0,0.0,0.0,0.0,0.0,0.0,0.0,0.0,0.0,0.0,0.0,0.0,0.0,0.0,0.0,0.0,0.0,0.0,0.0,0.0,0.0,0.0686465501785,-9.53206348419,-0.421685934067,0.0,0.0,0.0,0.0,0.0,0.0,0.0,0.0,0.0
1494863200,24723,1644543063240329266,1,0.0,0.0,0.0,0.0,0.0,0.0,0.0,0.0,0.0,0.0,0.0,0.0,0.0,0.0,0.0,0.0,0.0,0.0,0.0,0.0,0.0,0.0,0.0,0.0,0.0,0.166713044047,-9.5222568512,-0.402072638273,0.0,0.0,0.0,0.0,0.0,0.0,0.0,0.0,0.0
1496541700,24724,1644543063242345810,1,0.0,0.0,0.0,0.0,0.0,0.0,0.0,0.0,0.0,0.0,0.0,0.0,0.0,0.0,0.0,0.0,0.0,0.0,0.0,0.0,0.0,0.0,0.0,0.0,0.0,0.0980664938688,-9.49283695221,-0.470719188452,0.0,0.0,0.0,0.0,0.0,0.0,0.0,0.0,0.0
1498507900,24725,1644543063244362116,1,0.0,0.0,0.0,0.0,0.0,0.0,0.0,0.0,0.0,0.0,0.0,0.0,0.0,0.0,0.0,0.0,0.0,0.0,0.0,0.0,0.0,0.0,0.0,0.0,0.0,0.0784531980753,-9.58109664917,-0.402072638273,0.0,0.0,0.0,0.0,0.0,0.0,0.0,0.0,0.0
1500094300,24726,1644543063246378660,1,0.0,0.0,0.0,0.0,0.0,0.0,0.0,0.0,0.0,0.0,0.0,0.0,0.0,0.0,0.0,0.0,0.0,0.0,0.0,0.0,0.0,0.0,0.0,0.0,0.0,0.0980664938688,-9.62032318115,-0.451105892658,0.0,0.0,0.0,0.0,0.0,0.0,0.0,0.0,0.0
1502322800,24727,1644543063248394966,1,0.0,0.0,0.0,0.0,0.0,0.0,0.0,0.0,0.0,0.0,0.0,0.0,0.0,0.0,0.0,0.0,0.0,0.0,0.0,0.0,0.0,0.0,0.0,0.0,0.0,0.0980664938688,-9.61051654816,-0.470719188452,0.0,0.0,0.0,0.0,0.0,0.0,0.0,0.0,0.0
1504308600,24728,1644543063250411272,1,0.0,0.0,0.0,0.0,0.0,0.0,0.0,0.0,0.0,0.0,0.0,0.0,0.0,0.0,0.0,0.0,0.0,0.0,0.0,0.0,0.0,0.0,0.0,0.0,0.0,0.0784531980753,-9.64974308014,-0.451105892658,0.0,0.0,0.0,0.0,0.0,0.0,0.0,0.0,0.0
1506321700,24729,1644543063252428055,1,0.0,0.0,0.0,0.0,0.0,0.0,0.0,0.0,0.0,0.0,0.0,0.0,0.0,0.0,0.0,0.0,0.0,0.0,0.0,0.0,0.0,0.0,0.0,0.0,0.0,0.0980664938688,-9.70858287811,-0.470719188452,0.0,0.0,0.0,0.0,0.0,0.0,0.0,0.0,0.0
1508299500,24730,1644543063254444361,1,0.0,0.0,0.0,0.0,0.0,0.0,0.0,0.0,0.0,0.0,0.0,0.0,0.0,0.0,0.0,0.0,0.0,0.0,0.0,0.0,0.0,0.0,0.0,0.0,0.0,0.0980664938688,-9.67916297913,-0.490332484245,0.0,0.0,0.0,0.0,0.0,0.0,0.0,0.0,0.0
1510253300,24731,1644543063256460667,1,0.0,0.0,0.0,0.0,0.0,0.0,0.0,0.0,0.0,0.0,0.0,0.0,0.0,0.0,0.0,0.0,0.0,0.0,0.0,0.0,0.0,0.0,0.0,0.0,0.0,0.137293100357,-9.66935634613,-0.470719188452,0.0,0.0,0.0,0.0,0.0,0.0,0.0,0.0,0.0
1512261900,24732,1644543063258476973,1,0.0,0.0,0.0,0.0,0.0,0.0,0.0,0.0,0.0,0.0,0.0,0.0,0.0,0.0,0.0,0.0,0.0,0.0,0.0,0.0,0.0,0.0,0.0,0.0,0.0,0.0784531980753,-9.66935634613,-0.509945809841,0.0,0.0,0.0,0.0,0.0,0.0,0.0,0.0,0.0
1514255400,24733,1644543063260491371,1,0.0,0.0,0.0,0.0,0.0,0.0,0.0,0.0,0.0,0.0,0.0,0.0,0.0,0.0,0.0,0.0,0.0,0.0,0.0,0.0,0.0,0.0,0.0,0.0,0.0,0.137293100357,-9.58109664917,-0.529559075832,0.0,0.0,0.0,0.0,0.0,0.0,0.0,0.0,0.0
1516341400,24734,1644543063262508154,1,0.0,0.0,0.0,0.0,0.0,0.0,0.0,0.0,0.0,0.0,0.0,0.0,0.0,0.0,0.0,0.0,0.0,0.0,0.0,0.0,0.0,0.0,0.0,0.0,0.0,0.0980664938688,-9.62032318115,-0.490332484245,0.0,0.0,0.0,0.0,0.0,0.0,0.0,0.0,0.0
1518304800,24735,1644543063264524460,1,0.0,0.0,0.0,0.0,0.0,0.0,0.0,0.0,0.0,0.0,0.0,0.0,0.0,0.0,0.0,0.0,0.0,0.0,0.0,0.0,0.0,0.0,0.0,0.0,0.0,0.12748645246,-9.62032318115,-0.490332484245,0.0,0.0,0.0,0.0,0.0,0.0,0.0,0.0,0.0
1520759000,24736,1644543063266540766,1,0.0,0.0,0.0,0.0,0.0,0.0,0.0,0.0,0.0,0.0,0.0,0.0,0.0,0.0,0.0,0.0,0.0,0.0,0.0,0.0,0.0,0.0,0.0,0.0,0.0,0.0980664938688,-9.56148338318,-0.470719188452,0.0,0.0,0.0,0.0,0.0,0.0,0.0,0.0,0.0
1522519300,24737,1644543063268557072,1,0.0,0.0,0.0,0.0,0.0,0.0,0.0,0.0,0.0,0.0,0.0,0.0,0.0,0.0,0.0,0.0,0.0,0.0,0.0,0.0,0.0,0.0,0.0,0.0,0.0,0.0980664938688,-9.57129001617,-0.421685934067,0.0,0.0,0.0,0.0,0.0,0.0,0.0,0.0,0.0
1524721100,24738,1644543063270573616,1,0.0,0.0,0.0,0.0,0.0,0.0,0.0,0.0,0.0,0.0,0.0,0.0,0.0,0.0,0.0,0.0,0.0,0.0,0.0,0.0,0.0,0.0,0.0,0.0,0.0,0.12748645246,-9.58109664917,-0.470719188452,0.0,0.0,0.0,0.0,0.0,0.0,0.0,0.0,0.0
1526334800,24739,1644543063272590160,1,0.0,0.0,0.0,0.0,0.0,0.0,0.0,0.0,0.0,0.0,0.0,0.0,0.0,0.0,0.0,0.0,0.0,0.0,0.0,0.0,0.0,0.0,0.0,0.0,0.0,0.12748645246,-9.53206348419,-0.451105892658,0.0,0.0,0.0,0.0,0.0,0.0,0.0,0.0,0.0
1528322500,24740,1644543063274604559,1,0.0,0.0,0.0,0.0,0.0,0.0,0.0,0.0,0.0,0.0,0.0,0.0,0.0,0.0,0.0,0.0,0.0,0.0,0.0,0.0,0.0,0.0,0.0,0.0,0.0,0.0980664938688,-9.57129001617,-0.470719188452,0.0,0.0,0.0,0.0,0.0,0.0,0.0,0.0,0.0
1530543600,24741,1644543063276623011,1,0.0,0.0,0.0,0.0,0.0,0.0,0.0,0.0,0.0,0.0,0.0,0.0,0.0,0.0,0.0,0.0,0.0,0.0,0.0,0.0,0.0,0.0,0.0,0.0,0.0,0.0980664938688,-9.56148338318,-0.529559075832,0.0,0.0,0.0,0.0,0.0,0.0,0.0,0.0,0.0
1532542600,24742,1644543063278639317,1,0.0,0.0,0.0,0.0,0.0,0.0,0.0,0.0,0.0,0.0,0.0,0.0,0.0,0.0,0.0,0.0,0.0,0.0,0.0,0.0,0.0,0.0,0.0,0.0,0.0,0.0980664938688,-9.61051654816,-0.509945809841,0.0,0.0,0.0,0.0,0.0,0.0,0.0,0.0,0.0
1534276100,24743,1644543063280655861,1,0.0,0.0,0.0,0.0,0.0,0.0,0.0,0.0,0.0,0.0,0.0,0.0,0.0,0.0,0.0,0.0,0.0,0.0,0.0,0.0,0.0,0.0,0.0,0.0,0.0,0.0686465501785,-9.61051654816,-0.509945809841,0.0,0.0,0.0,0.0,0.0,0.0,0.0,0.0,0.0
1536569400,24744,1644543063282672167,1,0.0,0.0,0.0,0.0,0.0,0.0,0.0,0.0,0.0,0.0,0.0,0.0,0.0,0.0,0.0,0.0,0.0,0.0,0.0,0.0,0.0,0.0,0.0,0.0,0.0,0.0784531980753,-9.61051654816,-0.490332484245,0.0,0.0,0.0,0.0,0.0,0.0,0.0,0.0,0.0
1538446900,24745,1644543063284688711,1,0.0,0.0,0.0,0.0,0.0,0.0,0.0,0.0,0.0,0.0,0.0,0.0,0.0,0.0,0.0,0.0,0.0,0.0,0.0,0.0,0.0,0.0,0.0,0.0,0.0,0.0392265990376,-9.62032318115,-0.451105892658,0.0,0.0,0.0,0.0,0.0,0.0,0.0,0.0,0.0
1540981600,24746,1644543063286703110,1,0.0,0.0,0.0,0.0,0.0,0.0,0.0,0.0,0.0,0.0,0.0,0.0,0.0,0.0,0.0,0.0,0.0,0.0,0.0,0.0,0.0,0.0,0.0,0.0,0.0,0.0392265990376,-9.61051654816,-0.509945809841,0.0,0.0,0.0,0.0,0.0,0.0,0.0,0.0,0.0
1542734000,24747,1644543063288719416,1,0.0,0.0,0.0,0.0,0.0,0.0,0.0,0.0,0.0,0.0,0.0,0.0,0.0,0.0,0.0,0.0,0.0,0.0,0.0,0.0,0.0,0.0,0.0,0.0,0.0,0.0784531980753,-9.64974308014,-0.421685934067,0.0,0.0,0.0,0.0,0.0,0.0,0.0,0.0,0.0
1544606800,24748,1644543063290735722,1,0.0,0.0,0.0,0.0,0.0,0.0,0.0,0.0,0.0,0.0,0.0,0.0,0.0,0.0,0.0,0.0,0.0,0.0,0.0,0.0,0.0,0.0,0.0,0.0,0.0,0.00980664975941,-9.61051654816,-0.558979034424,0.0,0.0,0.0,0.0,0.0,0.0,0.0,0.0,0.0
1546952500,24749,1644543063292752266,1,0.0,0.0,0.0,0.0,0.0,0.0,0.0,0.0,0.0,0.0,0.0,0.0,0.0,0.0,0.0,0.0,0.0,0.0,0.0,0.0,0.0,0.0,0.0,0.0,0.0,-0.804145276546,-9.45361042023,-0.627625584602,0.0,0.0,0.0,0.0,0.0,0.0,0.0,0.0,0.0
1548643900,24750,1644543063294770718,1,0.0,0.0,0.0,0.0,0.0,0.0,0.0,0.0,0.0,0.0,0.0,0.0,0.0,0.0,0.0,0.0,0.0,0.0,0.0,0.0,0.0,0.0,0.0,0.0,0.0,0.843371868134,-9.64974308014,-0.402072638273,0.0,0.0,0.0,0.0,0.0,0.0,0.0,0.0,0.0
1550630700,24751,1644543063296785116,1,0.0,0.0,0.0,0.0,0.0,0.0,0.0,0.0,0.0,0.0,0.0,0.0,0.0,0.0,0.0,0.0,0.0,0.0,0.0,0.0,0.0,0.0,0.0,0.0,0.0,1.13757133484,-9.88510322571,-0.38245934248,0.0,0.0,0.0,0.0,0.0,0.0,0.0,0.0,0.0
1552568900,24752,1644543063298801422,1,0.0,0.0,0.0,0.0,0.0,0.0,0.0,0.0,0.0,0.0,0.0,0.0,0.0,0.0,0.0,0.0,0.0,0.0,0.0,0.0,0.0,0.0,0.0,0.0,0.0,-0.57859236002,-9.24767112732,-0.421685934067,0.0,0.0,0.0,0.0,0.0,0.0,0.0,0.0,0.0
1554509700,24753,1644543063300817966,1,0.0,0.0,0.0,0.0,0.0,0.0,0.0,0.0,0.0,0.0,0.0,0.0,0.0,0.0,0.0,0.0,0.0,0.0,0.0,0.0,0.0,0.0,0.0,0.0,0.0,-0.57859236002,-9.56148338318,-0.696272134781,0.0,0.0,0.0,0.0,0.0,0.0,0.0,0.0,0.0
1556529500,24754,1644543063302834511,1,0.0,0.0,0.0,0.0,0.0,0.0,0.0,0.0,0.0,0.0,0.0,0.0,0.0,0.0,0.0,0.0,0.0,0.0,0.0,0.0,0.0,0.0,0.0,0.0,0.0,0.166713044047,-9.62032318115,-0.490332484245,0.0,0.0,0.0,0.0,0.0,0.0,0.0,0.0,0.0
1558531200,24755,1644543063304852724,1,0.0,0.0,0.0,0.0,0.0,0.0,0.0,0.0,0.0,0.0,0.0,0.0,0.0,0.0,0.0,0.0,0.0,0.0,0.0,0.0,0.0,0.0,0.0,0.0,0.0,0.470719188452,-9.58109664917,-0.402072638273,0.0,0.0,0.0,0.0,0.0,0.0,0.0,0.0,0.0
1560502800,24756,1644543063306867123,1,0.0,0.0,0.0,0.0,0.0,0.0,0.0,0.0,0.0,0.0,0.0,0.0,0.0,0.0,0.0,0.0,0.0,0.0,0.0,0.0,0.0,0.0,0.0,0.0,0.0,-0.0392265990376,-9.48303031921,-0.598205626011,0.0,0.0,0.0,0.0,0.0,0.0,0.0,0.0,0.0
1562520900,24757,1644543063308883429,1,0.0,0.0,0.0,0.0,0.0,0.0,0.0,0.0,0.0,0.0,0.0,0.0,0.0,0.0,0.0,0.0,0.0,0.0,0.0,0.0,0.0,0.0,0.0,0.0,0.0,-0.0980664938688,-9.56148338318,-0.549172401428,0.0,0.0,0.0,0.0,0.0,0.0,0.0,0.0,0.0
1564526700,24758,1644543063310900211,1,0.0,0.0,0.0,0.0,0.0,0.0,0.0,0.0,0.0,0.0,0.0,0.0,0.0,0.0,0.0,0.0,0.0,0.0,0.0,0.0,0.0,0.0,0.0,0.0,0.0,0.12748645246,-9.61051654816,-0.490332484245,0.0,0.0,0.0,0.0,0.0,0.0,0.0,0.0,0.0
1566639700,24759,1644543063312916517,1,0.0,0.0,0.0,0.0,0.0,0.0,0.0,0.0,0.0,0.0,0.0,0.0,0.0,0.0,0.0,0.0,0.0,0.0,0.0,0.0,0.0,0.0,0.0,0.0,0.0,0.176519691944,-9.53206348419,-0.558979034424,0.0,0.0,0.0,0.0,0.0,0.0,0.0,0.0,0.0
1568618600,24760,1644543063314932823,1,0.0,0.0,0.0,0.0,0.0,0.0,0.0,0.0,0.0,0.0,0.0,0.0,0.0,0.0,0.0,0.0,0.0,0.0,0.0,0.0,0.0,0.0,0.0,0.0,0.0,0.00980664975941,-9.56148338318,-0.598205626011,0.0,0.0,0.0,0.0,0.0,0.0,0.0,0.0,0.0
1570510300,24761,1644543063316949368,1,0.0,0.0,0.0,0.0,0.0,0.0,0.0,0.0,0.0,0.0,0.0,0.0,0.0,0.0,0.0,0.0,0.0,0.0,0.0,0.0,0.0,0.0,0.0,0.0,0.0,0.00980664975941,-9.62032318115,-0.57859236002,0.0,0.0,0.0,0.0,0.0,0.0,0.0,0.0,0.0
1572882800,24762,1644543063318965912,1,0.0,0.0,0.0,0.0,0.0,0.0,0.0,0.0,0.0,0.0,0.0,0.0,0.0,0.0,0.0,0.0,0.0,0.0,0.0,0.0,0.0,0.0,0.0,0.0,0.0,0.0784531980753,-9.61051654816,-0.558979034424,0.0,0.0,0.0,0.0,0.0,0.0,0.0,0.0,0.0
1574549200,24763,1644543063320984125,1,0.0,0.0,0.0,0.0,0.0,0.0,0.0,0.0,0.0,0.0,0.0,0.0,0.0,0.0,0.0,0.0,0.0,0.0,0.0,0.0,0.0,0.0,0.0,0.0,0.0,0.12748645246,-9.57129001617,-0.549172401428,0.0,0.0,0.0,0.0,0.0,0.0,0.0,0.0,0.0
1576574300,24764,1644543063322998524,1,0.0,0.0,0.0,0.0,0.0,0.0,0.0,0.0,0.0,0.0,0.0,0.0,0.0,0.0,0.0,0.0,0.0,0.0,0.0,0.0,0.0,0.0,0.0,0.0,0.0,0.0784531980753,-9.61051654816,-0.549172401428,0.0,0.0,0.0,0.0,0.0,0.0,0.0,0.0,0.0
1578557200,24765,1644543063325015068,1,0.0,0.0,0.0,0.0,0.0,0.0,0.0,0.0,0.0,0.0,0.0,0.0,0.0,0.0,0.0,0.0,0.0,0.0,0.0,0.0,0.0,0.0,0.0,0.0,0.0,0.0294199492782,-9.61051654816,-0.549172401428,0.0,0.0,0.0,0.0,0.0,0.0,0.0,0.0,0.0
1580716500,24766,1644543063327031612,1,0.0,0.0,0.0,0.0,0.0,0.0,0.0,0.0,0.0,0.0,0.0,0.0,0.0,0.0,0.0,0.0,0.0,0.0,0.0,0.0,0.0,0.0,0.0,0.0,0.0,0.0784531980753,-9.57129001617,-0.558979034424,0.0,0.0,0.0,0.0,0.0,0.0,0.0,0.0,0.0
1582899200,24767,1644543063329047918,1,0.0,0.0,0.0,0.0,0.0,0.0,0.0,0.0,0.0,0.0,0.0,0.0,0.0,0.0,0.0,0.0,0.0,0.0,0.0,0.0,0.0,0.0,0.0,0.0,0.0,0.12748645246,-9.53206348419,-0.598205626011,0.0,0.0,0.0,0.0,0.0,0.0,0.0,0.0,0.0
1584900600,24768,1644543063331064224,1,0.0,0.0,0.0,0.0,0.0,0.0,0.0,0.0,0.0,0.0,0.0,0.0,0.0,0.0,0.0,0.0,0.0,0.0,0.0,0.0,0.0,0.0,0.0,0.0,0.0,0.0980664938688,-9.5222568512,-0.774725317955,0.0,0.0,0.0,0.0,0.0,0.0,0.0,0.0,0.0
1586779600,24769,1644543063333080769,1,0.0,0.0,0.0,0.0,0.0,0.0,0.0,0.0,0.0,0.0,0.0,0.0,0.0,0.0,0.0,0.0,0.0,0.0,0.0,0.0,0.0,0.0,0.0,0.0,0.0,0.0686465501785,-9.38496398926,-0.882598459721,0.0,0.0,0.0,0.0,0.0,0.0,0.0,0.0,0.0
1588831300,24770,1644543063335097075,1,0.0,0.0,0.0,0.0,0.0,0.0,0.0,0.0,0.0,0.0,0.0,0.0,0.0,0.0,0.0,0.0,0.0,0.0,0.0,0.0,0.0,0.0,0.0,0.0,0.0,0.12748645246,-9.31631755829,-0.990471601486,0.0,0.0,0.0,0.0,0.0,0.0,0.0,0.0,0.0
1590774900,24771,1644543063337113619,1,0.0,0.0,0.0,0.0,0.0,0.0,0.0,0.0,0.0,0.0,0.0,0.0,0.0,0.0,0.0,0.0,0.0,0.0,0.0,0.0,0.0,0.0,0.0,0.0,0.0,0.137293100357,-9.2868976593,-1.12776470184,0.0,0.0,0.0,0.0,0.0,0.0,0.0,0.0,0.0
1592761900,24772,1644543063339129925,1,0.0,0.0,0.0,0.0,0.0,0.0,0.0,0.0,0.0,0.0,0.0,0.0,0.0,0.0,0.0,0.0,0.0,0.0,0.0,0.0,0.0,0.0,0.0,0.0,0.0,0.0784531980753,-9.24767112732,-1.16699135303,0.0,0.0,0.0,0.0,0.0,0.0,0.0,0.0,0.0
1594806200,24773,1644543063341146469,1,0.0,0.0,0.0,0.0,0.0,0.0,0.0,0.0,0.0,0.0,0.0,0.0,0.0,0.0,0.0,0.0,0.0,0.0,0.0,0.0,0.0,0.0,0.0,0.0,0.0,0.0980664938688,-9.25747776031,-1.09834480286,0.0,0.0,0.0,0.0,0.0,0.0,0.0,0.0,0.0
1596745500,24774,1644543063343162775,1,0.0,0.0,0.0,0.0,0.0,0.0,0.0,0.0,0.0,0.0,0.0,0.0,0.0,0.0,0.0,0.0,0.0,0.0,0.0,0.0,0.0,0.0,0.0,0.0,0.0,0.196132987738,-9.38496398926,-0.961051702499,0.0,0.0,0.0,0.0,0.0,0.0,0.0,0.0,0.0
1598919200,24775,1644543063345179081,1,0.0,0.0,0.0,0.0,0.0,0.0,0.0,0.0,0.0,0.0,0.0,0.0,0.0,0.0,0.0,0.0,0.0,0.0,0.0,0.0,0.0,0.0,0.0,0.0,0.0,0.166713044047,-9.49283695221,-0.774725317955,0.0,0.0,0.0,0.0,0.0,0.0,0.0,0.0,0.0
1600803200,24776,1644543063347195625,1,0.0,0.0,0.0,0.0,0.0,0.0,0.0,0.0,0.0,0.0,0.0,0.0,0.0,0.0,0.0,0.0,0.0,0.0,0.0,0.0,0.0,0.0,0.0,0.0,0.0,0.137293100357,-9.58109664917,-0.686465501785,0.0,0.0,0.0,0.0,0.0,0.0,0.0,0.0,0.0
1602722500,24777,1644543063349212170,1,0.0,0.0,0.0,0.0,0.0,0.0,0.0,0.0,0.0,0.0,0.0,0.0,0.0,0.0,0.0,0.0,0.0,0.0,0.0,0.0,0.0,0.0,0.0,0.0,0.0,0.12748645246,-9.64974308014,-0.558979034424,0.0,0.0,0.0,0.0,0.0,0.0,0.0,0.0,0.0
1605008700,24778,1644543063351228476,1,0.0,0.0,0.0,0.0,0.0,0.0,0.0,0.0,0.0,0.0,0.0,0.0,0.0,0.0,0.0,0.0,0.0,0.0,0.0,0.0,0.0,0.0,0.0,0.0,0.0,0.0980664938688,-9.67916297913,-0.470719188452,0.0,0.0,0.0,0.0,0.0,0.0,0.0,0.0,0.0
1607025400,24779,1644543063353244781,1,0.0,0.0,0.0,0.0,0.0,0.0,0.0,0.0,0.0,0.0,0.0,0.0,0.0,0.0,0.0,0.0,0.0,0.0,0.0,0.0,0.0,0.0,0.0,0.0,0.0,0.12748645246,-9.66935634613,-0.402072638273,0.0,0.0,0.0,0.0,0.0,0.0,0.0,0.0,0.0
1609025100,24780,1644543063355261326,1,0.0,0.0,0.0,0.0,0.0,0.0,0.0,0.0,0.0,0.0,0.0,0.0,0.0,0.0,0.0,0.0,0.0,0.0,0.0,0.0,0.0,0.0,0.0,0.0,0.0,0.225552946329,-9.67916297913,-0.343232750893,0.0,0.0,0.0,0.0,0.0,0.0,0.0,0.0,0.0
1611101200,24781,1644543063357277632,1,0.0,0.0,0.0,0.0,0.0,0.0,0.0,0.0,0.0,0.0,0.0,0.0,0.0,0.0,0.0,0.0,0.0,0.0,0.0,0.0,0.0,0.0,0.0,0.0,0.0,0.176519691944,-9.62032318115,-0.470719188452,0.0,0.0,0.0,0.0,0.0,0.0,0.0,0.0,0.0
1612774800,24782,1644543063359294176,1,0.0,0.0,0.0,0.0,0.0,0.0,0.0,0.0,0.0,0.0,0.0,0.0,0.0,0.0,0.0,0.0,0.0,0.0,0.0,0.0,0.0,0.0,0.0,0.0,0.0,0.0784531980753,-9.58109664917,-0.490332484245,0.0,0.0,0.0,0.0,0.0,0.0,0.0,0.0,0.0
1615060700,24783,1644543063361310482,1,0.0,0.0,0.0,0.0,0.0,0.0,0.0,0.0,0.0,0.0,0.0,0.0,0.0,0.0,0.0,0.0,0.0,0.0,0.0,0.0,0.0,0.0,0.0,0.0,0.0,0.0686465501785,-9.66935634613,-0.509945809841,0.0,0.0,0.0,0.0,0.0,0.0,0.0,0.0,0.0
1617047400,24784,1644543063363326788,1,0.0,0.0,0.0,0.0,0.0,0.0,0.0,0.0,0.0,0.0,0.0,0.0,0.0,0.0,0.0,0.0,0.0,0.0,0.0,0.0,0.0,0.0,0.0,0.0,0.0,0.137293100357,-9.5222568512,-0.529559075832,0.0,0.0,0.0,0.0,0.0,0.0,0.0,0.0,0.0
1619041600,24785,1644543063365343332,1,0.0,0.0,0.0,0.0,0.0,0.0,0.0,0.0,0.0,0.0,0.0,0.0,0.0,0.0,0.0,0.0,0.0,0.0,0.0,0.0,0.0,0.0,0.0,0.0,0.0,0.166713044047,-9.45361042023,-0.686465501785,0.0,0.0,0.0,0.0,0.0,0.0,0.0,0.0,0.0
1621147500,24786,1644543063367359877,1,0.0,0.0,0.0,0.0,0.0,0.0,0.0,0.0,0.0,0.0,0.0,0.0,0.0,0.0,0.0,0.0,0.0,0.0,0.0,0.0,0.0,0.0,0.0,0.0,0.0,0.0980664938688,-9.45361042023,-0.696272134781,0.0,0.0,0.0,0.0,0.0,0.0,0.0,0.0,0.0
1623355400,24787,1644543063369376183,1,0.0,0.0,0.0,0.0,0.0,0.0,0.0,0.0,0.0,0.0,0.0,0.0,0.0,0.0,0.0,0.0,0.0,0.0,0.0,0.0,0.0,0.0,0.0,0.0,0.0,0.0784531980753,-9.48303031921,-0.686465501785,0.0,0.0,0.0,0.0,0.0,0.0,0.0,0.0,0.0
1625055200,24788,1644543063371392488,1,0.0,0.0,0.0,0.0,0.0,0.0,0.0,0.0,0.0,0.0,0.0,0.0,0.0,0.0,0.0,0.0,0.0,0.0,0.0,0.0,0.0,0.0,0.0,0.0,0.0,0.0392265990376,-9.45361042023,-0.598205626011,0.0,0.0,0.0,0.0,0.0,0.0,0.0,0.0,0.0
1627111900,24789,1644543063373406887,1,0.0,0.0,0.0,0.0,0.0,0.0,0.0,0.0,0.0,0.0,0.0,0.0,0.0,0.0,0.0,0.0,0.0,0.0,0.0,0.0,0.0,0.0,0.0,0.0,0.0,0.0392265990376,-9.48303031921,-0.529559075832,0.0,0.0,0.0,0.0,0.0,0.0,0.0,0.0,0.0
1629126500,24790,1644543063375423431,1,0.0,0.0,0.0,0.0,0.0,0.0,0.0,0.0,0.0,0.0,0.0,0.0,0.0,0.0,0.0,0.0,0.0,0.0,0.0,0.0,0.0,0.0,0.0,0.0,0.0,0.0,-9.53206348419,-0.402072638273,0.0,0.0,0.0,0.0,0.0,0.0,0.0,0.0,0.0
1631086200,24791,1644543063377439976,1,0.0,0.0,0.0,0.0,0.0,0.0,0.0,0.0,0.0,0.0,0.0,0.0,0.0,0.0,0.0,0.0,0.0,0.0,0.0,0.0,0.0,0.0,0.0,0.0,0.0,-0.0392265990376,-9.58109664917,-0.313812792301,0.0,0.0,0.0,0.0,0.0,0.0,0.0,0.0,0.0
1633299200,24792,1644543063379456282,1,0.0,0.0,0.0,0.0,0.0,0.0,0.0,0.0,0.0,0.0,0.0,0.0,0.0,0.0,0.0,0.0,0.0,0.0,0.0,0.0,0.0,0.0,0.0,0.0,0.0,-0.12748645246,-9.66935634613,-0.176519691944,0.0,0.0,0.0,0.0,0.0,0.0,0.0,0.0,0.0
1635050800,24793,1644543063381470680,1,0.0,0.0,0.0,0.0,0.0,0.0,0.0,0.0,0.0,0.0,0.0,0.0,0.0,0.0,0.0,0.0,0.0,0.0,0.0,0.0,0.0,0.0,0.0,0.0,0.0,-0.166713044047,-9.66935634613,-0.137293100357,0.0,0.0,0.0,0.0,0.0,0.0,0.0,0.0,0.0
1637038900,24794,1644543063383486986,1,0.0,0.0,0.0,0.0,0.0,0.0,0.0,0.0,0.0,0.0,0.0,0.0,0.0,0.0,0.0,0.0,0.0,0.0,0.0,0.0,0.0,0.0,0.0,0.0,0.0,-0.176519691944,-9.64974308014,-0.137293100357,0.0,0.0,0.0,0.0,0.0,0.0,0.0,0.0,0.0
1639015100,24795,1644543063385505676,1,0.0,0.0,0.0,0.0,0.0,0.0,0.0,0.0,0.0,0.0,0.0,0.0,0.0,0.0,0.0,0.0,0.0,0.0,0.0,0.0,0.0,0.0,0.0,0.0,0.0,0.264779537916,-9.31631755829,-0.509945809841,0.0,0.0,0.0,0.0,0.0,0.0,0.0,0.0,0.0
1641016000,24796,1644543063387521982,1,0.0,0.0,0.0,0.0,0.0,0.0,0.0,0.0,0.0,0.0,0.0,0.0,0.0,0.0,0.0,0.0,0.0,0.0,0.0,0.0,0.0,0.0,0.0,0.0,0.0,1.2552511692,-8.94366455078,-2.09862303734,0.0,0.0,0.0,0.0,0.0,0.0,0.0,0.0,0.0
1643307500,24797,1644543063389538288,1,0.0,0.0,0.0,0.0,0.0,0.0,0.0,0.0,0.0,0.0,0.0,0.0,0.0,0.0,0.0,0.0,0.0,0.0,0.0,0.0,0.0,0.0,0.0,0.0,0.0,0.0686465501785,-9.96355628967,0.166713044047,0.0,0.0,0.0,0.0,0.0,0.0,0.0,0.0,0.0
1645043600,24798,1644543063391552687,1,0.0,0.0,0.0,0.0,0.0,0.0,0.0,0.0,0.0,0.0,0.0,0.0,0.0,0.0,0.0,0.0,0.0,0.0,0.0,0.0,0.0,0.0,0.0,0.0,0.0,-0.38245934248,-9.99297618866,0.421685934067,0.0,0.0,0.0,0.0,0.0,0.0,0.0,0.0,0.0
1647016800,24799,1644543063393568993,1,0.0,0.0,0.0,0.0,0.0,0.0,0.0,0.0,0.0,0.0,0.0,0.0,0.0,0.0,0.0,0.0,0.0,0.0,0.0,0.0,0.0,0.0,0.0,0.0,0.0,0.0686465501785,-9.64974308014,-0.0784531980753,0.0,0.0,0.0,0.0,0.0,0.0,0.0,0.0,0.0
1649249600,24800,1644543063395585775,1,0.0,0.0,0.0,0.0,0.0,0.0,0.0,0.0,0.0,0.0,0.0,0.0,0.0,0.0,0.0,0.0,0.0,0.0,0.0,0.0,0.0,0.0,0.0,0.0,0.0,0.490332484245,-9.64974308014,-0.264779537916,0.0,0.0,0.0,0.0,0.0,0.0,0.0,0.0,0.0
1651246300,24801,1644543063397602081,1,0.0,0.0,0.0,0.0,0.0,0.0,0.0,0.0,0.0,0.0,0.0,0.0,0.0,0.0,0.0,0.0,0.0,0.0,0.0,0.0,0.0,0.0,0.0,0.0,0.0,0.0980664938688,-9.81645679474,0.00980664975941,0.0,0.0,0.0,0.0,0.0,0.0,0.0,0.0,0.0
1653382000,24802,1644543063399618387,1,0.0,0.0,0.0,0.0,0.0,0.0,0.0,0.0,0.0,0.0,0.0,0.0,0.0,0.0,0.0,0.0,0.0,0.0,0.0,0.0,0.0,0.0,0.0,0.0,0.0,0.00980664975941,-9.81645679474,0.0686465501785,0.0,0.0,0.0,0.0,0.0,0.0,0.0,0.0,0.0
1655382900,24803,1644543063401632786,1,0.0,0.0,0.0,0.0,0.0,0.0,0.0,0.0,0.0,0.0,0.0,0.0,0.0,0.0,0.0,0.0,0.0,0.0,0.0,0.0,0.0,0.0,0.0,0.0,0.0,0.0784531980753,-9.7478094101,-0.0980664938688,0.0,0.0,0.0,0.0,0.0,0.0,0.0,0.0,0.0
1657664500,24804,1644543063403649092,1,0.0,0.0,0.0,0.0,0.0,0.0,0.0,0.0,0.0,0.0,0.0,0.0,0.0,0.0,0.0,0.0,0.0,0.0,0.0,0.0,0.0,0.0,0.0,0.0,0.0,0.12748645246,-9.7478094101,-0.00980664975941,0.0,0.0,0.0,0.0,0.0,0.0,0.0,0.0,0.0
1659779500,24805,1644543063405665874,1,0.0,0.0,0.0,0.0,0.0,0.0,0.0,0.0,0.0,0.0,0.0,0.0,0.0,0.0,0.0,0.0,0.0,0.0,0.0,0.0,0.0,0.0,0.0,0.0,0.0,0.166713044047,-9.7478094101,-0.0784531980753,0.0,0.0,0.0,0.0,0.0,0.0,0.0,0.0,0.0
1661451300,24806,1644543063407682180,1,0.0,0.0,0.0,0.0,0.0,0.0,0.0,0.0,0.0,0.0,0.0,0.0,0.0,0.0,0.0,0.0,0.0,0.0,0.0,0.0,0.0,0.0,0.0,0.0,0.0,0.0784531980753,-9.7478094101,-0.0784531980753,0.0,0.0,0.0,0.0,0.0,0.0,0.0,0.0,0.0
1663338600,24807,1644543063409698486,1,0.0,0.0,0.0,0.0,0.0,0.0,0.0,0.0,0.0,0.0,0.0,0.0,0.0,0.0,0.0,0.0,0.0,0.0,0.0,0.0,0.0,0.0,0.0,0.0,0.0,0.137293100357,-9.83607006073,0.0784531980753,0.0,0.0,0.0,0.0,0.0,0.0,0.0,0.0,0.0
1665319000,24808,1644543063411714792,1,0.0,0.0,0.0,0.0,0.0,0.0,0.0,0.0,0.0,0.0,0.0,0.0,0.0,0.0,0.0,0.0,0.0,0.0,0.0,0.0,0.0,0.0,0.0,0.0,0.0,0.166713044047,-9.86548995972,0.166713044047,0.0,0.0,0.0,0.0,0.0,0.0,0.0,0.0,0.0
1667327000,24809,1644543063413731337,1,0.0,0.0,0.0,0.0,0.0,0.0,0.0,0.0,0.0,0.0,0.0,0.0,0.0,0.0,0.0,0.0,0.0,0.0,0.0,0.0,0.0,0.0,0.0,0.0,0.0,0.12748645246,-9.83607006073,0.12748645246,0.0,0.0,0.0,0.0,0.0,0.0,0.0,0.0,0.0
1669278500,24810,1644543063415747881,1,0.0,0.0,0.0,0.0,0.0,0.0,0.0,0.0,0.0,0.0,0.0,0.0,0.0,0.0,0.0,0.0,0.0,0.0,0.0,0.0,0.0,0.0,0.0,0.0,0.0,0.0784531980753,-9.81645679474,0.0392265990376,0.0,0.0,0.0,0.0,0.0,0.0,0.0,0.0,0.0
1671265500,24811,1644543063417764187,1,0.0,0.0,0.0,0.0,0.0,0.0,0.0,0.0,0.0,0.0,0.0,0.0,0.0,0.0,0.0,0.0,0.0,0.0,0.0,0.0,0.0,0.0,0.0,0.0,0.0,0.12748645246,-9.80665016174,0.0784531980753,0.0,0.0,0.0,0.0,0.0,0.0,0.0,0.0,0.0
1673303400,24812,1644543063419780493,1,0.0,0.0,0.0,0.0,0.0,0.0,0.0,0.0,0.0,0.0,0.0,0.0,0.0,0.0,0.0,0.0,0.0,0.0,0.0,0.0,0.0,0.0,0.0,0.0,0.0,0.0980664938688,-9.78703689575,0.0686465501785,0.0,0.0,0.0,0.0,0.0,0.0,0.0,0.0,0.0
1675360000,24813,1644543063421794891,1,0.0,0.0,0.0,0.0,0.0,0.0,0.0,0.0,0.0,0.0,0.0,0.0,0.0,0.0,0.0,0.0,0.0,0.0,0.0,0.0,0.0,0.0,0.0,0.0,0.0,0.0980664938688,-9.7478094101,0.0,0.0,0.0,0.0,0.0,0.0,0.0,0.0,0.0,0.0
1677349300,24814,1644543063423811197,1,0.0,0.0,0.0,0.0,0.0,0.0,0.0,0.0,0.0,0.0,0.0,0.0,0.0,0.0,0.0,0.0,0.0,0.0,0.0,0.0,0.0,0.0,0.0,0.0,0.0,0.0784531980753,-9.7478094101,0.0392265990376,0.0,0.0,0.0,0.0,0.0,0.0,0.0,0.0,0.0
1679356100,24815,1644543063425827980,1,0.0,0.0,0.0,0.0,0.0,0.0,0.0,0.0,0.0,0.0,0.0,0.0,0.0,0.0,0.0,0.0,0.0,0.0,0.0,0.0,0.0,0.0,0.0,0.0,0.0,0.0784531980753,-9.70858287811,0.0,0.0,0.0,0.0,0.0,0.0,0.0,0.0,0.0,0.0
1681278700,24816,1644543063427844286,1,0.0,0.0,0.0,0.0,0.0,0.0,0.0,0.0,0.0,0.0,0.0,0.0,0.0,0.0,0.0,0.0,0.0,0.0,0.0,0.0,0.0,0.0,0.0,0.0,0.0,0.0980664938688,-9.71838951111,0.0,0.0,0.0,0.0,0.0,0.0,0.0,0.0,0.0,0.0
1683307700,24817,1644543063429860592,1,0.0,0.0,0.0,0.0,0.0,0.0,0.0,0.0,0.0,0.0,0.0,0.0,0.0,0.0,0.0,0.0,0.0,0.0,0.0,0.0,0.0,0.0,0.0,0.0,0.0,0.0784531980753,-9.71838951111,0.0294199492782,0.0,0.0,0.0,0.0,0.0,0.0,0.0,0.0,0.0
1685273600,24818,1644543063431874990,1,0.0,0.0,0.0,0.0,0.0,0.0,0.0,0.0,0.0,0.0,0.0,0.0,0.0,0.0,0.0,0.0,0.0,0.0,0.0,0.0,0.0,0.0,0.0,0.0,0.0,0.0980664938688,-9.7478094101,0.0,0.0,0.0,0.0,0.0,0.0,0.0,0.0,0.0,0.0
1687289500,24819,1644543063433891296,1,0.0,0.0,0.0,0.0,0.0,0.0,0.0,0.0,0.0,0.0,0.0,0.0,0.0,0.0,0.0,0.0,0.0,0.0,0.0,0.0,0.0,0.0,0.0,0.0,0.0,0.0784531980753,-9.70858287811,0.0,0.0,0.0,0.0,0.0,0.0,0.0,0.0,0.0,0.0
1689523900,24820,1644543063435907841,1,0.0,0.0,0.0,0.0,0.0,0.0,0.0,0.0,0.0,0.0,0.0,0.0,0.0,0.0,0.0,0.0,0.0,0.0,0.0,0.0,0.0,0.0,0.0,0.0,0.0,0.0980664938688,-9.70858287811,-0.0686465501785,0.0,0.0,0.0,0.0,0.0,0.0,0.0,0.0,0.0
1691468100,24821,1644543063437924385,1,0.0,0.0,0.0,0.0,0.0,0.0,0.0,0.0,0.0,0.0,0.0,0.0,0.0,0.0,0.0,0.0,0.0,0.0,0.0,0.0,0.0,0.0,0.0,0.0,0.0,0.0392265990376,-9.61051654816,-0.245166242123,0.0,0.0,0.0,0.0,0.0,0.0,0.0,0.0,0.0
1693474600,24822,1644543063439938784,1,0.0,0.0,0.0,0.0,0.0,0.0,0.0,0.0,0.0,0.0,0.0,0.0,0.0,0.0,0.0,0.0,0.0,0.0,0.0,0.0,0.0,0.0,0.0,0.0,0.0,0.0392265990376,-9.58109664917,-0.137293100357,0.0,0.0,0.0,0.0,0.0,0.0,0.0,0.0,0.0
1695533800,24823,1644543063441955090,1,0.0,0.0,0.0,0.0,0.0,0.0,0.0,0.0,0.0,0.0,0.0,0.0,0.0,0.0,0.0,0.0,0.0,0.0,0.0,0.0,0.0,0.0,0.0,0.0,0.0,0.0392265990376,-9.61051654816,-0.166713044047,0.0,0.0,0.0,0.0,0.0,0.0,0.0,0.0,0.0
1697483600,24824,1644543063443971395,1,0.0,0.0,0.0,0.0,0.0,0.0,0.0,0.0,0.0,0.0,0.0,0.0,0.0,0.0,0.0,0.0,0.0,0.0,0.0,0.0,0.0,0.0,0.0,0.0,0.0,0.0392265990376,-9.62032318115,-0.137293100357,0.0,0.0,0.0,0.0,0.0,0.0,0.0,0.0,0.0
1699484000,24825,1644543063445987940,1,0.0,0.0,0.0,0.0,0.0,0.0,0.0,0.0,0.0,0.0,0.0,0.0,0.0,0.0,0.0,0.0,0.0,0.0,0.0,0.0,0.0,0.0,0.0,0.0,0.0,0.0686465501785,-9.57129001617,-0.12748645246,0.0,0.0,0.0,0.0,0.0,0.0,0.0,0.0,0.0
1701533900,24826,1644543063448004484,1,0.0,0.0,0.0,0.0,0.0,0.0,0.0,0.0,0.0,0.0,0.0,0.0,0.0,0.0,0.0,0.0,0.0,0.0,0.0,0.0,0.0,0.0,0.0,0.0,0.0,0.0392265990376,-9.58109664917,-0.166713044047,0.0,0.0,0.0,0.0,0.0,0.0,0.0,0.0,0.0
1703798700,24827,1644543063450018883,1,0.0,0.0,0.0,0.0,0.0,0.0,0.0,0.0,0.0,0.0,0.0,0.0,0.0,0.0,0.0,0.0,0.0,0.0,0.0,0.0,0.0,0.0,0.0,0.0,0.0,0.0686465501785,-9.61051654816,-0.137293100357,0.0,0.0,0.0,0.0,0.0,0.0,0.0,0.0,0.0
1705953000,24828,1644543063452035189,1,0.0,0.0,0.0,0.0,0.0,0.0,0.0,0.0,0.0,0.0,0.0,0.0,0.0,0.0,0.0,0.0,0.0,0.0,0.0,0.0,0.0,0.0,0.0,0.0,0.0,0.0294199492782,-9.62032318115,-0.137293100357,0.0,0.0,0.0,0.0,0.0,0.0,0.0,0.0,0.0
1707672800,24829,1644543063454051495,1,0.0,0.0,0.0,0.0,0.0,0.0,0.0,0.0,0.0,0.0,0.0,0.0,0.0,0.0,0.0,0.0,0.0,0.0,0.0,0.0,0.0,0.0,0.0,0.0,0.0,0.0686465501785,-9.62032318115,-0.166713044047,0.0,0.0,0.0,0.0,0.0,0.0,0.0,0.0,0.0
1709595200,24830,1644543063456067801,1,0.0,0.0,0.0,0.0,0.0,0.0,0.0,0.0,0.0,0.0,0.0,0.0,0.0,0.0,0.0,0.0,0.0,0.0,0.0,0.0,0.0,0.0,0.0,0.0,0.0,0.0392265990376,-9.61051654816,-0.166713044047,0.0,0.0,0.0,0.0,0.0,0.0,0.0,0.0,0.0
1711598700,24831,1644543063458082199,1,0.0,0.0,0.0,0.0,0.0,0.0,0.0,0.0,0.0,0.0,0.0,0.0,0.0,0.0,0.0,0.0,0.0,0.0,0.0,0.0,0.0,0.0,0.0,0.0,0.0,0.0686465501785,-9.58109664917,-0.166713044047,0.0,0.0,0.0,0.0,0.0,0.0,0.0,0.0,0.0
1713509700,24832,1644543063460098982,1,0.0,0.0,0.0,0.0,0.0,0.0,0.0,0.0,0.0,0.0,0.0,0.0,0.0,0.0,0.0,0.0,0.0,0.0,0.0,0.0,0.0,0.0,0.0,0.0,0.0,0.0392265990376,-9.64974308014,-0.166713044047,0.0,0.0,0.0,0.0,0.0,0.0,0.0,0.0,0.0
1715480200,24833,1644543063462115288,1,0.0,0.0,0.0,0.0,0.0,0.0,0.0,0.0,0.0,0.0,0.0,0.0,0.0,0.0,0.0,0.0,0.0,0.0,0.0,0.0,0.0,0.0,0.0,0.0,0.0,0.0686465501785,-9.64974308014,-0.137293100357,0.0,0.0,0.0,0.0,0.0,0.0,0.0,0.0,0.0
1717850400,24834,1644543063464131594,1,0.0,0.0,0.0,0.0,0.0,0.0,0.0,0.0,0.0,0.0,0.0,0.0,0.0,0.0,0.0,0.0,0.0,0.0,0.0,0.0,0.0,0.0,0.0,0.0,0.0,0.12748645246,-9.64974308014,-0.137293100357,0.0,0.0,0.0,0.0,0.0,0.0,0.0,0.0,0.0
1719943500,24835,1644543063466147900,1,0.0,0.0,0.0,0.0,0.0,0.0,0.0,0.0,0.0,0.0,0.0,0.0,0.0,0.0,0.0,0.0,0.0,0.0,0.0,0.0,0.0,0.0,0.0,0.0,0.0,0.0980664938688,-9.66935634613,-0.0980664938688,0.0,0.0,0.0,0.0,0.0,0.0,0.0,0.0,0.0
1721844100,24836,1644543063468162298,1,0.0,0.0,0.0,0.0,0.0,0.0,0.0,0.0,0.0,0.0,0.0,0.0,0.0,0.0,0.0,0.0,0.0,0.0,0.0,0.0,0.0,0.0,0.0,0.0,0.0,0.12748645246,-9.70858287811,-0.0980664938688,0.0,0.0,0.0,0.0,0.0,0.0,0.0,0.0,0.0
1723853100,24837,1644543063470178843,1,0.0,0.0,0.0,0.0,0.0,0.0,0.0,0.0,0.0,0.0,0.0,0.0,0.0,0.0,0.0,0.0,0.0,0.0,0.0,0.0,0.0,0.0,0.0,0.0,0.0,0.0980664938688,-9.70858287811,-0.0294199492782,0.0,0.0,0.0,0.0,0.0,0.0,0.0,0.0,0.0
1725499500,24838,1644543063472195387,1,0.0,0.0,0.0,0.0,0.0,0.0,0.0,0.0,0.0,0.0,0.0,0.0,0.0,0.0,0.0,0.0,0.0,0.0,0.0,0.0,0.0,0.0,0.0,0.0,0.0,0.0980664938688,-9.7478094101,-0.00980664975941,0.0,0.0,0.0,0.0,0.0,0.0,0.0,0.0,0.0
1727827700,24839,1644543063474213600,1,0.0,0.0,0.0,0.0,0.0,0.0,0.0,0.0,0.0,0.0,0.0,0.0,0.0,0.0,0.0,0.0,0.0,0.0,0.0,0.0,0.0,0.0,0.0,0.0,0.0,0.0980664938688,-9.7478094101,0.0294199492782,0.0,0.0,0.0,0.0,0.0,0.0,0.0,0.0,0.0
1729783500,24840,1644543063476229906,1,0.0,0.0,0.0,0.0,0.0,0.0,0.0,0.0,0.0,0.0,0.0,0.0,0.0,0.0,0.0,0.0,0.0,0.0,0.0,0.0,0.0,0.0,0.0,0.0,0.0,0.0784531980753,-9.7478094101,0.0392265990376,0.0,0.0,0.0,0.0,0.0,0.0,0.0,0.0,0.0
1731828400,24841,1644543063478246689,1,0.0,0.0,0.0,0.0,0.0,0.0,0.0,0.0,0.0,0.0,0.0,0.0,0.0,0.0,0.0,0.0,0.0,0.0,0.0,0.0,0.0,0.0,0.0,0.0,0.0,0.12748645246,-9.7478094101,0.0392265990376,0.0,0.0,0.0,0.0,0.0,0.0,0.0,0.0,0.0
1733851300,24842,1644543063480261087,1,0.0,0.0,0.0,0.0,0.0,0.0,0.0,0.0,0.0,0.0,0.0,0.0,0.0,0.0,0.0,0.0,0.0,0.0,0.0,0.0,0.0,0.0,0.0,0.0,0.0,0.12748645246,-9.78703689575,0.00980664975941,0.0,0.0,0.0,0.0,0.0,0.0,0.0,0.0,0.0
1736018600,24843,1644543063482275486,1,0.0,0.0,0.0,0.0,0.0,0.0,0.0,0.0,0.0,0.0,0.0,0.0,0.0,0.0,0.0,0.0,0.0,0.0,0.0,0.0,0.0,0.0,0.0,0.0,0.0,0.137293100357,-9.75761604309,-0.00980664975941,0.0,0.0,0.0,0.0,0.0,0.0,0.0,0.0,0.0
1737770700,24844,1644543063484291792,1,0.0,0.0,0.0,0.0,0.0,0.0,0.0,0.0,0.0,0.0,0.0,0.0,0.0,0.0,0.0,0.0,0.0,0.0,0.0,0.0,0.0,0.0,0.0,0.0,0.0,0.166713044047,-9.7478094101,-0.0980664938688,0.0,0.0,0.0,0.0,0.0,0.0,0.0,0.0,0.0
1739754700,24845,1644543063486308098,1,0.0,0.0,0.0,0.0,0.0,0.0,0.0,0.0,0.0,0.0,0.0,0.0,0.0,0.0,0.0,0.0,0.0,0.0,0.0,0.0,0.0,0.0,0.0,0.0,0.0,0.166713044047,-9.61051654816,-0.166713044047,0.0,0.0,0.0,0.0,0.0,0.0,0.0,0.0,0.0
1741805100,24846,1644543063488324404,1,0.0,0.0,0.0,0.0,0.0,0.0,0.0,0.0,0.0,0.0,0.0,0.0,0.0,0.0,0.0,0.0,0.0,0.0,0.0,0.0,0.0,0.0,0.0,0.0,0.0,0.166713044047,-9.62032318115,-0.264779537916,0.0,0.0,0.0,0.0,0.0,0.0,0.0,0.0,0.0
1743852100,24847,1644543063490338802,1,0.0,0.0,0.0,0.0,0.0,0.0,0.0,0.0,0.0,0.0,0.0,0.0,0.0,0.0,0.0,0.0,0.0,0.0,0.0,0.0,0.0,0.0,0.0,0.0,0.0,0.166713044047,-9.61051654816,-0.245166242123,0.0,0.0,0.0,0.0,0.0,0.0,0.0,0.0,0.0
1746124500,24848,1644543063492355108,1,0.0,0.0,0.0,0.0,0.0,0.0,0.0,0.0,0.0,0.0,0.0,0.0,0.0,0.0,0.0,0.0,0.0,0.0,0.0,0.0,0.0,0.0,0.0,0.0,0.0,0.166713044047,-9.62032318115,-0.274586200714,0.0,0.0,0.0,0.0,0.0,0.0,0.0,0.0,0.0
1747860200,24849,1644543063494371891,1,0.0,0.0,0.0,0.0,0.0,0.0,0.0,0.0,0.0,0.0,0.0,0.0,0.0,0.0,0.0,0.0,0.0,0.0,0.0,0.0,0.0,0.0,0.0,0.0,0.0,0.166713044047,-9.62032318115,-0.264779537916,0.0,0.0,0.0,0.0,0.0,0.0,0.0,0.0,0.0
1749899100,24850,1644543063496388197,1,0.0,0.0,0.0,0.0,0.0,0.0,0.0,0.0,0.0,0.0,0.0,0.0,0.0,0.0,0.0,0.0,0.0,0.0,0.0,0.0,0.0,0.0,0.0,0.0,0.0,0.137293100357,-9.66935634613,-0.166713044047,0.0,0.0,0.0,0.0,0.0,0.0,0.0,0.0,0.0
1752335200,24851,1644543063498402596,1,0.0,0.0,0.0,0.0,0.0,0.0,0.0,0.0,0.0,0.0,0.0,0.0,0.0,0.0,0.0,0.0,0.0,0.0,0.0,0.0,0.0,0.0,0.0,0.0,0.0,0.166713044047,-9.71838951111,-0.137293100357,0.0,0.0,0.0,0.0,0.0,0.0,0.0,0.0,0.0
1754112000,24852,1644543063500418901,1,0.0,0.0,0.0,0.0,0.0,0.0,0.0,0.0,0.0,0.0,0.0,0.0,0.0,0.0,0.0,0.0,0.0,0.0,0.0,0.0,0.0,0.0,0.0,0.0,0.0,0.196132987738,-9.75761604309,-0.0784531980753,0.0,0.0,0.0,0.0,0.0,0.0,0.0,0.0,0.0
1756287700,24853,1644543063502435207,1,0.0,0.0,0.0,0.0,0.0,0.0,0.0,0.0,0.0,0.0,0.0,0.0,0.0,0.0,0.0,0.0,0.0,0.0,0.0,0.0,0.0,0.0,0.0,0.0,0.0,0.137293100357,-9.70858287811,-0.137293100357,0.0,0.0,0.0,0.0,0.0,0.0,0.0,0.0,0.0
1757956900,24854,1644543063504451990,1,0.0,0.0,0.0,0.0,0.0,0.0,0.0,0.0,0.0,0.0,0.0,0.0,0.0,0.0,0.0,0.0,0.0,0.0,0.0,0.0,0.0,0.0,0.0,0.0,0.0,0.166713044047,-9.67916297913,-0.176519691944,0.0,0.0,0.0,0.0,0.0,0.0,0.0,0.0,0.0
1760187700,24855,1644543063506468296,1,0.0,0.0,0.0,0.0,0.0,0.0,0.0,0.0,0.0,0.0,0.0,0.0,0.0,0.0,0.0,0.0,0.0,0.0,0.0,0.0,0.0,0.0,0.0,0.0,0.0,0.166713044047,-9.58109664917,-0.294199496508,0.0,0.0,0.0,0.0,0.0,0.0,0.0,0.0,0.0
1762166900,24856,1644543063508482695,1,0.0,0.0,0.0,0.0,0.0,0.0,0.0,0.0,0.0,0.0,0.0,0.0,0.0,0.0,0.0,0.0,0.0,0.0,0.0,0.0,0.0,0.0,0.0,0.0,0.0,0.12748645246,-9.61051654816,-0.294199496508,0.0,0.0,0.0,0.0,0.0,0.0,0.0,0.0,0.0
1764115400,24857,1644543063510499001,1,0.0,0.0,0.0,0.0,0.0,0.0,0.0,0.0,0.0,0.0,0.0,0.0,0.0,0.0,0.0,0.0,0.0,0.0,0.0,0.0,0.0,0.0,0.0,0.0,0.0,0.12748645246,-9.61051654816,-0.313812792301,0.0,0.0,0.0,0.0,0.0,0.0,0.0,0.0,0.0
1766581700,24858,1644543063512515306,1,0.0,0.0,0.0,0.0,0.0,0.0,0.0,0.0,0.0,0.0,0.0,0.0,0.0,0.0,0.0,0.0,0.0,0.0,0.0,0.0,0.0,0.0,0.0,0.0,0.0,0.137293100357,-9.58109664917,-0.362846046686,0.0,0.0,0.0,0.0,0.0,0.0,0.0,0.0,0.0
1768065900,24859,1644543063514531851,1,0.0,0.0,0.0,0.0,0.0,0.0,0.0,0.0,0.0,0.0,0.0,0.0,0.0,0.0,0.0,0.0,0.0,0.0,0.0,0.0,0.0,0.0,0.0,0.0,0.0,0.137293100357,-9.57129001617,-0.421685934067,0.0,0.0,0.0,0.0,0.0,0.0,0.0,0.0,0.0
1770018400,24860,1644543063516548395,1,0.0,0.0,0.0,0.0,0.0,0.0,0.0,0.0,0.0,0.0,0.0,0.0,0.0,0.0,0.0,0.0,0.0,0.0,0.0,0.0,0.0,0.0,0.0,0.0,0.0,0.0980664938688,-9.58109664917,-0.362846046686,0.0,0.0,0.0,0.0,0.0,0.0,0.0,0.0,0.0
1772007100,24861,1644543063518564701,1,0.0,0.0,0.0,0.0,0.0,0.0,0.0,0.0,0.0,0.0,0.0,0.0,0.0,0.0,0.0,0.0,0.0,0.0,0.0,0.0,0.0,0.0,0.0,0.0,0.0,0.0980664938688,-9.58109664917,-0.274586200714,0.0,0.0,0.0,0.0,0.0,0.0,0.0,0.0,0.0
1774039200,24862,1644543063520581007,1,0.0,0.0,0.0,0.0,0.0,0.0,0.0,0.0,0.0,0.0,0.0,0.0,0.0,0.0,0.0,0.0,0.0,0.0,0.0,0.0,0.0,0.0,0.0,0.0,0.0,0.12748645246,-9.5222568512,-0.343232750893,0.0,0.0,0.0,0.0,0.0,0.0,0.0,0.0,0.0
1776079500,24863,1644543063522595406,1,0.0,0.0,0.0,0.0,0.0,0.0,0.0,0.0,0.0,0.0,0.0,0.0,0.0,0.0,0.0,0.0,0.0,0.0,0.0,0.0,0.0,0.0,0.0,0.0,0.0,0.12748645246,-9.62032318115,-0.264779537916,0.0,0.0,0.0,0.0,0.0,0.0,0.0,0.0,0.0
1778106800,24864,1644543063524611712,1,0.0,0.0,0.0,0.0,0.0,0.0,0.0,0.0,0.0,0.0,0.0,0.0,0.0,0.0,0.0,0.0,0.0,0.0,0.0,0.0,0.0,0.0,0.0,0.0,0.0,0.0980664938688,-9.62032318115,-0.245166242123,0.0,0.0,0.0,0.0,0.0,0.0,0.0,0.0,0.0
1780420100,24865,1644543063526628256,1,0.0,0.0,0.0,0.0,0.0,0.0,0.0,0.0,0.0,0.0,0.0,0.0,0.0,0.0,0.0,0.0,0.0,0.0,0.0,0.0,0.0,0.0,0.0,0.0,0.0,0.0980664938688,-9.61051654816,-0.196132987738,0.0,0.0,0.0,0.0,0.0,0.0,0.0,0.0,0.0
1782427400,24866,1644543063528644800,1,0.0,0.0,0.0,0.0,0.0,0.0,0.0,0.0,0.0,0.0,0.0,0.0,0.0,0.0,0.0,0.0,0.0,0.0,0.0,0.0,0.0,0.0,0.0,0.0,0.0,0.0784531980753,-9.61051654816,-0.264779537916,0.0,0.0,0.0,0.0,0.0,0.0,0.0,0.0,0.0
1784651900,24867,1644543063530661106,1,0.0,0.0,0.0,0.0,0.0,0.0,0.0,0.0,0.0,0.0,0.0,0.0,0.0,0.0,0.0,0.0,0.0,0.0,0.0,0.0,0.0,0.0,0.0,0.0,0.0,0.0784531980753,-9.61051654816,-0.294199496508,0.0,0.0,0.0,0.0,0.0,0.0,0.0,0.0,0.0
1786273600,24868,1644543063532677412,1,0.0,0.0,0.0,0.0,0.0,0.0,0.0,0.0,0.0,0.0,0.0,0.0,0.0,0.0,0.0,0.0,0.0,0.0,0.0,0.0,0.0,0.0,0.0,0.0,0.0,0.0784531980753,-9.61051654816,-0.245166242123,0.0,0.0,0.0,0.0,0.0,0.0,0.0,0.0,0.0
1788169600,24869,1644543063534693956,1,0.0,0.0,0.0,0.0,0.0,0.0,0.0,0.0,0.0,0.0,0.0,0.0,0.0,0.0,0.0,0.0,0.0,0.0,0.0,0.0,0.0,0.0,0.0,0.0,0.0,0.0980664938688,-9.71838951111,-0.196132987738,0.0,0.0,0.0,0.0,0.0,0.0,0.0,0.0,0.0
1790132500,24870,1644543063536708355,1,0.0,0.0,0.0,0.0,0.0,0.0,0.0,0.0,0.0,0.0,0.0,0.0,0.0,0.0,0.0,0.0,0.0,0.0,0.0,0.0,0.0,0.0,0.0,0.0,0.0,0.12748645246,-9.70858287811,-0.196132987738,0.0,0.0,0.0,0.0,0.0,0.0,0.0,0.0,0.0
1792093100,24871,1644543063538724661,1,0.0,0.0,0.0,0.0,0.0,0.0,0.0,0.0,0.0,0.0,0.0,0.0,0.0,0.0,0.0,0.0,0.0,0.0,0.0,0.0,0.0,0.0,0.0,0.0,0.0,0.0980664938688,-9.66935634613,-0.245166242123,0.0,0.0,0.0,0.0,0.0,0.0,0.0,0.0,0.0
1794096000,24872,1644543063540741205,1,0.0,0.0,0.0,0.0,0.0,0.0,0.0,0.0,0.0,0.0,0.0,0.0,0.0,0.0,0.0,0.0,0.0,0.0,0.0,0.0,0.0,0.0,0.0,0.0,0.0,0.0784531980753,-9.64974308014,-0.196132987738,0.0,0.0,0.0,0.0,0.0,0.0,0.0,0.0,0.0
1796077900,24873,1644543063542757511,1,0.0,0.0,0.0,0.0,0.0,0.0,0.0,0.0,0.0,0.0,0.0,0.0,0.0,0.0,0.0,0.0,0.0,0.0,0.0,0.0,0.0,0.0,0.0,0.0,0.0,0.0686465501785,-9.58109664917,-0.294199496508,0.0,0.0,0.0,0.0,0.0,0.0,0.0,0.0,0.0
1798097100,24874,1644543063544773817,1,0.0,0.0,0.0,0.0,0.0,0.0,0.0,0.0,0.0,0.0,0.0,0.0,0.0,0.0,0.0,0.0,0.0,0.0,0.0,0.0,0.0,0.0,0.0,0.0,0.0,0.0392265990376,-9.61051654816,-0.245166242123,0.0,0.0,0.0,0.0,0.0,0.0,0.0,0.0,0.0
1800140900,24875,1644543063546788216,1,0.0,0.0,0.0,0.0,0.0,0.0,0.0,0.0,0.0,0.0,0.0,0.0,0.0,0.0,0.0,0.0,0.0,0.0,0.0,0.0,0.0,0.0,0.0,0.0,0.0,0.0392265990376,-9.61051654816,-0.264779537916,0.0,0.0,0.0,0.0,0.0,0.0,0.0,0.0,0.0
1802092200,24876,1644543063548804760,1,0.0,0.0,0.0,0.0,0.0,0.0,0.0,0.0,0.0,0.0,0.0,0.0,0.0,0.0,0.0,0.0,0.0,0.0,0.0,0.0,0.0,0.0,0.0,0.0,0.0,0.0686465501785,-9.58109664917,-0.343232750893,0.0,0.0,0.0,0.0,0.0,0.0,0.0,0.0,0.0
1804119100,24877,1644543063550821066,1,0.0,0.0,0.0,0.0,0.0,0.0,0.0,0.0,0.0,0.0,0.0,0.0,0.0,0.0,0.0,0.0,0.0,0.0,0.0,0.0,0.0,0.0,0.0,0.0,0.0,0.0686465501785,-9.57129001617,-0.313812792301,0.0,0.0,0.0,0.0,0.0,0.0,0.0,0.0,0.0
1806280100,24878,1644543063552837610,1,0.0,0.0,0.0,0.0,0.0,0.0,0.0,0.0,0.0,0.0,0.0,0.0,0.0,0.0,0.0,0.0,0.0,0.0,0.0,0.0,0.0,0.0,0.0,0.0,0.0,0.0392265990376,-9.57129001617,-0.402072638273,0.0,0.0,0.0,0.0,0.0,0.0,0.0,0.0,0.0
1808318500,24879,1644543063554853916,1,0.0,0.0,0.0,0.0,0.0,0.0,0.0,0.0,0.0,0.0,0.0,0.0,0.0,0.0,0.0,0.0,0.0,0.0,0.0,0.0,0.0,0.0,0.0,0.0,0.0,0.0392265990376,-9.58109664917,-0.343232750893,0.0,0.0,0.0,0.0,0.0,0.0,0.0,0.0,0.0
1810232800,24880,1644543063556870461,1,0.0,0.0,0.0,0.0,0.0,0.0,0.0,0.0,0.0,0.0,0.0,0.0,0.0,0.0,0.0,0.0,0.0,0.0,0.0,0.0,0.0,0.0,0.0,0.0,0.0,0.0686465501785,-9.56148338318,-0.313812792301,0.0,0.0,0.0,0.0,0.0,0.0,0.0,0.0,0.0
1812268000,24881,1644543063558886766,1,0.0,0.0,0.0,0.0,0.0,0.0,0.0,0.0,0.0,0.0,0.0,0.0,0.0,0.0,0.0,0.0,0.0,0.0,0.0,0.0,0.0,0.0,0.0,0.0,0.0,0.0392265990376,-9.61051654816,-0.274586200714,0.0,0.0,0.0,0.0,0.0,0.0,0.0,0.0,0.0
1814229600,24882,1644543063560903072,1,0.0,0.0,0.0,0.0,0.0,0.0,0.0,0.0,0.0,0.0,0.0,0.0,0.0,0.0,0.0,0.0,0.0,0.0,0.0,0.0,0.0,0.0,0.0,0.0,0.0,0.0392265990376,-9.71838951111,-0.196132987738,0.0,0.0,0.0,0.0,0.0,0.0,0.0,0.0,0.0
1816294500,24883,1644543063562919617,1,0.0,0.0,0.0,0.0,0.0,0.0,0.0,0.0,0.0,0.0,0.0,0.0,0.0,0.0,0.0,0.0,0.0,0.0,0.0,0.0,0.0,0.0,0.0,0.0,0.0,0.12748645246,-9.70858287811,-0.137293100357,0.0,0.0,0.0,0.0,0.0,0.0,0.0,0.0,0.0
1818246000,24884,1644543063564934015,1,0.0,0.0,0.0,0.0,0.0,0.0,0.0,0.0,0.0,0.0,0.0,0.0,0.0,0.0,0.0,0.0,0.0,0.0,0.0,0.0,0.0,0.0,0.0,0.0,0.0,0.0784531980753,-9.75761604309,-0.0784531980753,0.0,0.0,0.0,0.0,0.0,0.0,0.0,0.0,0.0
1820279200,24885,1644543063566950321,1,0.0,0.0,0.0,0.0,0.0,0.0,0.0,0.0,0.0,0.0,0.0,0.0,0.0,0.0,0.0,0.0,0.0,0.0,0.0,0.0,0.0,0.0,0.0,0.0,0.0,0.0686465501785,-9.75761604309,-0.0784531980753,0.0,0.0,0.0,0.0,0.0,0.0,0.0,0.0,0.0
1822277000,24886,1644543063568966866,1,0.0,0.0,0.0,0.0,0.0,0.0,0.0,0.0,0.0,0.0,0.0,0.0,0.0,0.0,0.0,0.0,0.0,0.0,0.0,0.0,0.0,0.0,0.0,0.0,0.0,0.0784531980753,-9.80665016174,-0.0686465501785,0.0,0.0,0.0,0.0,0.0,0.0,0.0,0.0,0.0
1824307400,24887,1644543063570983171,1,0.0,0.0,0.0,0.0,0.0,0.0,0.0,0.0,0.0,0.0,0.0,0.0,0.0,0.0,0.0,0.0,0.0,0.0,0.0,0.0,0.0,0.0,0.0,0.0,0.0,0.0980664938688,-9.71838951111,-0.0784531980753,0.0,0.0,0.0,0.0,0.0,0.0,0.0,0.0,0.0
1826407900,24888,1644543063572999477,1,0.0,0.0,0.0,0.0,0.0,0.0,0.0,0.0,0.0,0.0,0.0,0.0,0.0,0.0,0.0,0.0,0.0,0.0,0.0,0.0,0.0,0.0,0.0,0.0,0.0,0.0686465501785,-9.71838951111,-0.137293100357,0.0,0.0,0.0,0.0,0.0,0.0,0.0,0.0,0.0
1828726900,24889,1644543063575015783,1,0.0,0.0,0.0,0.0,0.0,0.0,0.0,0.0,0.0,0.0,0.0,0.0,0.0,0.0,0.0,0.0,0.0,0.0,0.0,0.0,0.0,0.0,0.0,0.0,0.0,0.0686465501785,-9.70858287811,-0.196132987738,0.0,0.0,0.0,0.0,0.0,0.0,0.0,0.0,0.0
1830835800,24890,1644543063577032566,1,0.0,0.0,0.0,0.0,0.0,0.0,0.0,0.0,0.0,0.0,0.0,0.0,0.0,0.0,0.0,0.0,0.0,0.0,0.0,0.0,0.0,0.0,0.0,0.0,0.0,0.0784531980753,-9.71838951111,-0.196132987738,0.0,0.0,0.0,0.0,0.0,0.0,0.0,0.0,0.0
1832654000,24891,1644543063579048872,1,0.0,0.0,0.0,0.0,0.0,0.0,0.0,0.0,0.0,0.0,0.0,0.0,0.0,0.0,0.0,0.0,0.0,0.0,0.0,0.0,0.0,0.0,0.0,0.0,0.0,0.0686465501785,-9.71838951111,-0.274586200714,0.0,0.0,0.0,0.0,0.0,0.0,0.0,0.0,0.0
1834654400,24892,1644543063581065178,1,0.0,0.0,0.0,0.0,0.0,0.0,0.0,0.0,0.0,0.0,0.0,0.0,0.0,0.0,0.0,0.0,0.0,0.0,0.0,0.0,0.0,0.0,0.0,0.0,0.0,0.0784531980753,-9.7478094101,-0.225552946329,0.0,0.0,0.0,0.0,0.0,0.0,0.0,0.0,0.0
1836603700,24893,1644543063583079576,1,0.0,0.0,0.0,0.0,0.0,0.0,0.0,0.0,0.0,0.0,0.0,0.0,0.0,0.0,0.0,0.0,0.0,0.0,0.0,0.0,0.0,0.0,0.0,0.0,0.0,0.0980664938688,-9.78703689575,-0.196132987738,0.0,0.0,0.0,0.0,0.0,0.0,0.0,0.0,0.0
