%time,field.header.seq,field.header.stamp,field.header.frame_id,field.orientation.x,field.orientation.y,field.orientation.z,field.orientation.w,field.orientation_covariance0,field.orientation_covariance1,field.orientation_covariance2,field.orientation_covariance3,field.orientation_covariance4,field.orientation_covariance5,field.orientation_covariance6,field.orientation_covariance7,field.orientation_covariance8,field.angular_velocity.x,field.angular_velocity.y,field.angular_velocity.z,field.angular_velocity_covariance0,field.angular_velocity_covariance1,field.angular_velocity_covariance2,field.angular_velocity_covariance3,field.angular_velocity_covariance4,field.angular_velocity_covariance5,field.angular_velocity_covariance6,field.angular_velocity_covariance7,field.angular_velocity_covariance8,field.linear_acceleration.x,field.linear_acceleration.y,field.linear_acceleration.z,field.linear_acceleration_covariance0,field.linear_acceleration_covariance1,field.linear_acceleration_covariance2,field.linear_acceleration_covariance3,field.linear_acceleration_covariance4,field.linear_acceleration_covariance5,field.linear_acceleration_covariance6,field.linear_acceleration_covariance7,field.linear_acceleration_covariance8
300,176501,1644542405353564262,1,0.0,0.0,0.0,0.0,0.0,0.0,0.0,0.0,0.0,0.0,0.0,0.0,0.0,0.0,0.0,0.0,0.0,0.0,0.0,0.0,0.0,0.0,0.0,0.0,0.0,0.549172401428,-9.5222568512,0.00980664975941,0.0,0.0,0.0,0.0,0.0,0.0,0.0,0.0,0.0
1858000,176502,1644542405355579853,1,0.0,0.0,0.0,0.0,0.0,0.0,0.0,0.0,0.0,0.0,0.0,0.0,0.0,0.0,0.0,0.0,0.0,0.0,0.0,0.0,0.0,0.0,0.0,0.0,0.0,0.57859236002,-9.62032318115,0.0392265990376,0.0,0.0,0.0,0.0,0.0,0.0,0.0,0.0,0.0
4238300,176503,1644542405357593536,1,0.0,0.0,0.0,0.0,0.0,0.0,0.0,0.0,0.0,0.0,0.0,0.0,0.0,0.0,0.0,0.0,0.0,0.0,0.0,0.0,0.0,0.0,0.0,0.0,0.0,0.558979034424,-9.62032318115,0.176519691944,0.0,0.0,0.0,0.0,0.0,0.0,0.0,0.0,0.0
6056900,176504,1644542405359606981,1,0.0,0.0,0.0,0.0,0.0,0.0,0.0,0.0,0.0,0.0,0.0,0.0,0.0,0.0,0.0,0.0,0.0,0.0,0.0,0.0,0.0,0.0,0.0,0.0,0.0,0.558979034424,-9.66935634613,0.274586200714,0.0,0.0,0.0,0.0,0.0,0.0,0.0,0.0,0.0
8012300,176505,1644542405361620665,1,0.0,0.0,0.0,0.0,0.0,0.0,0.0,0.0,0.0,0.0,0.0,0.0,0.0,0.0,0.0,0.0,0.0,0.0,0.0,0.0,0.0,0.0,0.0,0.0,0.0,0.558979034424,-9.64974308014,0.264779537916,0.0,0.0,0.0,0.0,0.0,0.0,0.0,0.0,0.0
10094000,176506,1644542405363636255,1,0.0,0.0,0.0,0.0,0.0,0.0,0.0,0.0,0.0,0.0,0.0,0.0,0.0,0.0,0.0,0.0,0.0,0.0,0.0,0.0,0.0,0.0,0.0,0.0,0.0,0.598205626011,-9.66935634613,0.264779537916,0.0,0.0,0.0,0.0,0.0,0.0,0.0,0.0,0.0
12145500,176507,1644542405365649700,1,0.0,0.0,0.0,0.0,0.0,0.0,0.0,0.0,0.0,0.0,0.0,0.0,0.0,0.0,0.0,0.0,0.0,0.0,0.0,0.0,0.0,0.0,0.0,0.0,0.0,0.627625584602,-9.61051654816,0.264779537916,0.0,0.0,0.0,0.0,0.0,0.0,0.0,0.0,0.0
14203500,176508,1644542405367663383,1,0.0,0.0,0.0,0.0,0.0,0.0,0.0,0.0,0.0,0.0,0.0,0.0,0.0,0.0,0.0,0.0,0.0,0.0,0.0,0.0,0.0,0.0,0.0,0.0,0.0,0.686465501785,-9.70858287811,0.274586200714,0.0,0.0,0.0,0.0,0.0,0.0,0.0,0.0,0.0
16370600,176509,1644542405369677067,1,0.0,0.0,0.0,0.0,0.0,0.0,0.0,0.0,0.0,0.0,0.0,0.0,0.0,0.0,0.0,0.0,0.0,0.0,0.0,0.0,0.0,0.0,0.0,0.0,0.0,0.627625584602,-9.66935634613,0.245166242123,0.0,0.0,0.0,0.0,0.0,0.0,0.0,0.0,0.0
18158400,176510,1644542405371692419,1,0.0,0.0,0.0,0.0,0.0,0.0,0.0,0.0,0.0,0.0,0.0,0.0,0.0,0.0,0.0,0.0,0.0,0.0,0.0,0.0,0.0,0.0,0.0,0.0,0.0,0.627625584602,-9.64974308014,0.294199496508,0.0,0.0,0.0,0.0,0.0,0.0,0.0,0.0,0.0
20108400,176511,1644542405373706102,1,0.0,0.0,0.0,0.0,0.0,0.0,0.0,0.0,0.0,0.0,0.0,0.0,0.0,0.0,0.0,0.0,0.0,0.0,0.0,0.0,0.0,0.0,0.0,0.0,0.0,0.598205626011,-9.70858287811,0.245166242123,0.0,0.0,0.0,0.0,0.0,0.0,0.0,0.0,0.0
22115800,176512,1644542405375719786,1,0.0,0.0,0.0,0.0,0.0,0.0,0.0,0.0,0.0,0.0,0.0,0.0,0.0,0.0,0.0,0.0,0.0,0.0,0.0,0.0,0.0,0.0,0.0,0.0,0.0,0.627625584602,-9.67916297913,0.196132987738,0.0,0.0,0.0,0.0,0.0,0.0,0.0,0.0,0.0
24111800,176513,1644542405377735138,1,0.0,0.0,0.0,0.0,0.0,0.0,0.0,0.0,0.0,0.0,0.0,0.0,0.0,0.0,0.0,0.0,0.0,0.0,0.0,0.0,0.0,0.0,0.0,0.0,0.0,0.627625584602,-9.62032318115,0.264779537916,0.0,0.0,0.0,0.0,0.0,0.0,0.0,0.0,0.0
26130600,176514,1644542405379749060,1,0.0,0.0,0.0,0.0,0.0,0.0,0.0,0.0,0.0,0.0,0.0,0.0,0.0,0.0,0.0,0.0,0.0,0.0,0.0,0.0,0.0,0.0,0.0,0.0,0.0,0.558979034424,-9.61051654816,0.225552946329,0.0,0.0,0.0,0.0,0.0,0.0,0.0,0.0,0.0
28108100,176515,1644542405381762743,1,0.0,0.0,0.0,0.0,0.0,0.0,0.0,0.0,0.0,0.0,0.0,0.0,0.0,0.0,0.0,0.0,0.0,0.0,0.0,0.0,0.0,0.0,0.0,0.0,0.0,0.529559075832,-9.58109664917,0.225552946329,0.0,0.0,0.0,0.0,0.0,0.0,0.0,0.0,0.0
30110100,176516,1644542405383776665,1,0.0,0.0,0.0,0.0,0.0,0.0,0.0,0.0,0.0,0.0,0.0,0.0,0.0,0.0,0.0,0.0,0.0,0.0,0.0,0.0,0.0,0.0,0.0,0.0,0.0,0.558979034424,-9.53206348419,0.176519691944,0.0,0.0,0.0,0.0,0.0,0.0,0.0,0.0,0.0
729034500,176863,1644542406082256079,1,0.0,0.0,0.0,0.0,0.0,0.0,0.0,0.0,0.0,0.0,0.0,0.0,0.0,0.0,0.0,0.0,0.0,0.0,0.0,0.0,0.0,0.0,0.0,0.0,0.0,0.598205626011,-9.62032318115,0.176519691944,0.0,0.0,0.0,0.0,0.0,0.0,0.0,0.0,0.0
731454700,176864,1644542406084268570,1,0.0,0.0,0.0,0.0,0.0,0.0,0.0,0.0,0.0,0.0,0.0,0.0,0.0,0.0,0.0,0.0,0.0,0.0,0.0,0.0,0.0,0.0,0.0,0.0,0.0,0.627625584602,-9.64974308014,0.176519691944,0.0,0.0,0.0,0.0,0.0,0.0,0.0,0.0,0.0
733603000,176865,1644542406086280823,1,0.0,0.0,0.0,0.0,0.0,0.0,0.0,0.0,0.0,0.0,0.0,0.0,0.0,0.0,0.0,0.0,0.0,0.0,0.0,0.0,0.0,0.0,0.0,0.0,0.0,0.558979034424,-9.58109664917,0.294199496508,0.0,0.0,0.0,0.0,0.0,0.0,0.0,0.0,0.0
735172600,176866,1644542406088293314,1,0.0,0.0,0.0,0.0,0.0,0.0,0.0,0.0,0.0,0.0,0.0,0.0,0.0,0.0,0.0,0.0,0.0,0.0,0.0,0.0,0.0,0.0,0.0,0.0,0.0,0.627625584602,-9.66935634613,0.225552946329,0.0,0.0,0.0,0.0,0.0,0.0,0.0,0.0,0.0
737180900,176867,1644542406090305328,1,0.0,0.0,0.0,0.0,0.0,0.0,0.0,0.0,0.0,0.0,0.0,0.0,0.0,0.0,0.0,0.0,0.0,0.0,0.0,0.0,0.0,0.0,0.0,0.0,0.0,0.57859236002,-9.62032318115,0.176519691944,0.0,0.0,0.0,0.0,0.0,0.0,0.0,0.0,0.0
739086600,176868,1644542406092319727,1,0.0,0.0,0.0,0.0,0.0,0.0,0.0,0.0,0.0,0.0,0.0,0.0,0.0,0.0,0.0,0.0,0.0,0.0,0.0,0.0,0.0,0.0,0.0,0.0,0.0,0.598205626011,-9.61051654816,0.176519691944,0.0,0.0,0.0,0.0,0.0,0.0,0.0,0.0,0.0
741250300,176869,1644542406094331980,1,0.0,0.0,0.0,0.0,0.0,0.0,0.0,0.0,0.0,0.0,0.0,0.0,0.0,0.0,0.0,0.0,0.0,0.0,0.0,0.0,0.0,0.0,0.0,0.0,0.0,0.529559075832,-9.62032318115,0.137293100357,0.0,0.0,0.0,0.0,0.0,0.0,0.0,0.0,0.0
743511900,176870,1644542406096344471,1,0.0,0.0,0.0,0.0,0.0,0.0,0.0,0.0,0.0,0.0,0.0,0.0,0.0,0.0,0.0,0.0,0.0,0.0,0.0,0.0,0.0,0.0,0.0,0.0,0.0,0.598205626011,-9.58109664917,0.196132987738,0.0,0.0,0.0,0.0,0.0,0.0,0.0,0.0,0.0
745492200,176871,1644542406098356724,1,0.0,0.0,0.0,0.0,0.0,0.0,0.0,0.0,0.0,0.0,0.0,0.0,0.0,0.0,0.0,0.0,0.0,0.0,0.0,0.0,0.0,0.0,0.0,0.0,0.0,0.57859236002,-9.61051654816,0.225552946329,0.0,0.0,0.0,0.0,0.0,0.0,0.0,0.0,0.0
747934400,176872,1644542406100369215,1,0.0,0.0,0.0,0.0,0.0,0.0,0.0,0.0,0.0,0.0,0.0,0.0,0.0,0.0,0.0,0.0,0.0,0.0,0.0,0.0,0.0,0.0,0.0,0.0,0.0,0.57859236002,-9.58109664917,0.225552946329,0.0,0.0,0.0,0.0,0.0,0.0,0.0,0.0,0.0
749910000,176873,1644542406102383375,1,0.0,0.0,0.0,0.0,0.0,0.0,0.0,0.0,0.0,0.0,0.0,0.0,0.0,0.0,0.0,0.0,0.0,0.0,0.0,0.0,0.0,0.0,0.0,0.0,0.0,0.57859236002,-9.66935634613,0.225552946329,0.0,0.0,0.0,0.0,0.0,0.0,0.0,0.0,0.0
751511900,176874,1644542406104395866,1,0.0,0.0,0.0,0.0,0.0,0.0,0.0,0.0,0.0,0.0,0.0,0.0,0.0,0.0,0.0,0.0,0.0,0.0,0.0,0.0,0.0,0.0,0.0,0.0,0.0,0.57859236002,-9.62032318115,0.264779537916,0.0,0.0,0.0,0.0,0.0,0.0,0.0,0.0,0.0
753696400,176875,1644542406106407881,1,0.0,0.0,0.0,0.0,0.0,0.0,0.0,0.0,0.0,0.0,0.0,0.0,0.0,0.0,0.0,0.0,0.0,0.0,0.0,0.0,0.0,0.0,0.0,0.0,0.0,0.627625584602,-9.64974308014,0.264779537916,0.0,0.0,0.0,0.0,0.0,0.0,0.0,0.0,0.0
755825900,176876,1644542406108420372,1,0.0,0.0,0.0,0.0,0.0,0.0,0.0,0.0,0.0,0.0,0.0,0.0,0.0,0.0,0.0,0.0,0.0,0.0,0.0,0.0,0.0,0.0,0.0,0.0,0.0,0.57859236002,-9.64974308014,0.264779537916,0.0,0.0,0.0,0.0,0.0,0.0,0.0,0.0,0.0
757540900,176877,1644542406110434532,1,0.0,0.0,0.0,0.0,0.0,0.0,0.0,0.0,0.0,0.0,0.0,0.0,0.0,0.0,0.0,0.0,0.0,0.0,0.0,0.0,0.0,0.0,0.0,0.0,0.0,0.558979034424,-9.62032318115,0.274586200714,0.0,0.0,0.0,0.0,0.0,0.0,0.0,0.0,0.0
759817100,176878,1644542406112447023,1,0.0,0.0,0.0,0.0,0.0,0.0,0.0,0.0,0.0,0.0,0.0,0.0,0.0,0.0,0.0,0.0,0.0,0.0,0.0,0.0,0.0,0.0,0.0,0.0,0.0,0.529559075832,-9.62032318115,0.245166242123,0.0,0.0,0.0,0.0,0.0,0.0,0.0,0.0,0.0
761478600,176879,1644542406114459276,1,0.0,0.0,0.0,0.0,0.0,0.0,0.0,0.0,0.0,0.0,0.0,0.0,0.0,0.0,0.0,0.0,0.0,0.0,0.0,0.0,0.0,0.0,0.0,0.0,0.0,0.549172401428,-9.62032318115,0.196132987738,0.0,0.0,0.0,0.0,0.0,0.0,0.0,0.0,0.0
763811700,176880,1644542406116471767,1,0.0,0.0,0.0,0.0,0.0,0.0,0.0,0.0,0.0,0.0,0.0,0.0,0.0,0.0,0.0,0.0,0.0,0.0,0.0,0.0,0.0,0.0,0.0,0.0,0.0,0.558979034424,-9.62032318115,0.225552946329,0.0,0.0,0.0,0.0,0.0,0.0,0.0,0.0,0.0
765401800,176881,1644542406118485928,1,0.0,0.0,0.0,0.0,0.0,0.0,0.0,0.0,0.0,0.0,0.0,0.0,0.0,0.0,0.0,0.0,0.0,0.0,0.0,0.0,0.0,0.0,0.0,0.0,0.0,0.57859236002,-9.62032318115,0.264779537916,0.0,0.0,0.0,0.0,0.0,0.0,0.0,0.0,0.0
767803200,176882,1644542406120498180,1,0.0,0.0,0.0,0.0,0.0,0.0,0.0,0.0,0.0,0.0,0.0,0.0,0.0,0.0,0.0,0.0,0.0,0.0,0.0,0.0,0.0,0.0,0.0,0.0,0.0,0.549172401428,-9.61051654816,0.225552946329,0.0,0.0,0.0,0.0,0.0,0.0,0.0,0.0,0.0
769769500,176883,1644542406122510433,1,0.0,0.0,0.0,0.0,0.0,0.0,0.0,0.0,0.0,0.0,0.0,0.0,0.0,0.0,0.0,0.0,0.0,0.0,0.0,0.0,0.0,0.0,0.0,0.0,0.0,0.57859236002,-9.61051654816,0.225552946329,0.0,0.0,0.0,0.0,0.0,0.0,0.0,0.0,0.0
771596200,176884,1644542406124522924,1,0.0,0.0,0.0,0.0,0.0,0.0,0.0,0.0,0.0,0.0,0.0,0.0,0.0,0.0,0.0,0.0,0.0,0.0,0.0,0.0,0.0,0.0,0.0,0.0,0.0,0.558979034424,-9.61051654816,0.264779537916,0.0,0.0,0.0,0.0,0.0,0.0,0.0,0.0,0.0
773627300,176885,1644542406126537085,1,0.0,0.0,0.0,0.0,0.0,0.0,0.0,0.0,0.0,0.0,0.0,0.0,0.0,0.0,0.0,0.0,0.0,0.0,0.0,0.0,0.0,0.0,0.0,0.0,0.0,0.558979034424,-9.62032318115,0.264779537916,0.0,0.0,0.0,0.0,0.0,0.0,0.0,0.0,0.0
775337400,176886,1644542406128549576,1,0.0,0.0,0.0,0.0,0.0,0.0,0.0,0.0,0.0,0.0,0.0,0.0,0.0,0.0,0.0,0.0,0.0,0.0,0.0,0.0,0.0,0.0,0.0,0.0,0.0,0.558979034424,-9.58109664917,0.245166242123,0.0,0.0,0.0,0.0,0.0,0.0,0.0,0.0,0.0
777303400,176887,1644542406130561829,1,0.0,0.0,0.0,0.0,0.0,0.0,0.0,0.0,0.0,0.0,0.0,0.0,0.0,0.0,0.0,0.0,0.0,0.0,0.0,0.0,0.0,0.0,0.0,0.0,0.0,0.558979034424,-9.58109664917,0.196132987738,0.0,0.0,0.0,0.0,0.0,0.0,0.0,0.0,0.0
779796000,176888,1644542406132574081,1,0.0,0.0,0.0,0.0,0.0,0.0,0.0,0.0,0.0,0.0,0.0,0.0,0.0,0.0,0.0,0.0,0.0,0.0,0.0,0.0,0.0,0.0,0.0,0.0,0.0,0.627625584602,-9.67916297913,0.274586200714,0.0,0.0,0.0,0.0,0.0,0.0,0.0,0.0,0.0
781714600,176889,1644542406134586334,1,0.0,0.0,0.0,0.0,0.0,0.0,0.0,0.0,0.0,0.0,0.0,0.0,0.0,0.0,0.0,0.0,0.0,0.0,0.0,0.0,0.0,0.0,0.0,0.0,0.0,0.627625584602,-9.66935634613,0.294199496508,0.0,0.0,0.0,0.0,0.0,0.0,0.0,0.0,0.0
783526200,176890,1644542406136598587,1,0.0,0.0,0.0,0.0,0.0,0.0,0.0,0.0,0.0,0.0,0.0,0.0,0.0,0.0,0.0,0.0,0.0,0.0,0.0,0.0,0.0,0.0,0.0,0.0,0.0,0.627625584602,-9.64974308014,0.245166242123,0.0,0.0,0.0,0.0,0.0,0.0,0.0,0.0,0.0
785623800,176891,1644542406138611078,1,0.0,0.0,0.0,0.0,0.0,0.0,0.0,0.0,0.0,0.0,0.0,0.0,0.0,0.0,0.0,0.0,0.0,0.0,0.0,0.0,0.0,0.0,0.0,0.0,0.0,0.627625584602,-9.64974308014,0.274586200714,0.0,0.0,0.0,0.0,0.0,0.0,0.0,0.0,0.0
787647200,176892,1644542406140623331,1,0.0,0.0,0.0,0.0,0.0,0.0,0.0,0.0,0.0,0.0,0.0,0.0,0.0,0.0,0.0,0.0,0.0,0.0,0.0,0.0,0.0,0.0,0.0,0.0,0.0,0.764918684959,-9.81645679474,0.402072638273,0.0,0.0,0.0,0.0,0.0,0.0,0.0,0.0,0.0
789743500,176893,1644542406142637730,1,0.0,0.0,0.0,0.0,0.0,0.0,0.0,0.0,0.0,0.0,0.0,0.0,0.0,0.0,0.0,0.0,0.0,0.0,0.0,0.0,0.0,0.0,0.0,0.0,0.0,0.872791826725,-9.88510322571,0.529559075832,0.0,0.0,0.0,0.0,0.0,0.0,0.0,0.0,0.0
791597200,176894,1644542406144649982,1,0.0,0.0,0.0,0.0,0.0,0.0,0.0,0.0,0.0,0.0,0.0,0.0,0.0,0.0,0.0,0.0,0.0,0.0,0.0,0.0,0.0,0.0,0.0,0.0,0.0,0.813951909542,-9.81645679474,0.549172401428,0.0,0.0,0.0,0.0,0.0,0.0,0.0,0.0,0.0
793597500,176895,1644542406146662235,1,0.0,0.0,0.0,0.0,0.0,0.0,0.0,0.0,0.0,0.0,0.0,0.0,0.0,0.0,0.0,0.0,0.0,0.0,0.0,0.0,0.0,0.0,0.0,0.0,0.0,0.804145276546,-9.80665016174,0.509945809841,0.0,0.0,0.0,0.0,0.0,0.0,0.0,0.0,0.0
795565000,176896,1644542406148674488,1,0.0,0.0,0.0,0.0,0.0,0.0,0.0,0.0,0.0,0.0,0.0,0.0,0.0,0.0,0.0,0.0,0.0,0.0,0.0,0.0,0.0,0.0,0.0,0.0,0.0,0.686465501785,-9.71838951111,0.313812792301,0.0,0.0,0.0,0.0,0.0,0.0,0.0,0.0,0.0
797740200,176897,1644542406150686741,1,0.0,0.0,0.0,0.0,0.0,0.0,0.0,0.0,0.0,0.0,0.0,0.0,0.0,0.0,0.0,0.0,0.0,0.0,0.0,0.0,0.0,0.0,0.0,0.0,0.0,0.637432217598,-9.67916297913,0.245166242123,0.0,0.0,0.0,0.0,0.0,0.0,0.0,0.0,0.0
800213500,176898,1644542406152699232,1,0.0,0.0,0.0,0.0,0.0,0.0,0.0,0.0,0.0,0.0,0.0,0.0,0.0,0.0,0.0,0.0,0.0,0.0,0.0,0.0,0.0,0.0,0.0,0.0,0.0,0.549172401428,-9.64974308014,0.137293100357,0.0,0.0,0.0,0.0,0.0,0.0,0.0,0.0,0.0
801661900,176899,1644542406154711485,1,0.0,0.0,0.0,0.0,0.0,0.0,0.0,0.0,0.0,0.0,0.0,0.0,0.0,0.0,0.0,0.0,0.0,0.0,0.0,0.0,0.0,0.0,0.0,0.0,0.0,0.529559075832,-9.57129001617,0.0392265990376,0.0,0.0,0.0,0.0,0.0,0.0,0.0,0.0,0.0
803583400,176900,1644542406156725883,1,0.0,0.0,0.0,0.0,0.0,0.0,0.0,0.0,0.0,0.0,0.0,0.0,0.0,0.0,0.0,0.0,0.0,0.0,0.0,0.0,0.0,0.0,0.0,0.0,0.0,0.529559075832,-9.61051654816,0.0392265990376,0.0,0.0,0.0,0.0,0.0,0.0,0.0,0.0,0.0
805682000,176901,1644542406158738136,1,0.0,0.0,0.0,0.0,0.0,0.0,0.0,0.0,0.0,0.0,0.0,0.0,0.0,0.0,0.0,0.0,0.0,0.0,0.0,0.0,0.0,0.0,0.0,0.0,0.0,0.470719188452,-9.61051654816,0.0392265990376,0.0,0.0,0.0,0.0,0.0,0.0,0.0,0.0,0.0
807578000,176902,1644542406160748243,1,0.0,0.0,0.0,0.0,0.0,0.0,0.0,0.0,0.0,0.0,0.0,0.0,0.0,0.0,0.0,0.0,0.0,0.0,0.0,0.0,0.0,0.0,0.0,0.0,0.0,0.470719188452,-9.53206348419,0.0,0.0,0.0,0.0,0.0,0.0,0.0,0.0,0.0,0.0
809552400,176903,1644542406162760735,1,0.0,0.0,0.0,0.0,0.0,0.0,0.0,0.0,0.0,0.0,0.0,0.0,0.0,0.0,0.0,0.0,0.0,0.0,0.0,0.0,0.0,0.0,0.0,0.0,0.0,0.470719188452,-9.53206348419,-0.00980664975941,0.0,0.0,0.0,0.0,0.0,0.0,0.0,0.0,0.0
811677000,176904,1644542406164772987,1,0.0,0.0,0.0,0.0,0.0,0.0,0.0,0.0,0.0,0.0,0.0,0.0,0.0,0.0,0.0,0.0,0.0,0.0,0.0,0.0,0.0,0.0,0.0,0.0,0.0,0.451105892658,-9.53206348419,-0.00980664975941,0.0,0.0,0.0,0.0,0.0,0.0,0.0,0.0,0.0
813970700,176905,1644542406166787386,1,0.0,0.0,0.0,0.0,0.0,0.0,0.0,0.0,0.0,0.0,0.0,0.0,0.0,0.0,0.0,0.0,0.0,0.0,0.0,0.0,0.0,0.0,0.0,0.0,0.0,0.421685934067,-9.57129001617,-0.00980664975941,0.0,0.0,0.0,0.0,0.0,0.0,0.0,0.0,0.0
816318800,176906,1644542406168799639,1,0.0,0.0,0.0,0.0,0.0,0.0,0.0,0.0,0.0,0.0,0.0,0.0,0.0,0.0,0.0,0.0,0.0,0.0,0.0,0.0,0.0,0.0,0.0,0.0,0.0,0.402072638273,-9.5222568512,-0.0294199492782,0.0,0.0,0.0,0.0,0.0,0.0,0.0,0.0,0.0
817955100,176907,1644542406170812130,1,0.0,0.0,0.0,0.0,0.0,0.0,0.0,0.0,0.0,0.0,0.0,0.0,0.0,0.0,0.0,0.0,0.0,0.0,0.0,0.0,0.0,0.0,0.0,0.0,0.0,0.529559075832,-9.56148338318,0.0,0.0,0.0,0.0,0.0,0.0,0.0,0.0,0.0,0.0
819894000,176908,1644542406172826290,1,0.0,0.0,0.0,0.0,0.0,0.0,0.0,0.0,0.0,0.0,0.0,0.0,0.0,0.0,0.0,0.0,0.0,0.0,0.0,0.0,0.0,0.0,0.0,0.0,0.0,0.558979034424,-9.62032318115,0.0686465501785,0.0,0.0,0.0,0.0,0.0,0.0,0.0,0.0,0.0
821918700,176909,1644542406174838543,1,0.0,0.0,0.0,0.0,0.0,0.0,0.0,0.0,0.0,0.0,0.0,0.0,0.0,0.0,0.0,0.0,0.0,0.0,0.0,0.0,0.0,0.0,0.0,0.0,0.0,0.627625584602,-9.66935634613,0.137293100357,0.0,0.0,0.0,0.0,0.0,0.0,0.0,0.0,0.0
823810100,176910,1644542406176850796,1,0.0,0.0,0.0,0.0,0.0,0.0,0.0,0.0,0.0,0.0,0.0,0.0,0.0,0.0,0.0,0.0,0.0,0.0,0.0,0.0,0.0,0.0,0.0,0.0,0.0,0.57859236002,-9.61051654816,0.196132987738,0.0,0.0,0.0,0.0,0.0,0.0,0.0,0.0,0.0
825953400,176911,1644542406178863049,1,0.0,0.0,0.0,0.0,0.0,0.0,0.0,0.0,0.0,0.0,0.0,0.0,0.0,0.0,0.0,0.0,0.0,0.0,0.0,0.0,0.0,0.0,0.0,0.0,0.0,0.558979034424,-9.64974308014,0.176519691944,0.0,0.0,0.0,0.0,0.0,0.0,0.0,0.0,0.0
827837700,176912,1644542406180875540,1,0.0,0.0,0.0,0.0,0.0,0.0,0.0,0.0,0.0,0.0,0.0,0.0,0.0,0.0,0.0,0.0,0.0,0.0,0.0,0.0,0.0,0.0,0.0,0.0,0.0,0.627625584602,-9.62032318115,0.176519691944,0.0,0.0,0.0,0.0,0.0,0.0,0.0,0.0,0.0
830031200,176913,1644542406182889700,1,0.0,0.0,0.0,0.0,0.0,0.0,0.0,0.0,0.0,0.0,0.0,0.0,0.0,0.0,0.0,0.0,0.0,0.0,0.0,0.0,0.0,0.0,0.0,0.0,0.0,0.57859236002,-9.64974308014,0.166713044047,0.0,0.0,0.0,0.0,0.0,0.0,0.0,0.0,0.0
832021000,176914,1644542406184902191,1,0.0,0.0,0.0,0.0,0.0,0.0,0.0,0.0,0.0,0.0,0.0,0.0,0.0,0.0,0.0,0.0,0.0,0.0,0.0,0.0,0.0,0.0,0.0,0.0,0.0,0.637432217598,-9.62032318115,0.176519691944,0.0,0.0,0.0,0.0,0.0,0.0,0.0,0.0,0.0
833840000,176915,1644542406186914206,1,0.0,0.0,0.0,0.0,0.0,0.0,0.0,0.0,0.0,0.0,0.0,0.0,0.0,0.0,0.0,0.0,0.0,0.0,0.0,0.0,0.0,0.0,0.0,0.0,0.0,0.57859236002,-9.67916297913,0.176519691944,0.0,0.0,0.0,0.0,0.0,0.0,0.0,0.0,0.0
835874800,176916,1644542406188926458,1,0.0,0.0,0.0,0.0,0.0,0.0,0.0,0.0,0.0,0.0,0.0,0.0,0.0,0.0,0.0,0.0,0.0,0.0,0.0,0.0,0.0,0.0,0.0,0.0,0.0,0.627625584602,-9.70858287811,0.196132987738,0.0,0.0,0.0,0.0,0.0,0.0,0.0,0.0,0.0
837815200,176917,1644542406190938950,1,0.0,0.0,0.0,0.0,0.0,0.0,0.0,0.0,0.0,0.0,0.0,0.0,0.0,0.0,0.0,0.0,0.0,0.0,0.0,0.0,0.0,0.0,0.0,0.0,0.0,0.549172401428,-9.62032318115,0.137293100357,0.0,0.0,0.0,0.0,0.0,0.0,0.0,0.0,0.0
839796700,176918,1644542406192953110,1,0.0,0.0,0.0,0.0,0.0,0.0,0.0,0.0,0.0,0.0,0.0,0.0,0.0,0.0,0.0,0.0,0.0,0.0,0.0,0.0,0.0,0.0,0.0,0.0,0.0,0.529559075832,-9.61051654816,0.0980664938688,0.0,0.0,0.0,0.0,0.0,0.0,0.0,0.0,0.0
841830200,176919,1644542406194965601,1,0.0,0.0,0.0,0.0,0.0,0.0,0.0,0.0,0.0,0.0,0.0,0.0,0.0,0.0,0.0,0.0,0.0,0.0,0.0,0.0,0.0,0.0,0.0,0.0,0.0,0.529559075832,-9.62032318115,0.0784531980753,0.0,0.0,0.0,0.0,0.0,0.0,0.0,0.0,0.0
843861500,176920,1644542406196977854,1,0.0,0.0,0.0,0.0,0.0,0.0,0.0,0.0,0.0,0.0,0.0,0.0,0.0,0.0,0.0,0.0,0.0,0.0,0.0,0.0,0.0,0.0,0.0,0.0,0.0,0.549172401428,-9.64974308014,0.0686465501785,0.0,0.0,0.0,0.0,0.0,0.0,0.0,0.0,0.0
845821600,176921,1644542406198990107,1,0.0,0.0,0.0,0.0,0.0,0.0,0.0,0.0,0.0,0.0,0.0,0.0,0.0,0.0,0.0,0.0,0.0,0.0,0.0,0.0,0.0,0.0,0.0,0.0,0.0,0.627625584602,-9.62032318115,0.12748645246,0.0,0.0,0.0,0.0,0.0,0.0,0.0,0.0,0.0
848007600,176922,1644542406201004505,1,0.0,0.0,0.0,0.0,0.0,0.0,0.0,0.0,0.0,0.0,0.0,0.0,0.0,0.0,0.0,0.0,0.0,0.0,0.0,0.0,0.0,0.0,0.0,0.0,0.0,0.57859236002,-9.66935634613,0.166713044047,0.0,0.0,0.0,0.0,0.0,0.0,0.0,0.0,0.0
850142200,176923,1644542406203016520,1,0.0,0.0,0.0,0.0,0.0,0.0,0.0,0.0,0.0,0.0,0.0,0.0,0.0,0.0,0.0,0.0,0.0,0.0,0.0,0.0,0.0,0.0,0.0,0.0,0.0,0.637432217598,-9.64974308014,0.176519691944,0.0,0.0,0.0,0.0,0.0,0.0,0.0,0.0,0.0
852396600,176924,1644542406205029011,1,0.0,0.0,0.0,0.0,0.0,0.0,0.0,0.0,0.0,0.0,0.0,0.0,0.0,0.0,0.0,0.0,0.0,0.0,0.0,0.0,0.0,0.0,0.0,0.0,0.0,0.666852176189,-9.66935634613,0.196132987738,0.0,0.0,0.0,0.0,0.0,0.0,0.0,0.0,0.0
854222000,176925,1644542406207041264,1,0.0,0.0,0.0,0.0,0.0,0.0,0.0,0.0,0.0,0.0,0.0,0.0,0.0,0.0,0.0,0.0,0.0,0.0,0.0,0.0,0.0,0.0,0.0,0.0,0.0,0.666852176189,-9.7478094101,0.196132987738,0.0,0.0,0.0,0.0,0.0,0.0,0.0,0.0,0.0
856259800,176926,1644542406209053516,1,0.0,0.0,0.0,0.0,0.0,0.0,0.0,0.0,0.0,0.0,0.0,0.0,0.0,0.0,0.0,0.0,0.0,0.0,0.0,0.0,0.0,0.0,0.0,0.0,0.0,0.686465501785,-9.67916297913,0.245166242123,0.0,0.0,0.0,0.0,0.0,0.0,0.0,0.0,0.0
858217000,176927,1644542406211067915,1,0.0,0.0,0.0,0.0,0.0,0.0,0.0,0.0,0.0,0.0,0.0,0.0,0.0,0.0,0.0,0.0,0.0,0.0,0.0,0.0,0.0,0.0,0.0,0.0,0.0,0.666852176189,-9.67916297913,0.176519691944,0.0,0.0,0.0,0.0,0.0,0.0,0.0,0.0,0.0
860222700,176928,1644542406213080168,1,0.0,0.0,0.0,0.0,0.0,0.0,0.0,0.0,0.0,0.0,0.0,0.0,0.0,0.0,0.0,0.0,0.0,0.0,0.0,0.0,0.0,0.0,0.0,0.0,0.0,0.598205626011,-9.62032318115,0.166713044047,0.0,0.0,0.0,0.0,0.0,0.0,0.0,0.0,0.0
862204100,176929,1644542406215092421,1,0.0,0.0,0.0,0.0,0.0,0.0,0.0,0.0,0.0,0.0,0.0,0.0,0.0,0.0,0.0,0.0,0.0,0.0,0.0,0.0,0.0,0.0,0.0,0.0,0.0,0.558979034424,-9.61051654816,0.166713044047,0.0,0.0,0.0,0.0,0.0,0.0,0.0,0.0,0.0
864276400,176930,1644542406217104673,1,0.0,0.0,0.0,0.0,0.0,0.0,0.0,0.0,0.0,0.0,0.0,0.0,0.0,0.0,0.0,0.0,0.0,0.0,0.0,0.0,0.0,0.0,0.0,0.0,0.0,0.558979034424,-9.61051654816,0.12748645246,0.0,0.0,0.0,0.0,0.0,0.0,0.0,0.0,0.0
866133000,176931,1644542406219115019,1,0.0,0.0,0.0,0.0,0.0,0.0,0.0,0.0,0.0,0.0,0.0,0.0,0.0,0.0,0.0,0.0,0.0,0.0,0.0,0.0,0.0,0.0,0.0,0.0,0.0,0.402072638273,-9.53206348419,-0.00980664975941,0.0,0.0,0.0,0.0,0.0,0.0,0.0,0.0,0.0
868211200,176932,1644542406221129417,1,0.0,0.0,0.0,0.0,0.0,0.0,0.0,0.0,0.0,0.0,0.0,0.0,0.0,0.0,0.0,0.0,0.0,0.0,0.0,0.0,0.0,0.0,0.0,0.0,0.0,0.451105892658,-9.5222568512,-0.00980664975941,0.0,0.0,0.0,0.0,0.0,0.0,0.0,0.0,0.0
870077700,176933,1644542406223141670,1,0.0,0.0,0.0,0.0,0.0,0.0,0.0,0.0,0.0,0.0,0.0,0.0,0.0,0.0,0.0,0.0,0.0,0.0,0.0,0.0,0.0,0.0,0.0,0.0,0.0,0.451105892658,-9.53206348419,-0.0686465501785,0.0,0.0,0.0,0.0,0.0,0.0,0.0,0.0,0.0
872055700,176934,1644542406225153923,1,0.0,0.0,0.0,0.0,0.0,0.0,0.0,0.0,0.0,0.0,0.0,0.0,0.0,0.0,0.0,0.0,0.0,0.0,0.0,0.0,0.0,0.0,0.0,0.0,0.0,0.470719188452,-9.57129001617,-0.0294199492782,0.0,0.0,0.0,0.0,0.0,0.0,0.0,0.0,0.0
874066500,176935,1644542406227168322,1,0.0,0.0,0.0,0.0,0.0,0.0,0.0,0.0,0.0,0.0,0.0,0.0,0.0,0.0,0.0,0.0,0.0,0.0,0.0,0.0,0.0,0.0,0.0,0.0,0.0,0.529559075832,-9.58109664917,0.0392265990376,0.0,0.0,0.0,0.0,0.0,0.0,0.0,0.0,0.0
876178000,176936,1644542406229180336,1,0.0,0.0,0.0,0.0,0.0,0.0,0.0,0.0,0.0,0.0,0.0,0.0,0.0,0.0,0.0,0.0,0.0,0.0,0.0,0.0,0.0,0.0,0.0,0.0,0.0,0.549172401428,-9.61051654816,0.0392265990376,0.0,0.0,0.0,0.0,0.0,0.0,0.0,0.0,0.0
878131200,176937,1644542406231192827,1,0.0,0.0,0.0,0.0,0.0,0.0,0.0,0.0,0.0,0.0,0.0,0.0,0.0,0.0,0.0,0.0,0.0,0.0,0.0,0.0,0.0,0.0,0.0,0.0,0.0,0.627625584602,-9.64974308014,0.0980664938688,0.0,0.0,0.0,0.0,0.0,0.0,0.0,0.0,0.0
880139100,176938,1644542406233206987,1,0.0,0.0,0.0,0.0,0.0,0.0,0.0,0.0,0.0,0.0,0.0,0.0,0.0,0.0,0.0,0.0,0.0,0.0,0.0,0.0,0.0,0.0,0.0,0.0,0.0,0.637432217598,-9.67916297913,0.166713044047,0.0,0.0,0.0,0.0,0.0,0.0,0.0,0.0,0.0
882227100,176939,1644542406235219240,1,0.0,0.0,0.0,0.0,0.0,0.0,0.0,0.0,0.0,0.0,0.0,0.0,0.0,0.0,0.0,0.0,0.0,0.0,0.0,0.0,0.0,0.0,0.0,0.0,0.0,0.813951909542,-9.75761604309,0.343232750893,0.0,0.0,0.0,0.0,0.0,0.0,0.0,0.0,0.0
884085200,176940,1644542406237231731,1,0.0,0.0,0.0,0.0,0.0,0.0,0.0,0.0,0.0,0.0,0.0,0.0,0.0,0.0,0.0,0.0,0.0,0.0,0.0,0.0,0.0,0.0,0.0,0.0,0.0,1.04931151867,-10.0125894547,0.813951909542,0.0,0.0,0.0,0.0,0.0,0.0,0.0,0.0,0.0
886493300,176941,1644542406239243984,1,0.0,0.0,0.0,0.0,0.0,0.0,0.0,0.0,0.0,0.0,0.0,0.0,0.0,0.0,0.0,0.0,0.0,0.0,0.0,0.0,0.0,0.0,0.0,0.0,0.0,1.17679798603,-9.8949098587,0.686465501785,0.0,0.0,0.0,0.0,0.0,0.0,0.0,0.0,0.0
888536000,176942,1644542406241255999,1,0.0,0.0,0.0,0.0,0.0,0.0,0.0,0.0,0.0,0.0,0.0,0.0,0.0,0.0,0.0,0.0,0.0,0.0,0.0,0.0,0.0,0.0,0.0,0.0,0.0,0.666852176189,-9.7478094101,0.274586200714,0.0,0.0,0.0,0.0,0.0,0.0,0.0,0.0,0.0
890485500,176943,1644542406243268490,1,0.0,0.0,0.0,0.0,0.0,0.0,0.0,0.0,0.0,0.0,0.0,0.0,0.0,0.0,0.0,0.0,0.0,0.0,0.0,0.0,0.0,0.0,0.0,0.0,0.0,0.362846046686,-9.57129001617,0.00980664975941,0.0,0.0,0.0,0.0,0.0,0.0,0.0,0.0,0.0
892483300,176944,1644542406245282650,1,0.0,0.0,0.0,0.0,0.0,0.0,0.0,0.0,0.0,0.0,0.0,0.0,0.0,0.0,0.0,0.0,0.0,0.0,0.0,0.0,0.0,0.0,0.0,0.0,0.0,0.343232750893,-9.56148338318,0.0980664938688,0.0,0.0,0.0,0.0,0.0,0.0,0.0,0.0,0.0
894478800,176945,1644542406247294903,1,0.0,0.0,0.0,0.0,0.0,0.0,0.0,0.0,0.0,0.0,0.0,0.0,0.0,0.0,0.0,0.0,0.0,0.0,0.0,0.0,0.0,0.0,0.0,0.0,0.0,0.57859236002,-9.62032318115,0.166713044047,0.0,0.0,0.0,0.0,0.0,0.0,0.0,0.0,0.0
896435200,176946,1644542406249307394,1,0.0,0.0,0.0,0.0,0.0,0.0,0.0,0.0,0.0,0.0,0.0,0.0,0.0,0.0,0.0,0.0,0.0,0.0,0.0,0.0,0.0,0.0,0.0,0.0,0.0,0.686465501785,-9.66935634613,0.245166242123,0.0,0.0,0.0,0.0,0.0,0.0,0.0,0.0,0.0
898438200,176947,1644542406251319647,1,0.0,0.0,0.0,0.0,0.0,0.0,0.0,0.0,0.0,0.0,0.0,0.0,0.0,0.0,0.0,0.0,0.0,0.0,0.0,0.0,0.0,0.0,0.0,0.0,0.0,0.598205626011,-9.64974308014,0.264779537916,0.0,0.0,0.0,0.0,0.0,0.0,0.0,0.0,0.0
900769200,176948,1644542406253331900,1,0.0,0.0,0.0,0.0,0.0,0.0,0.0,0.0,0.0,0.0,0.0,0.0,0.0,0.0,0.0,0.0,0.0,0.0,0.0,0.0,0.0,0.0,0.0,0.0,0.0,0.421685934067,-9.56148338318,0.0784531980753,0.0,0.0,0.0,0.0,0.0,0.0,0.0,0.0,0.0
902396200,176949,1644542406255344152,1,0.0,0.0,0.0,0.0,0.0,0.0,0.0,0.0,0.0,0.0,0.0,0.0,0.0,0.0,0.0,0.0,0.0,0.0,0.0,0.0,0.0,0.0,0.0,0.0,0.0,0.313812792301,-9.48303031921,-0.0392265990376,0.0,0.0,0.0,0.0,0.0,0.0,0.0,0.0,0.0
904312200,176950,1644542406257356405,1,0.0,0.0,0.0,0.0,0.0,0.0,0.0,0.0,0.0,0.0,0.0,0.0,0.0,0.0,0.0,0.0,0.0,0.0,0.0,0.0,0.0,0.0,0.0,0.0,0.0,0.245166242123,-9.49283695221,-0.0294199492782,0.0,0.0,0.0,0.0,0.0,0.0,0.0,0.0,0.0
906344500,176951,1644542406259368658,1,0.0,0.0,0.0,0.0,0.0,0.0,0.0,0.0,0.0,0.0,0.0,0.0,0.0,0.0,0.0,0.0,0.0,0.0,0.0,0.0,0.0,0.0,0.0,0.0,0.0,0.274586200714,-9.53206348419,-0.12748645246,0.0,0.0,0.0,0.0,0.0,0.0,0.0,0.0,0.0
908409000,176952,1644542406261383057,1,0.0,0.0,0.0,0.0,0.0,0.0,0.0,0.0,0.0,0.0,0.0,0.0,0.0,0.0,0.0,0.0,0.0,0.0,0.0,0.0,0.0,0.0,0.0,0.0,0.0,0.264779537916,-9.56148338318,-0.0686465501785,0.0,0.0,0.0,0.0,0.0,0.0,0.0,0.0,0.0
910356700,176953,1644542406263395309,1,0.0,0.0,0.0,0.0,0.0,0.0,0.0,0.0,0.0,0.0,0.0,0.0,0.0,0.0,0.0,0.0,0.0,0.0,0.0,0.0,0.0,0.0,0.0,0.0,0.0,0.343232750893,-9.53206348419,-0.0294199492782,0.0,0.0,0.0,0.0,0.0,0.0,0.0,0.0,0.0
912326900,176954,1644542406265407562,1,0.0,0.0,0.0,0.0,0.0,0.0,0.0,0.0,0.0,0.0,0.0,0.0,0.0,0.0,0.0,0.0,0.0,0.0,0.0,0.0,0.0,0.0,0.0,0.0,0.0,0.294199496508,-9.56148338318,0.0,0.0,0.0,0.0,0.0,0.0,0.0,0.0,0.0,0.0
914329600,176955,1644542406267421961,1,0.0,0.0,0.0,0.0,0.0,0.0,0.0,0.0,0.0,0.0,0.0,0.0,0.0,0.0,0.0,0.0,0.0,0.0,0.0,0.0,0.0,0.0,0.0,0.0,0.0,0.274586200714,-9.56148338318,0.00980664975941,0.0,0.0,0.0,0.0,0.0,0.0,0.0,0.0,0.0
916367100,176956,1644542406269432068,1,0.0,0.0,0.0,0.0,0.0,0.0,0.0,0.0,0.0,0.0,0.0,0.0,0.0,0.0,0.0,0.0,0.0,0.0,0.0,0.0,0.0,0.0,0.0,0.0,0.0,0.313812792301,-9.5222568512,0.0,0.0,0.0,0.0,0.0,0.0,0.0,0.0,0.0,0.0
918364600,176957,1644542406271446228,1,0.0,0.0,0.0,0.0,0.0,0.0,0.0,0.0,0.0,0.0,0.0,0.0,0.0,0.0,0.0,0.0,0.0,0.0,0.0,0.0,0.0,0.0,0.0,0.0,0.0,0.313812792301,-9.57129001617,0.0,0.0,0.0,0.0,0.0,0.0,0.0,0.0,0.0,0.0
920495800,176958,1644542406273458719,1,0.0,0.0,0.0,0.0,0.0,0.0,0.0,0.0,0.0,0.0,0.0,0.0,0.0,0.0,0.0,0.0,0.0,0.0,0.0,0.0,0.0,0.0,0.0,0.0,0.0,0.402072638273,-9.64974308014,-0.0294199492782,0.0,0.0,0.0,0.0,0.0,0.0,0.0,0.0,0.0
922610300,176959,1644542406275472879,1,0.0,0.0,0.0,0.0,0.0,0.0,0.0,0.0,0.0,0.0,0.0,0.0,0.0,0.0,0.0,0.0,0.0,0.0,0.0,0.0,0.0,0.0,0.0,0.0,0.0,0.421685934067,-9.62032318115,0.0392265990376,0.0,0.0,0.0,0.0,0.0,0.0,0.0,0.0,0.0
924684100,176960,1644542406277485132,1,0.0,0.0,0.0,0.0,0.0,0.0,0.0,0.0,0.0,0.0,0.0,0.0,0.0,0.0,0.0,0.0,0.0,0.0,0.0,0.0,0.0,0.0,0.0,0.0,0.0,0.421685934067,-9.62032318115,0.0392265990376,0.0,0.0,0.0,0.0,0.0,0.0,0.0,0.0,0.0
926778400,176961,1644542406279497623,1,0.0,0.0,0.0,0.0,0.0,0.0,0.0,0.0,0.0,0.0,0.0,0.0,0.0,0.0,0.0,0.0,0.0,0.0,0.0,0.0,0.0,0.0,0.0,0.0,0.0,0.362846046686,-9.66935634613,0.12748645246,0.0,0.0,0.0,0.0,0.0,0.0,0.0,0.0,0.0
928871300,176962,1644542406281509876,1,0.0,0.0,0.0,0.0,0.0,0.0,0.0,0.0,0.0,0.0,0.0,0.0,0.0,0.0,0.0,0.0,0.0,0.0,0.0,0.0,0.0,0.0,0.0,0.0,0.0,0.343232750893,-9.56148338318,0.0,0.0,0.0,0.0,0.0,0.0,0.0,0.0,0.0,0.0
930586300,176963,1644542406283521891,1,0.0,0.0,0.0,0.0,0.0,0.0,0.0,0.0,0.0,0.0,0.0,0.0,0.0,0.0,0.0,0.0,0.0,0.0,0.0,0.0,0.0,0.0,0.0,0.0,0.0,0.637432217598,-9.66935634613,0.137293100357,0.0,0.0,0.0,0.0,0.0,0.0,0.0,0.0,0.0
932656800,176964,1644542406285534382,1,0.0,0.0,0.0,0.0,0.0,0.0,0.0,0.0,0.0,0.0,0.0,0.0,0.0,0.0,0.0,0.0,0.0,0.0,0.0,0.0,0.0,0.0,0.0,0.0,0.0,0.57859236002,-9.67916297913,0.166713044047,0.0,0.0,0.0,0.0,0.0,0.0,0.0,0.0,0.0
934597500,176965,1644542406287548542,1,0.0,0.0,0.0,0.0,0.0,0.0,0.0,0.0,0.0,0.0,0.0,0.0,0.0,0.0,0.0,0.0,0.0,0.0,0.0,0.0,0.0,0.0,0.0,0.0,0.0,0.509945809841,-9.62032318115,0.0784531980753,0.0,0.0,0.0,0.0,0.0,0.0,0.0,0.0,0.0
936563300,176966,1644542406289560795,1,0.0,0.0,0.0,0.0,0.0,0.0,0.0,0.0,0.0,0.0,0.0,0.0,0.0,0.0,0.0,0.0,0.0,0.0,0.0,0.0,0.0,0.0,0.0,0.0,0.0,0.637432217598,-9.67916297913,0.0784531980753,0.0,0.0,0.0,0.0,0.0,0.0,0.0,0.0,0.0
939035400,176967,1644542406291573286,1,0.0,0.0,0.0,0.0,0.0,0.0,0.0,0.0,0.0,0.0,0.0,0.0,0.0,0.0,0.0,0.0,0.0,0.0,0.0,0.0,0.0,0.0,0.0,0.0,0.0,0.627625584602,-9.67916297913,0.0294199492782,0.0,0.0,0.0,0.0,0.0,0.0,0.0,0.0,0.0
940633100,176968,1644542406293585539,1,0.0,0.0,0.0,0.0,0.0,0.0,0.0,0.0,0.0,0.0,0.0,0.0,0.0,0.0,0.0,0.0,0.0,0.0,0.0,0.0,0.0,0.0,0.0,0.0,0.0,0.725692093372,-9.67916297913,0.0980664938688,0.0,0.0,0.0,0.0,0.0,0.0,0.0,0.0,0.0
942711000,176969,1644542406295597553,1,0.0,0.0,0.0,0.0,0.0,0.0,0.0,0.0,0.0,0.0,0.0,0.0,0.0,0.0,0.0,0.0,0.0,0.0,0.0,0.0,0.0,0.0,0.0,0.0,0.0,0.637432217598,-9.71838951111,0.12748645246,0.0,0.0,0.0,0.0,0.0,0.0,0.0,0.0,0.0
944577200,176970,1644542406297609806,1,0.0,0.0,0.0,0.0,0.0,0.0,0.0,0.0,0.0,0.0,0.0,0.0,0.0,0.0,0.0,0.0,0.0,0.0,0.0,0.0,0.0,0.0,0.0,0.0,0.0,0.686465501785,-9.66935634613,0.00980664975941,0.0,0.0,0.0,0.0,0.0,0.0,0.0,0.0,0.0
946598900,176971,1644542406299622297,1,0.0,0.0,0.0,0.0,0.0,0.0,0.0,0.0,0.0,0.0,0.0,0.0,0.0,0.0,0.0,0.0,0.0,0.0,0.0,0.0,0.0,0.0,0.0,0.0,0.0,0.529559075832,-9.64974308014,0.0392265990376,0.0,0.0,0.0,0.0,0.0,0.0,0.0,0.0,0.0
949048200,176972,1644542406301634550,1,0.0,0.0,0.0,0.0,0.0,0.0,0.0,0.0,0.0,0.0,0.0,0.0,0.0,0.0,0.0,0.0,0.0,0.0,0.0,0.0,0.0,0.0,0.0,0.0,0.0,0.402072638273,-9.56148338318,-0.0294199492782,0.0,0.0,0.0,0.0,0.0,0.0,0.0,0.0,0.0
950557400,176973,1644542406303646803,1,0.0,0.0,0.0,0.0,0.0,0.0,0.0,0.0,0.0,0.0,0.0,0.0,0.0,0.0,0.0,0.0,0.0,0.0,0.0,0.0,0.0,0.0,0.0,0.0,0.0,0.402072638273,-9.56148338318,-0.0784531980753,0.0,0.0,0.0,0.0,0.0,0.0,0.0,0.0,0.0
952600000,176974,1644542406305658817,1,0.0,0.0,0.0,0.0,0.0,0.0,0.0,0.0,0.0,0.0,0.0,0.0,0.0,0.0,0.0,0.0,0.0,0.0,0.0,0.0,0.0,0.0,0.0,0.0,0.0,0.451105892658,-9.58109664917,-0.0392265990376,0.0,0.0,0.0,0.0,0.0,0.0,0.0,0.0,0.0
954592600,176975,1644542406307671309,1,0.0,0.0,0.0,0.0,0.0,0.0,0.0,0.0,0.0,0.0,0.0,0.0,0.0,0.0,0.0,0.0,0.0,0.0,0.0,0.0,0.0,0.0,0.0,0.0,0.0,0.38245934248,-9.57129001617,-0.0392265990376,0.0,0.0,0.0,0.0,0.0,0.0,0.0,0.0,0.0
956925200,176976,1644542406309683561,1,0.0,0.0,0.0,0.0,0.0,0.0,0.0,0.0,0.0,0.0,0.0,0.0,0.0,0.0,0.0,0.0,0.0,0.0,0.0,0.0,0.0,0.0,0.0,0.0,0.0,0.294199496508,-9.56148338318,-0.0980664938688,0.0,0.0,0.0,0.0,0.0,0.0,0.0,0.0,0.0
959012900,176977,1644542406311697721,1,0.0,0.0,0.0,0.0,0.0,0.0,0.0,0.0,0.0,0.0,0.0,0.0,0.0,0.0,0.0,0.0,0.0,0.0,0.0,0.0,0.0,0.0,0.0,0.0,0.0,0.274586200714,-9.56148338318,-0.0980664938688,0.0,0.0,0.0,0.0,0.0,0.0,0.0,0.0,0.0
960923500,176978,1644542406313710213,1,0.0,0.0,0.0,0.0,0.0,0.0,0.0,0.0,0.0,0.0,0.0,0.0,0.0,0.0,0.0,0.0,0.0,0.0,0.0,0.0,0.0,0.0,0.0,0.0,0.0,0.402072638273,-9.57129001617,0.0,0.0,0.0,0.0,0.0,0.0,0.0,0.0,0.0,0.0
963019900,176979,1644542406315722466,1,0.0,0.0,0.0,0.0,0.0,0.0,0.0,0.0,0.0,0.0,0.0,0.0,0.0,0.0,0.0,0.0,0.0,0.0,0.0,0.0,0.0,0.0,0.0,0.0,0.0,0.38245934248,-9.58109664917,-0.00980664975941,0.0,0.0,0.0,0.0,0.0,0.0,0.0,0.0,0.0
964808100,176980,1644542406317736626,1,0.0,0.0,0.0,0.0,0.0,0.0,0.0,0.0,0.0,0.0,0.0,0.0,0.0,0.0,0.0,0.0,0.0,0.0,0.0,0.0,0.0,0.0,0.0,0.0,0.0,0.38245934248,-9.62032318115,0.00980664975941,0.0,0.0,0.0,0.0,0.0,0.0,0.0,0.0,0.0
966833700,176981,1644542406319748878,1,0.0,0.0,0.0,0.0,0.0,0.0,0.0,0.0,0.0,0.0,0.0,0.0,0.0,0.0,0.0,0.0,0.0,0.0,0.0,0.0,0.0,0.0,0.0,0.0,0.0,0.421685934067,-9.58109664917,0.0686465501785,0.0,0.0,0.0,0.0,0.0,0.0,0.0,0.0,0.0
968894400,176982,1644542406321761131,1,0.0,0.0,0.0,0.0,0.0,0.0,0.0,0.0,0.0,0.0,0.0,0.0,0.0,0.0,0.0,0.0,0.0,0.0,0.0,0.0,0.0,0.0,0.0,0.0,0.0,0.38245934248,-9.61051654816,0.0,0.0,0.0,0.0,0.0,0.0,0.0,0.0,0.0,0.0
970854900,176983,1644542406323773384,1,0.0,0.0,0.0,0.0,0.0,0.0,0.0,0.0,0.0,0.0,0.0,0.0,0.0,0.0,0.0,0.0,0.0,0.0,0.0,0.0,0.0,0.0,0.0,0.0,0.0,0.421685934067,-9.58109664917,-0.00980664975941,0.0,0.0,0.0,0.0,0.0,0.0,0.0,0.0,0.0
972945300,176984,1644542406325787544,1,0.0,0.0,0.0,0.0,0.0,0.0,0.0,0.0,0.0,0.0,0.0,0.0,0.0,0.0,0.0,0.0,0.0,0.0,0.0,0.0,0.0,0.0,0.0,0.0,0.0,0.509945809841,-9.61051654816,0.0,0.0,0.0,0.0,0.0,0.0,0.0,0.0,0.0,0.0
974868700,176985,1644542406327801943,1,0.0,0.0,0.0,0.0,0.0,0.0,0.0,0.0,0.0,0.0,0.0,0.0,0.0,0.0,0.0,0.0,0.0,0.0,0.0,0.0,0.0,0.0,0.0,0.0,0.0,0.470719188452,-9.64974308014,0.0294199492782,0.0,0.0,0.0,0.0,0.0,0.0,0.0,0.0,0.0
976884500,176986,1644542406329814196,1,0.0,0.0,0.0,0.0,0.0,0.0,0.0,0.0,0.0,0.0,0.0,0.0,0.0,0.0,0.0,0.0,0.0,0.0,0.0,0.0,0.0,0.0,0.0,0.0,0.0,0.421685934067,-9.61051654816,0.0784531980753,0.0,0.0,0.0,0.0,0.0,0.0,0.0,0.0,0.0
978799100,176987,1644542406331826448,1,0.0,0.0,0.0,0.0,0.0,0.0,0.0,0.0,0.0,0.0,0.0,0.0,0.0,0.0,0.0,0.0,0.0,0.0,0.0,0.0,0.0,0.0,0.0,0.0,0.0,0.490332484245,-9.66935634613,0.0686465501785,0.0,0.0,0.0,0.0,0.0,0.0,0.0,0.0,0.0
981112900,176988,1644542406333838701,1,0.0,0.0,0.0,0.0,0.0,0.0,0.0,0.0,0.0,0.0,0.0,0.0,0.0,0.0,0.0,0.0,0.0,0.0,0.0,0.0,0.0,0.0,0.0,0.0,0.0,0.451105892658,-9.66935634613,0.0980664938688,0.0,0.0,0.0,0.0,0.0,0.0,0.0,0.0,0.0
982933400,176989,1644542406335853100,1,0.0,0.0,0.0,0.0,0.0,0.0,0.0,0.0,0.0,0.0,0.0,0.0,0.0,0.0,0.0,0.0,0.0,0.0,0.0,0.0,0.0,0.0,0.0,0.0,0.0,0.509945809841,-9.70858287811,0.12748645246,0.0,0.0,0.0,0.0,0.0,0.0,0.0,0.0,0.0
985324700,176990,1644542406337865353,1,0.0,0.0,0.0,0.0,0.0,0.0,0.0,0.0,0.0,0.0,0.0,0.0,0.0,0.0,0.0,0.0,0.0,0.0,0.0,0.0,0.0,0.0,0.0,0.0,0.0,0.598205626011,-9.64974308014,0.0686465501785,0.0,0.0,0.0,0.0,0.0,0.0,0.0,0.0,0.0
987256800,176991,1644542406339877367,1,0.0,0.0,0.0,0.0,0.0,0.0,0.0,0.0,0.0,0.0,0.0,0.0,0.0,0.0,0.0,0.0,0.0,0.0,0.0,0.0,0.0,0.0,0.0,0.0,0.0,0.549172401428,-9.66935634613,0.12748645246,0.0,0.0,0.0,0.0,0.0,0.0,0.0,0.0,0.0
989079700,176992,1644542406341889620,1,0.0,0.0,0.0,0.0,0.0,0.0,0.0,0.0,0.0,0.0,0.0,0.0,0.0,0.0,0.0,0.0,0.0,0.0,0.0,0.0,0.0,0.0,0.0,0.0,0.0,0.627625584602,-9.62032318115,0.0294199492782,0.0,0.0,0.0,0.0,0.0,0.0,0.0,0.0,0.0
991543100,176993,1644542406343902111,1,0.0,0.0,0.0,0.0,0.0,0.0,0.0,0.0,0.0,0.0,0.0,0.0,0.0,0.0,0.0,0.0,0.0,0.0,0.0,0.0,0.0,0.0,0.0,0.0,0.0,0.529559075832,-9.66935634613,0.00980664975941,0.0,0.0,0.0,0.0,0.0,0.0,0.0,0.0,0.0
993227300,176994,1644542406345914364,1,0.0,0.0,0.0,0.0,0.0,0.0,0.0,0.0,0.0,0.0,0.0,0.0,0.0,0.0,0.0,0.0,0.0,0.0,0.0,0.0,0.0,0.0,0.0,0.0,0.0,0.470719188452,-9.56148338318,-0.00980664975941,0.0,0.0,0.0,0.0,0.0,0.0,0.0,0.0,0.0
995588900,176995,1644542406347926617,1,0.0,0.0,0.0,0.0,0.0,0.0,0.0,0.0,0.0,0.0,0.0,0.0,0.0,0.0,0.0,0.0,0.0,0.0,0.0,0.0,0.0,0.0,0.0,0.0,0.0,0.549172401428,-9.57129001617,-0.0686465501785,0.0,0.0,0.0,0.0,0.0,0.0,0.0,0.0,0.0
997567200,176996,1644542406349938631,1,0.0,0.0,0.0,0.0,0.0,0.0,0.0,0.0,0.0,0.0,0.0,0.0,0.0,0.0,0.0,0.0,0.0,0.0,0.0,0.0,0.0,0.0,0.0,0.0,0.0,0.509945809841,-9.62032318115,-0.0294199492782,0.0,0.0,0.0,0.0,0.0,0.0,0.0,0.0,0.0
999079100,176997,1644542406351950884,1,0.0,0.0,0.0,0.0,0.0,0.0,0.0,0.0,0.0,0.0,0.0,0.0,0.0,0.0,0.0,0.0,0.0,0.0,0.0,0.0,0.0,0.0,0.0,0.0,0.0,0.529559075832,-9.58109664917,-0.0294199492782,0.0,0.0,0.0,0.0,0.0,0.0,0.0,0.0,0.0
1001057600,176998,1644542406353965282,1,0.0,0.0,0.0,0.0,0.0,0.0,0.0,0.0,0.0,0.0,0.0,0.0,0.0,0.0,0.0,0.0,0.0,0.0,0.0,0.0,0.0,0.0,0.0,0.0,0.0,0.549172401428,-9.64974308014,-0.00980664975941,0.0,0.0,0.0,0.0,0.0,0.0,0.0,0.0,0.0
1003196500,176999,1644542406355979443,1,0.0,0.0,0.0,0.0,0.0,0.0,0.0,0.0,0.0,0.0,0.0,0.0,0.0,0.0,0.0,0.0,0.0,0.0,0.0,0.0,0.0,0.0,0.0,0.0,0.0,0.451105892658,-9.66935634613,0.00980664975941,0.0,0.0,0.0,0.0,0.0,0.0,0.0,0.0,0.0
1005230500,177000,1644542406357989788,1,0.0,0.0,0.0,0.0,0.0,0.0,0.0,0.0,0.0,0.0,0.0,0.0,0.0,0.0,0.0,0.0,0.0,0.0,0.0,0.0,0.0,0.0,0.0,0.0,0.0,0.402072638273,-9.57129001617,-0.00980664975941,0.0,0.0,0.0,0.0,0.0,0.0,0.0,0.0,0.0
1007105700,177001,1644542406360002041,1,0.0,0.0,0.0,0.0,0.0,0.0,0.0,0.0,0.0,0.0,0.0,0.0,0.0,0.0,0.0,0.0,0.0,0.0,0.0,0.0,0.0,0.0,0.0,0.0,0.0,0.402072638273,-9.58109664917,-0.0686465501785,0.0,0.0,0.0,0.0,0.0,0.0,0.0,0.0,0.0
1009193800,177002,1644542406362016439,1,0.0,0.0,0.0,0.0,0.0,0.0,0.0,0.0,0.0,0.0,0.0,0.0,0.0,0.0,0.0,0.0,0.0,0.0,0.0,0.0,0.0,0.0,0.0,0.0,0.0,0.362846046686,-9.5222568512,-0.0784531980753,0.0,0.0,0.0,0.0,0.0,0.0,0.0,0.0,0.0
1011194600,177003,1644542406364028454,1,0.0,0.0,0.0,0.0,0.0,0.0,0.0,0.0,0.0,0.0,0.0,0.0,0.0,0.0,0.0,0.0,0.0,0.0,0.0,0.0,0.0,0.0,0.0,0.0,0.0,0.362846046686,-9.53206348419,-0.0980664938688,0.0,0.0,0.0,0.0,0.0,0.0,0.0,0.0,0.0
1013148500,177004,1644542406366040707,1,0.0,0.0,0.0,0.0,0.0,0.0,0.0,0.0,0.0,0.0,0.0,0.0,0.0,0.0,0.0,0.0,0.0,0.0,0.0,0.0,0.0,0.0,0.0,0.0,0.0,0.313812792301,-9.56148338318,-0.12748645246,0.0,0.0,0.0,0.0,0.0,0.0,0.0,0.0,0.0
1015134300,177005,1644542406368052959,1,0.0,0.0,0.0,0.0,0.0,0.0,0.0,0.0,0.0,0.0,0.0,0.0,0.0,0.0,0.0,0.0,0.0,0.0,0.0,0.0,0.0,0.0,0.0,0.0,0.0,0.274586200714,-9.5222568512,-0.0784531980753,0.0,0.0,0.0,0.0,0.0,0.0,0.0,0.0,0.0
1017120700,177006,1644542406370067358,1,0.0,0.0,0.0,0.0,0.0,0.0,0.0,0.0,0.0,0.0,0.0,0.0,0.0,0.0,0.0,0.0,0.0,0.0,0.0,0.0,0.0,0.0,0.0,0.0,0.0,0.137293100357,-9.45361042023,-0.196132987738,0.0,0.0,0.0,0.0,0.0,0.0,0.0,0.0,0.0
1019041800,177007,1644542406372079611,1,0.0,0.0,0.0,0.0,0.0,0.0,0.0,0.0,0.0,0.0,0.0,0.0,0.0,0.0,0.0,0.0,0.0,0.0,0.0,0.0,0.0,0.0,0.0,0.0,0.0,0.0980664938688,-9.39477062225,-0.225552946329,0.0,0.0,0.0,0.0,0.0,0.0,0.0,0.0,0.0
1021131400,177008,1644542406374091864,1,0.0,0.0,0.0,0.0,0.0,0.0,0.0,0.0,0.0,0.0,0.0,0.0,0.0,0.0,0.0,0.0,0.0,0.0,0.0,0.0,0.0,0.0,0.0,0.0,0.0,0.274586200714,-9.45361042023,-0.166713044047,0.0,0.0,0.0,0.0,0.0,0.0,0.0,0.0,0.0
1023102200,177009,1644542406376104116,1,0.0,0.0,0.0,0.0,0.0,0.0,0.0,0.0,0.0,0.0,0.0,0.0,0.0,0.0,0.0,0.0,0.0,0.0,0.0,0.0,0.0,0.0,0.0,0.0,0.0,0.451105892658,-9.56148338318,-0.12748645246,0.0,0.0,0.0,0.0,0.0,0.0,0.0,0.0,0.0
1025031500,177010,1644542406378118515,1,0.0,0.0,0.0,0.0,0.0,0.0,0.0,0.0,0.0,0.0,0.0,0.0,0.0,0.0,0.0,0.0,0.0,0.0,0.0,0.0,0.0,0.0,0.0,0.0,0.0,0.549172401428,-9.61051654816,-0.0686465501785,0.0,0.0,0.0,0.0,0.0,0.0,0.0,0.0,0.0
1027407400,177011,1644542406380130529,1,0.0,0.0,0.0,0.0,0.0,0.0,0.0,0.0,0.0,0.0,0.0,0.0,0.0,0.0,0.0,0.0,0.0,0.0,0.0,0.0,0.0,0.0,0.0,0.0,0.0,0.558979034424,-9.64974308014,-0.00980664975941,0.0,0.0,0.0,0.0,0.0,0.0,0.0,0.0,0.0
1029342300,177012,1644542406382142782,1,0.0,0.0,0.0,0.0,0.0,0.0,0.0,0.0,0.0,0.0,0.0,0.0,0.0,0.0,0.0,0.0,0.0,0.0,0.0,0.0,0.0,0.0,0.0,0.0,0.0,0.598205626011,-9.64974308014,-0.0294199492782,0.0,0.0,0.0,0.0,0.0,0.0,0.0,0.0,0.0
1031361000,177013,1644542406384156942,1,0.0,0.0,0.0,0.0,0.0,0.0,0.0,0.0,0.0,0.0,0.0,0.0,0.0,0.0,0.0,0.0,0.0,0.0,0.0,0.0,0.0,0.0,0.0,0.0,0.0,0.666852176189,-9.66935634613,-0.00980664975941,0.0,0.0,0.0,0.0,0.0,0.0,0.0,0.0,0.0
1033359200,177014,1644542406386171341,1,0.0,0.0,0.0,0.0,0.0,0.0,0.0,0.0,0.0,0.0,0.0,0.0,0.0,0.0,0.0,0.0,0.0,0.0,0.0,0.0,0.0,0.0,0.0,0.0,0.0,0.725692093372,-9.70858287811,0.0392265990376,0.0,0.0,0.0,0.0,0.0,0.0,0.0,0.0,0.0
1035383000,177015,1644542406388183594,1,0.0,0.0,0.0,0.0,0.0,0.0,0.0,0.0,0.0,0.0,0.0,0.0,0.0,0.0,0.0,0.0,0.0,0.0,0.0,0.0,0.0,0.0,0.0,0.0,0.0,0.696272134781,-9.61051654816,0.0686465501785,0.0,0.0,0.0,0.0,0.0,0.0,0.0,0.0,0.0
1037406400,177016,1644542406390195847,1,0.0,0.0,0.0,0.0,0.0,0.0,0.0,0.0,0.0,0.0,0.0,0.0,0.0,0.0,0.0,0.0,0.0,0.0,0.0,0.0,0.0,0.0,0.0,0.0,0.0,0.725692093372,-9.61051654816,0.0980664938688,0.0,0.0,0.0,0.0,0.0,0.0,0.0,0.0,0.0
1039375800,177017,1644542406392208099,1,0.0,0.0,0.0,0.0,0.0,0.0,0.0,0.0,0.0,0.0,0.0,0.0,0.0,0.0,0.0,0.0,0.0,0.0,0.0,0.0,0.0,0.0,0.0,0.0,0.0,0.637432217598,-9.61051654816,0.00980664975941,0.0,0.0,0.0,0.0,0.0,0.0,0.0,0.0,0.0
1041338800,177018,1644542406394220114,1,0.0,0.0,0.0,0.0,0.0,0.0,0.0,0.0,0.0,0.0,0.0,0.0,0.0,0.0,0.0,0.0,0.0,0.0,0.0,0.0,0.0,0.0,0.0,0.0,0.0,0.666852176189,-9.58109664917,-0.0392265990376,0.0,0.0,0.0,0.0,0.0,0.0,0.0,0.0,0.0
1043339600,177019,1644542406396235466,1,0.0,0.0,0.0,0.0,0.0,0.0,0.0,0.0,0.0,0.0,0.0,0.0,0.0,0.0,0.0,0.0,0.0,0.0,0.0,0.0,0.0,0.0,0.0,0.0,0.0,0.637432217598,-9.5222568512,-0.0784531980753,0.0,0.0,0.0,0.0,0.0,0.0,0.0,0.0,0.0
1045536300,177020,1644542406398248911,1,0.0,0.0,0.0,0.0,0.0,0.0,0.0,0.0,0.0,0.0,0.0,0.0,0.0,0.0,0.0,0.0,0.0,0.0,0.0,0.0,0.0,0.0,0.0,0.0,0.0,0.529559075832,-9.57129001617,-0.137293100357,0.0,0.0,0.0,0.0,0.0,0.0,0.0,0.0,0.0
1047490400,177021,1644542406400262594,1,0.0,0.0,0.0,0.0,0.0,0.0,0.0,0.0,0.0,0.0,0.0,0.0,0.0,0.0,0.0,0.0,0.0,0.0,0.0,0.0,0.0,0.0,0.0,0.0,0.0,0.529559075832,-9.56148338318,-0.176519691944,0.0,0.0,0.0,0.0,0.0,0.0,0.0,0.0,0.0
1049347100,177022,1644542406402276278,1,0.0,0.0,0.0,0.0,0.0,0.0,0.0,0.0,0.0,0.0,0.0,0.0,0.0,0.0,0.0,0.0,0.0,0.0,0.0,0.0,0.0,0.0,0.0,0.0,0.0,0.666852176189,-9.53206348419,-0.12748645246,0.0,0.0,0.0,0.0,0.0,0.0,0.0,0.0,0.0
1051419400,177023,1644542406404289961,1,0.0,0.0,0.0,0.0,0.0,0.0,0.0,0.0,0.0,0.0,0.0,0.0,0.0,0.0,0.0,0.0,0.0,0.0,0.0,0.0,0.0,0.0,0.0,0.0,0.0,0.627625584602,-9.58109664917,-0.0980664938688,0.0,0.0,0.0,0.0,0.0,0.0,0.0,0.0,0.0
1053336400,177024,1644542406406305790,1,0.0,0.0,0.0,0.0,0.0,0.0,0.0,0.0,0.0,0.0,0.0,0.0,0.0,0.0,0.0,0.0,0.0,0.0,0.0,0.0,0.0,0.0,0.0,0.0,0.0,0.627625584602,-9.70858287811,0.137293100357,0.0,0.0,0.0,0.0,0.0,0.0,0.0,0.0,0.0
1055323800,177025,1644542406408321619,1,0.0,0.0,0.0,0.0,0.0,0.0,0.0,0.0,0.0,0.0,0.0,0.0,0.0,0.0,0.0,0.0,0.0,0.0,0.0,0.0,0.0,0.0,0.0,0.0,0.0,0.666852176189,-9.71838951111,0.313812792301,0.0,0.0,0.0,0.0,0.0,0.0,0.0,0.0,0.0
1057265800,177026,1644542406410335302,1,0.0,0.0,0.0,0.0,0.0,0.0,0.0,0.0,0.0,0.0,0.0,0.0,0.0,0.0,0.0,0.0,0.0,0.0,0.0,0.0,0.0,0.0,0.0,0.0,0.0,0.549172401428,-9.78703689575,0.362846046686,0.0,0.0,0.0,0.0,0.0,0.0,0.0,0.0,0.0
1059283200,177027,1644542406412348986,1,0.0,0.0,0.0,0.0,0.0,0.0,0.0,0.0,0.0,0.0,0.0,0.0,0.0,0.0,0.0,0.0,0.0,0.0,0.0,0.0,0.0,0.0,0.0,0.0,0.0,0.57859236002,-9.80665016174,0.421685934067,0.0,0.0,0.0,0.0,0.0,0.0,0.0,0.0,0.0
1061588300,177028,1644542406414362431,1,0.0,0.0,0.0,0.0,0.0,0.0,0.0,0.0,0.0,0.0,0.0,0.0,0.0,0.0,0.0,0.0,0.0,0.0,0.0,0.0,0.0,0.0,0.0,0.0,0.0,0.490332484245,-9.75761604309,0.402072638273,0.0,0.0,0.0,0.0,0.0,0.0,0.0,0.0,0.0
1063547500,177029,1644542406416376114,1,0.0,0.0,0.0,0.0,0.0,0.0,0.0,0.0,0.0,0.0,0.0,0.0,0.0,0.0,0.0,0.0,0.0,0.0,0.0,0.0,0.0,0.0,0.0,0.0,0.0,0.362846046686,-9.67916297913,0.196132987738,0.0,0.0,0.0,0.0,0.0,0.0,0.0,0.0,0.0
1065662500,177030,1644542406418389797,1,0.0,0.0,0.0,0.0,0.0,0.0,0.0,0.0,0.0,0.0,0.0,0.0,0.0,0.0,0.0,0.0,0.0,0.0,0.0,0.0,0.0,0.0,0.0,0.0,0.0,0.402072638273,-9.57129001617,0.0784531980753,0.0,0.0,0.0,0.0,0.0,0.0,0.0,0.0,0.0
1067725400,177031,1644542406420401573,1,0.0,0.0,0.0,0.0,0.0,0.0,0.0,0.0,0.0,0.0,0.0,0.0,0.0,0.0,0.0,0.0,0.0,0.0,0.0,0.0,0.0,0.0,0.0,0.0,0.0,0.470719188452,-9.49283695221,-0.00980664975941,0.0,0.0,0.0,0.0,0.0,0.0,0.0,0.0,0.0
1069636500,177032,1644542406422417402,1,0.0,0.0,0.0,0.0,0.0,0.0,0.0,0.0,0.0,0.0,0.0,0.0,0.0,0.0,0.0,0.0,0.0,0.0,0.0,0.0,0.0,0.0,0.0,0.0,0.0,0.38245934248,-9.43399715424,-0.12748645246,0.0,0.0,0.0,0.0,0.0,0.0,0.0,0.0,0.0
1071669400,177033,1644542406424431086,1,0.0,0.0,0.0,0.0,0.0,0.0,0.0,0.0,0.0,0.0,0.0,0.0,0.0,0.0,0.0,0.0,0.0,0.0,0.0,0.0,0.0,0.0,0.0,0.0,0.0,0.362846046686,-9.57129001617,0.0,0.0,0.0,0.0,0.0,0.0,0.0,0.0,0.0,0.0
1073624900,177034,1644542406426446676,1,0.0,0.0,0.0,0.0,0.0,0.0,0.0,0.0,0.0,0.0,0.0,0.0,0.0,0.0,0.0,0.0,0.0,0.0,0.0,0.0,0.0,0.0,0.0,0.0,0.0,0.421685934067,-9.61051654816,0.0980664938688,0.0,0.0,0.0,0.0,0.0,0.0,0.0,0.0,0.0
1075647000,177035,1644542406428460360,1,0.0,0.0,0.0,0.0,0.0,0.0,0.0,0.0,0.0,0.0,0.0,0.0,0.0,0.0,0.0,0.0,0.0,0.0,0.0,0.0,0.0,0.0,0.0,0.0,0.0,0.313812792301,-9.66935634613,0.176519691944,0.0,0.0,0.0,0.0,0.0,0.0,0.0,0.0,0.0
1077621600,177036,1644542406430474043,1,0.0,0.0,0.0,0.0,0.0,0.0,0.0,0.0,0.0,0.0,0.0,0.0,0.0,0.0,0.0,0.0,0.0,0.0,0.0,0.0,0.0,0.0,0.0,0.0,0.0,0.245166242123,-9.66935634613,0.0686465501785,0.0,0.0,0.0,0.0,0.0,0.0,0.0,0.0,0.0
1079586400,177037,1644542406432487726,1,0.0,0.0,0.0,0.0,0.0,0.0,0.0,0.0,0.0,0.0,0.0,0.0,0.0,0.0,0.0,0.0,0.0,0.0,0.0,0.0,0.0,0.0,0.0,0.0,0.0,0.764918684959,-9.75761604309,0.245166242123,0.0,0.0,0.0,0.0,0.0,0.0,0.0,0.0,0.0
1081664600,177038,1644542406434503317,1,0.0,0.0,0.0,0.0,0.0,0.0,0.0,0.0,0.0,0.0,0.0,0.0,0.0,0.0,0.0,0.0,0.0,0.0,0.0,0.0,0.0,0.0,0.0,0.0,0.0,0.951245009899,-9.98316955566,0.598205626011,0.0,0.0,0.0,0.0,0.0,0.0,0.0,0.0,0.0
1083617200,177039,1644542406436517000,1,0.0,0.0,0.0,0.0,0.0,0.0,0.0,0.0,0.0,0.0,0.0,0.0,0.0,0.0,0.0,0.0,0.0,0.0,0.0,0.0,0.0,0.0,0.0,0.0,0.0,0.804145276546,-9.99297618866,0.598205626011,0.0,0.0,0.0,0.0,0.0,0.0,0.0,0.0,0.0
1085495400,177040,1644542406438530922,1,0.0,0.0,0.0,0.0,0.0,0.0,0.0,0.0,0.0,0.0,0.0,0.0,0.0,0.0,0.0,0.0,0.0,0.0,0.0,0.0,0.0,0.0,0.0,0.0,0.0,0.627625584602,-9.91452312469,0.38245934248,0.0,0.0,0.0,0.0,0.0,0.0,0.0,0.0,0.0
1087512100,177041,1644542406440544605,1,0.0,0.0,0.0,0.0,0.0,0.0,0.0,0.0,0.0,0.0,0.0,0.0,0.0,0.0,0.0,0.0,0.0,0.0,0.0,0.0,0.0,0.0,0.0,0.0,0.0,0.558979034424,-9.78703689575,0.137293100357,0.0,0.0,0.0,0.0,0.0,0.0,0.0,0.0,0.0
1089513200,177042,1644542406442558289,1,0.0,0.0,0.0,0.0,0.0,0.0,0.0,0.0,0.0,0.0,0.0,0.0,0.0,0.0,0.0,0.0,0.0,0.0,0.0,0.0,0.0,0.0,0.0,0.0,0.0,0.509945809841,-9.71838951111,0.00980664975941,0.0,0.0,0.0,0.0,0.0,0.0,0.0,0.0,0.0
1091596800,177043,1644542406444572210,1,0.0,0.0,0.0,0.0,0.0,0.0,0.0,0.0,0.0,0.0,0.0,0.0,0.0,0.0,0.0,0.0,0.0,0.0,0.0,0.0,0.0,0.0,0.0,0.0,0.0,0.470719188452,-9.64974308014,-0.0686465501785,0.0,0.0,0.0,0.0,0.0,0.0,0.0,0.0,0.0
1093527200,177044,1644542406446586132,1,0.0,0.0,0.0,0.0,0.0,0.0,0.0,0.0,0.0,0.0,0.0,0.0,0.0,0.0,0.0,0.0,0.0,0.0,0.0,0.0,0.0,0.0,0.0,0.0,0.0,0.470719188452,-9.62032318115,-0.0686465501785,0.0,0.0,0.0,0.0,0.0,0.0,0.0,0.0,0.0
1095570800,177045,1644542406448600054,1,0.0,0.0,0.0,0.0,0.0,0.0,0.0,0.0,0.0,0.0,0.0,0.0,0.0,0.0,0.0,0.0,0.0,0.0,0.0,0.0,0.0,0.0,0.0,0.0,0.0,0.38245934248,-9.5222568512,-0.176519691944,0.0,0.0,0.0,0.0,0.0,0.0,0.0,0.0,0.0
1097870900,177046,1644542406450613976,1,0.0,0.0,0.0,0.0,0.0,0.0,0.0,0.0,0.0,0.0,0.0,0.0,0.0,0.0,0.0,0.0,0.0,0.0,0.0,0.0,0.0,0.0,0.0,0.0,0.0,0.12748645246,-9.45361042023,-0.166713044047,0.0,0.0,0.0,0.0,0.0,0.0,0.0,0.0,0.0
1099889600,177047,1644542406452627659,1,0.0,0.0,0.0,0.0,0.0,0.0,0.0,0.0,0.0,0.0,0.0,0.0,0.0,0.0,0.0,0.0,0.0,0.0,0.0,0.0,0.0,0.0,0.0,0.0,0.0,0.12748645246,-9.45361042023,-0.343232750893,0.0,0.0,0.0,0.0,0.0,0.0,0.0,0.0,0.0
1101922900,177048,1644542406454643488,1,0.0,0.0,0.0,0.0,0.0,0.0,0.0,0.0,0.0,0.0,0.0,0.0,0.0,0.0,0.0,0.0,0.0,0.0,0.0,0.0,0.0,0.0,0.0,0.0,0.0,0.274586200714,-9.45361042023,-0.196132987738,0.0,0.0,0.0,0.0,0.0,0.0,0.0,0.0,0.0
1103844500,177049,1644542406456657410,1,0.0,0.0,0.0,0.0,0.0,0.0,0.0,0.0,0.0,0.0,0.0,0.0,0.0,0.0,0.0,0.0,0.0,0.0,0.0,0.0,0.0,0.0,0.0,0.0,0.0,0.12748645246,-9.48303031921,-0.0980664938688,0.0,0.0,0.0,0.0,0.0,0.0,0.0,0.0,0.0
1105840100,177050,1644542406458673239,1,0.0,0.0,0.0,0.0,0.0,0.0,0.0,0.0,0.0,0.0,0.0,0.0,0.0,0.0,0.0,0.0,0.0,0.0,0.0,0.0,0.0,0.0,0.0,0.0,0.0,0.274586200714,-9.80665016174,0.225552946329,0.0,0.0,0.0,0.0,0.0,0.0,0.0,0.0,0.0
1107983900,177051,1644542406460687160,1,0.0,0.0,0.0,0.0,0.0,0.0,0.0,0.0,0.0,0.0,0.0,0.0,0.0,0.0,0.0,0.0,0.0,0.0,0.0,0.0,0.0,0.0,0.0,0.0,0.0,0.666852176189,-9.98316955566,0.627625584602,0.0,0.0,0.0,0.0,0.0,0.0,0.0,0.0,0.0
1109980100,177052,1644542406462701082,1,0.0,0.0,0.0,0.0,0.0,0.0,0.0,0.0,0.0,0.0,0.0,0.0,0.0,0.0,0.0,0.0,0.0,0.0,0.0,0.0,0.0,0.0,0.0,0.0,0.0,0.57859236002,-9.64974308014,0.166713044047,0.0,0.0,0.0,0.0,0.0,0.0,0.0,0.0,0.0
1111894800,177053,1644542406464714766,1,0.0,0.0,0.0,0.0,0.0,0.0,0.0,0.0,0.0,0.0,0.0,0.0,0.0,0.0,0.0,0.0,0.0,0.0,0.0,0.0,0.0,0.0,0.0,0.0,0.0,0.402072638273,-9.57129001617,-0.0686465501785,0.0,0.0,0.0,0.0,0.0,0.0,0.0,0.0,0.0
1113874400,177054,1644542406466730595,1,0.0,0.0,0.0,0.0,0.0,0.0,0.0,0.0,0.0,0.0,0.0,0.0,0.0,0.0,0.0,0.0,0.0,0.0,0.0,0.0,0.0,0.0,0.0,0.0,0.0,0.627625584602,-9.7478094101,0.362846046686,0.0,0.0,0.0,0.0,0.0,0.0,0.0,0.0,0.0
1115874000,177055,1644542406468744516,1,0.0,0.0,0.0,0.0,0.0,0.0,0.0,0.0,0.0,0.0,0.0,0.0,0.0,0.0,0.0,0.0,0.0,0.0,0.0,0.0,0.0,0.0,0.0,0.0,0.0,0.686465501785,-9.62032318115,0.294199496508,0.0,0.0,0.0,0.0,0.0,0.0,0.0,0.0,0.0
1117964100,177056,1644542406470758438,1,0.0,0.0,0.0,0.0,0.0,0.0,0.0,0.0,0.0,0.0,0.0,0.0,0.0,0.0,0.0,0.0,0.0,0.0,0.0,0.0,0.0,0.0,0.0,0.0,0.0,0.627625584602,-9.64974308014,0.245166242123,0.0,0.0,0.0,0.0,0.0,0.0,0.0,0.0,0.0
1119959100,177057,1644542406472772360,1,0.0,0.0,0.0,0.0,0.0,0.0,0.0,0.0,0.0,0.0,0.0,0.0,0.0,0.0,0.0,0.0,0.0,0.0,0.0,0.0,0.0,0.0,0.0,0.0,0.0,0.402072638273,-9.7478094101,0.313812792301,0.0,0.0,0.0,0.0,0.0,0.0,0.0,0.0,0.0
1121984100,177058,1644542406474788427,1,0.0,0.0,0.0,0.0,0.0,0.0,0.0,0.0,0.0,0.0,0.0,0.0,0.0,0.0,0.0,0.0,0.0,0.0,0.0,0.0,0.0,0.0,0.0,0.0,0.0,0.402072638273,-9.67916297913,0.264779537916,0.0,0.0,0.0,0.0,0.0,0.0,0.0,0.0,0.0
1123956000,177059,1644542406476802349,1,0.0,0.0,0.0,0.0,0.0,0.0,0.0,0.0,0.0,0.0,0.0,0.0,0.0,0.0,0.0,0.0,0.0,0.0,0.0,0.0,0.0,0.0,0.0,0.0,0.0,0.529559075832,-9.67916297913,0.402072638273,0.0,0.0,0.0,0.0,0.0,0.0,0.0,0.0,0.0
1125821100,177060,1644542406478816032,1,0.0,0.0,0.0,0.0,0.0,0.0,0.0,0.0,0.0,0.0,0.0,0.0,0.0,0.0,0.0,0.0,0.0,0.0,0.0,0.0,0.0,0.0,0.0,0.0,0.0,0.666852176189,-9.61051654816,0.343232750893,0.0,0.0,0.0,0.0,0.0,0.0,0.0,0.0,0.0
1127853700,177061,1644542406480829716,1,0.0,0.0,0.0,0.0,0.0,0.0,0.0,0.0,0.0,0.0,0.0,0.0,0.0,0.0,0.0,0.0,0.0,0.0,0.0,0.0,0.0,0.0,0.0,0.0,0.0,0.637432217598,-9.67916297913,0.225552946329,0.0,0.0,0.0,0.0,0.0,0.0,0.0,0.0,0.0
1129804500,177062,1644542406482845783,1,0.0,0.0,0.0,0.0,0.0,0.0,0.0,0.0,0.0,0.0,0.0,0.0,0.0,0.0,0.0,0.0,0.0,0.0,0.0,0.0,0.0,0.0,0.0,0.0,0.0,0.686465501785,-9.67916297913,0.313812792301,0.0,0.0,0.0,0.0,0.0,0.0,0.0,0.0,0.0
1131968800,177063,1644542406484859705,1,0.0,0.0,0.0,0.0,0.0,0.0,0.0,0.0,0.0,0.0,0.0,0.0,0.0,0.0,0.0,0.0,0.0,0.0,0.0,0.0,0.0,0.0,0.0,0.0,0.0,0.725692093372,-9.62032318115,0.245166242123,0.0,0.0,0.0,0.0,0.0,0.0,0.0,0.0,0.0
1134172200,177064,1644542406486873627,1,0.0,0.0,0.0,0.0,0.0,0.0,0.0,0.0,0.0,0.0,0.0,0.0,0.0,0.0,0.0,0.0,0.0,0.0,0.0,0.0,0.0,0.0,0.0,0.0,0.0,0.725692093372,-9.66935634613,0.294199496508,0.0,0.0,0.0,0.0,0.0,0.0,0.0,0.0,0.0
1136030300,177065,1644542406488887310,1,0.0,0.0,0.0,0.0,0.0,0.0,0.0,0.0,0.0,0.0,0.0,0.0,0.0,0.0,0.0,0.0,0.0,0.0,0.0,0.0,0.0,0.0,0.0,0.0,0.0,0.598205626011,-9.62032318115,0.264779537916,0.0,0.0,0.0,0.0,0.0,0.0,0.0,0.0,0.0
1138238100,177066,1644542406490901232,1,0.0,0.0,0.0,0.0,0.0,0.0,0.0,0.0,0.0,0.0,0.0,0.0,0.0,0.0,0.0,0.0,0.0,0.0,0.0,0.0,0.0,0.0,0.0,0.0,0.0,0.558979034424,-9.57129001617,0.38245934248,0.0,0.0,0.0,0.0,0.0,0.0,0.0,0.0,0.0
1140141300,177067,1644542406492917061,1,0.0,0.0,0.0,0.0,0.0,0.0,0.0,0.0,0.0,0.0,0.0,0.0,0.0,0.0,0.0,0.0,0.0,0.0,0.0,0.0,0.0,0.0,0.0,0.0,0.0,0.57859236002,-9.66935634613,0.470719188452,0.0,0.0,0.0,0.0,0.0,0.0,0.0,0.0,0.0
1142130300,177068,1644542406494930983,1,0.0,0.0,0.0,0.0,0.0,0.0,0.0,0.0,0.0,0.0,0.0,0.0,0.0,0.0,0.0,0.0,0.0,0.0,0.0,0.0,0.0,0.0,0.0,0.0,0.0,0.509945809841,-9.66935634613,0.38245934248,0.0,0.0,0.0,0.0,0.0,0.0,0.0,0.0,0.0
1144401600,177069,1644542406496944904,1,0.0,0.0,0.0,0.0,0.0,0.0,0.0,0.0,0.0,0.0,0.0,0.0,0.0,0.0,0.0,0.0,0.0,0.0,0.0,0.0,0.0,0.0,0.0,0.0,0.0,0.598205626011,-9.57129001617,0.421685934067,0.0,0.0,0.0,0.0,0.0,0.0,0.0,0.0,0.0
1146055600,177070,1644542406498958826,1,0.0,0.0,0.0,0.0,0.0,0.0,0.0,0.0,0.0,0.0,0.0,0.0,0.0,0.0,0.0,0.0,0.0,0.0,0.0,0.0,0.0,0.0,0.0,0.0,0.0,0.549172401428,-9.70858287811,0.470719188452,0.0,0.0,0.0,0.0,0.0,0.0,0.0,0.0,0.0
1148112100,177071,1644542406500972509,1,0.0,0.0,0.0,0.0,0.0,0.0,0.0,0.0,0.0,0.0,0.0,0.0,0.0,0.0,0.0,0.0,0.0,0.0,0.0,0.0,0.0,0.0,0.0,0.0,0.0,0.490332484245,-9.71838951111,0.362846046686,0.0,0.0,0.0,0.0,0.0,0.0,0.0,0.0,0.0
1150085400,177072,1644542406502986431,1,0.0,0.0,0.0,0.0,0.0,0.0,0.0,0.0,0.0,0.0,0.0,0.0,0.0,0.0,0.0,0.0,0.0,0.0,0.0,0.0,0.0,0.0,0.0,0.0,0.0,0.509945809841,-9.61051654816,0.313812792301,0.0,0.0,0.0,0.0,0.0,0.0,0.0,0.0,0.0
1152076500,177073,1644542406505000353,1,0.0,0.0,0.0,0.0,0.0,0.0,0.0,0.0,0.0,0.0,0.0,0.0,0.0,0.0,0.0,0.0,0.0,0.0,0.0,0.0,0.0,0.0,0.0,0.0,0.0,0.549172401428,-9.62032318115,0.264779537916,0.0,0.0,0.0,0.0,0.0,0.0,0.0,0.0,0.0
1154388300,177074,1644542406507016182,1,0.0,0.0,0.0,0.0,0.0,0.0,0.0,0.0,0.0,0.0,0.0,0.0,0.0,0.0,0.0,0.0,0.0,0.0,0.0,0.0,0.0,0.0,0.0,0.0,0.0,0.490332484245,-9.62032318115,0.166713044047,0.0,0.0,0.0,0.0,0.0,0.0,0.0,0.0,0.0
1156222900,177075,1644542406509030104,1,0.0,0.0,0.0,0.0,0.0,0.0,0.0,0.0,0.0,0.0,0.0,0.0,0.0,0.0,0.0,0.0,0.0,0.0,0.0,0.0,0.0,0.0,0.0,0.0,0.0,0.549172401428,-9.58109664917,0.12748645246,0.0,0.0,0.0,0.0,0.0,0.0,0.0,0.0,0.0
1158239700,177076,1644542406511044025,1,0.0,0.0,0.0,0.0,0.0,0.0,0.0,0.0,0.0,0.0,0.0,0.0,0.0,0.0,0.0,0.0,0.0,0.0,0.0,0.0,0.0,0.0,0.0,0.0,0.0,0.686465501785,-9.66935634613,0.196132987738,0.0,0.0,0.0,0.0,0.0,0.0,0.0,0.0,0.0
1160715600,177077,1644542406513057709,1,0.0,0.0,0.0,0.0,0.0,0.0,0.0,0.0,0.0,0.0,0.0,0.0,0.0,0.0,0.0,0.0,0.0,0.0,0.0,0.0,0.0,0.0,0.0,0.0,0.0,0.549172401428,-9.57129001617,0.00980664975941,0.0,0.0,0.0,0.0,0.0,0.0,0.0,0.0,0.0
1162543600,177078,1644542406515071630,1,0.0,0.0,0.0,0.0,0.0,0.0,0.0,0.0,0.0,0.0,0.0,0.0,0.0,0.0,0.0,0.0,0.0,0.0,0.0,0.0,0.0,0.0,0.0,0.0,0.0,0.558979034424,-9.66935634613,0.0784531980753,0.0,0.0,0.0,0.0,0.0,0.0,0.0,0.0,0.0
1164849000,177079,1644542406517087460,1,0.0,0.0,0.0,0.0,0.0,0.0,0.0,0.0,0.0,0.0,0.0,0.0,0.0,0.0,0.0,0.0,0.0,0.0,0.0,0.0,0.0,0.0,0.0,0.0,0.0,0.509945809841,-9.57129001617,0.0294199492782,0.0,0.0,0.0,0.0,0.0,0.0,0.0,0.0,0.0
1166588900,177080,1644542406519099474,1,0.0,0.0,0.0,0.0,0.0,0.0,0.0,0.0,0.0,0.0,0.0,0.0,0.0,0.0,0.0,0.0,0.0,0.0,0.0,0.0,0.0,0.0,0.0,0.0,0.0,0.470719188452,-9.58109664917,0.0,0.0,0.0,0.0,0.0,0.0,0.0,0.0,0.0,0.0
1168825100,177081,1644542406521115303,1,0.0,0.0,0.0,0.0,0.0,0.0,0.0,0.0,0.0,0.0,0.0,0.0,0.0,0.0,0.0,0.0,0.0,0.0,0.0,0.0,0.0,0.0,0.0,0.0,0.0,0.451105892658,-9.58109664917,-0.0392265990376,0.0,0.0,0.0,0.0,0.0,0.0,0.0,0.0,0.0
1170956900,177082,1644542406523128986,1,0.0,0.0,0.0,0.0,0.0,0.0,0.0,0.0,0.0,0.0,0.0,0.0,0.0,0.0,0.0,0.0,0.0,0.0,0.0,0.0,0.0,0.0,0.0,0.0,0.0,0.451105892658,-9.61051654816,0.0784531980753,0.0,0.0,0.0,0.0,0.0,0.0,0.0,0.0,0.0
1172914200,177083,1644542406525144815,1,0.0,0.0,0.0,0.0,0.0,0.0,0.0,0.0,0.0,0.0,0.0,0.0,0.0,0.0,0.0,0.0,0.0,0.0,0.0,0.0,0.0,0.0,0.0,0.0,0.0,0.38245934248,-9.66935634613,0.176519691944,0.0,0.0,0.0,0.0,0.0,0.0,0.0,0.0,0.0
1174340400,177084,1644542406527158737,1,0.0,0.0,0.0,0.0,0.0,0.0,0.0,0.0,0.0,0.0,0.0,0.0,0.0,0.0,0.0,0.0,0.0,0.0,0.0,0.0,0.0,0.0,0.0,0.0,0.0,0.470719188452,-9.61051654816,0.137293100357,0.0,0.0,0.0,0.0,0.0,0.0,0.0,0.0,0.0
1176381900,177085,1644542406529172659,1,0.0,0.0,0.0,0.0,0.0,0.0,0.0,0.0,0.0,0.0,0.0,0.0,0.0,0.0,0.0,0.0,0.0,0.0,0.0,0.0,0.0,0.0,0.0,0.0,0.0,0.529559075832,-9.62032318115,0.225552946329,0.0,0.0,0.0,0.0,0.0,0.0,0.0,0.0,0.0
1178434200,177086,1644542406531186581,1,0.0,0.0,0.0,0.0,0.0,0.0,0.0,0.0,0.0,0.0,0.0,0.0,0.0,0.0,0.0,0.0,0.0,0.0,0.0,0.0,0.0,0.0,0.0,0.0,0.0,0.490332484245,-9.62032318115,0.0980664938688,0.0,0.0,0.0,0.0,0.0,0.0,0.0,0.0,0.0
1180420100,177087,1644542406533218145,1,0.0,0.0,0.0,0.0,0.0,0.0,0.0,0.0,0.0,0.0,0.0,0.0,0.0,0.0,0.0,0.0,0.0,0.0,0.0,0.0,0.0,0.0,0.0,0.0,0.0,0.598205626011,-9.62032318115,0.38245934248,0.0,0.0,0.0,0.0,0.0,0.0,0.0,0.0,0.0
1182394300,177088,1644542406535214186,1,0.0,0.0,0.0,0.0,0.0,0.0,0.0,0.0,0.0,0.0,0.0,0.0,0.0,0.0,0.0,0.0,0.0,0.0,0.0,0.0,0.0,0.0,0.0,0.0,0.0,0.637432217598,-9.5222568512,0.12748645246,0.0,0.0,0.0,0.0,0.0,0.0,0.0,0.0,0.0
1184428900,177089,1644542406537228107,1,0.0,0.0,0.0,0.0,0.0,0.0,0.0,0.0,0.0,0.0,0.0,0.0,0.0,0.0,0.0,0.0,0.0,0.0,0.0,0.0,0.0,0.0,0.0,0.0,0.0,1.60829055309,-9.57129001617,-0.402072638273,0.0,0.0,0.0,0.0,0.0,0.0,0.0,0.0,0.0
1186355600,177090,1644542406539243937,1,0.0,0.0,0.0,0.0,0.0,0.0,0.0,0.0,0.0,0.0,0.0,0.0,0.0,0.0,0.0,0.0,0.0,0.0,0.0,0.0,0.0,0.0,0.0,0.0,0.0,0.951245009899,-9.88510322571,0.549172401428,0.0,0.0,0.0,0.0,0.0,0.0,0.0,0.0,0.0
1188477100,177091,1644542406541257858,1,0.0,0.0,0.0,0.0,0.0,0.0,0.0,0.0,0.0,0.0,0.0,0.0,0.0,0.0,0.0,0.0,0.0,0.0,0.0,0.0,0.0,0.0,0.0,0.0,0.0,0.558979034424,-9.58109664917,0.0294199492782,0.0,0.0,0.0,0.0,0.0,0.0,0.0,0.0,0.0
1190273900,177092,1644542406543271780,1,0.0,0.0,0.0,0.0,0.0,0.0,0.0,0.0,0.0,0.0,0.0,0.0,0.0,0.0,0.0,0.0,0.0,0.0,0.0,0.0,0.0,0.0,0.0,0.0,0.0,0.558979034424,-9.67916297913,0.0294199492782,0.0,0.0,0.0,0.0,0.0,0.0,0.0,0.0,0.0
1192397400,177093,1644542406545287609,1,0.0,0.0,0.0,0.0,0.0,0.0,0.0,0.0,0.0,0.0,0.0,0.0,0.0,0.0,0.0,0.0,0.0,0.0,0.0,0.0,0.0,0.0,0.0,0.0,0.0,0.627625584602,-9.67916297913,0.0,0.0,0.0,0.0,0.0,0.0,0.0,0.0,0.0,0.0
1194404300,177094,1644542406547301531,1,0.0,0.0,0.0,0.0,0.0,0.0,0.0,0.0,0.0,0.0,0.0,0.0,0.0,0.0,0.0,0.0,0.0,0.0,0.0,0.0,0.0,0.0,0.0,0.0,0.0,0.549172401428,-9.62032318115,0.0294199492782,0.0,0.0,0.0,0.0,0.0,0.0,0.0,0.0,0.0
1196322600,177095,1644542406549315214,1,0.0,0.0,0.0,0.0,0.0,0.0,0.0,0.0,0.0,0.0,0.0,0.0,0.0,0.0,0.0,0.0,0.0,0.0,0.0,0.0,0.0,0.0,0.0,0.0,0.0,0.470719188452,-9.61051654816,-0.0294199492782,0.0,0.0,0.0,0.0,0.0,0.0,0.0,0.0,0.0
1198357900,177096,1644542406551331043,1,0.0,0.0,0.0,0.0,0.0,0.0,0.0,0.0,0.0,0.0,0.0,0.0,0.0,0.0,0.0,0.0,0.0,0.0,0.0,0.0,0.0,0.0,0.0,0.0,0.0,0.343232750893,-9.58109664917,0.0980664938688,0.0,0.0,0.0,0.0,0.0,0.0,0.0,0.0,0.0
1200332500,177097,1644542406553344965,1,0.0,0.0,0.0,0.0,0.0,0.0,0.0,0.0,0.0,0.0,0.0,0.0,0.0,0.0,0.0,0.0,0.0,0.0,0.0,0.0,0.0,0.0,0.0,0.0,0.0,0.451105892658,-9.61051654816,0.343232750893,0.0,0.0,0.0,0.0,0.0,0.0,0.0,0.0,0.0
1202341200,177098,1644542406555360794,1,0.0,0.0,0.0,0.0,0.0,0.0,0.0,0.0,0.0,0.0,0.0,0.0,0.0,0.0,0.0,0.0,0.0,0.0,0.0,0.0,0.0,0.0,0.0,0.0,0.0,0.402072638273,-9.67916297913,0.294199496508,0.0,0.0,0.0,0.0,0.0,0.0,0.0,0.0,0.0
1204433500,177099,1644542406557374716,1,0.0,0.0,0.0,0.0,0.0,0.0,0.0,0.0,0.0,0.0,0.0,0.0,0.0,0.0,0.0,0.0,0.0,0.0,0.0,0.0,0.0,0.0,0.0,0.0,0.0,0.470719188452,-9.67916297913,0.176519691944,0.0,0.0,0.0,0.0,0.0,0.0,0.0,0.0,0.0
1206614800,177100,1644542406559388638,1,0.0,0.0,0.0,0.0,0.0,0.0,0.0,0.0,0.0,0.0,0.0,0.0,0.0,0.0,0.0,0.0,0.0,0.0,0.0,0.0,0.0,0.0,0.0,0.0,0.0,0.666852176189,-9.67916297913,0.0784531980753,0.0,0.0,0.0,0.0,0.0,0.0,0.0,0.0,0.0
1208553900,177101,1644542406561404467,1,0.0,0.0,0.0,0.0,0.0,0.0,0.0,0.0,0.0,0.0,0.0,0.0,0.0,0.0,0.0,0.0,0.0,0.0,0.0,0.0,0.0,0.0,0.0,0.0,0.0,0.558979034424,-9.64974308014,0.0980664938688,0.0,0.0,0.0,0.0,0.0,0.0,0.0,0.0,0.0
1210529800,177102,1644542406563416243,1,0.0,0.0,0.0,0.0,0.0,0.0,0.0,0.0,0.0,0.0,0.0,0.0,0.0,0.0,0.0,0.0,0.0,0.0,0.0,0.0,0.0,0.0,0.0,0.0,0.0,0.686465501785,-9.71838951111,-0.0686465501785,0.0,0.0,0.0,0.0,0.0,0.0,0.0,0.0,0.0
1212730200,177103,1644542406565430164,1,0.0,0.0,0.0,0.0,0.0,0.0,0.0,0.0,0.0,0.0,0.0,0.0,0.0,0.0,0.0,0.0,0.0,0.0,0.0,0.0,0.0,0.0,0.0,0.0,0.0,0.549172401428,-9.58109664917,-0.225552946329,0.0,0.0,0.0,0.0,0.0,0.0,0.0,0.0,0.0
1214543600,177104,1644542406567445993,1,0.0,0.0,0.0,0.0,0.0,0.0,0.0,0.0,0.0,0.0,0.0,0.0,0.0,0.0,0.0,0.0,0.0,0.0,0.0,0.0,0.0,0.0,0.0,0.0,0.0,0.627625584602,-9.58109664917,-0.245166242123,0.0,0.0,0.0,0.0,0.0,0.0,0.0,0.0,0.0
1216524700,177105,1644542406569459915,1,0.0,0.0,0.0,0.0,0.0,0.0,0.0,0.0,0.0,0.0,0.0,0.0,0.0,0.0,0.0,0.0,0.0,0.0,0.0,0.0,0.0,0.0,0.0,0.0,0.0,0.637432217598,-9.61051654816,-0.166713044047,0.0,0.0,0.0,0.0,0.0,0.0,0.0,0.0,0.0
1218608400,177106,1644542406571475744,1,0.0,0.0,0.0,0.0,0.0,0.0,0.0,0.0,0.0,0.0,0.0,0.0,0.0,0.0,0.0,0.0,0.0,0.0,0.0,0.0,0.0,0.0,0.0,0.0,0.0,0.843371868134,-9.7478094101,0.225552946329,0.0,0.0,0.0,0.0,0.0,0.0,0.0,0.0,0.0
1220802000,177107,1644542406573489666,1,0.0,0.0,0.0,0.0,0.0,0.0,0.0,0.0,0.0,0.0,0.0,0.0,0.0,0.0,0.0,0.0,0.0,0.0,0.0,0.0,0.0,0.0,0.0,0.0,0.0,0.402072638273,-9.58109664917,0.813951909542,0.0,0.0,0.0,0.0,0.0,0.0,0.0,0.0,0.0
1222682000,177108,1644542406575503349,1,0.0,0.0,0.0,0.0,0.0,0.0,0.0,0.0,0.0,0.0,0.0,0.0,0.0,0.0,0.0,0.0,0.0,0.0,0.0,0.0,0.0,0.0,0.0,0.0,0.0,0.509945809841,-9.66935634613,0.735498726368,0.0,0.0,0.0,0.0,0.0,0.0,0.0,0.0,0.0
1224613900,177109,1644542406577517271,1,0.0,0.0,0.0,0.0,0.0,0.0,0.0,0.0,0.0,0.0,0.0,0.0,0.0,0.0,0.0,0.0,0.0,0.0,0.0,0.0,0.0,0.0,0.0,0.0,0.0,0.421685934067,-9.57129001617,0.313812792301,0.0,0.0,0.0,0.0,0.0,0.0,0.0,0.0,0.0
1226598800,177110,1644542406579533100,1,0.0,0.0,0.0,0.0,0.0,0.0,0.0,0.0,0.0,0.0,0.0,0.0,0.0,0.0,0.0,0.0,0.0,0.0,0.0,0.0,0.0,0.0,0.0,0.0,0.0,0.627625584602,-9.61051654816,0.245166242123,0.0,0.0,0.0,0.0,0.0,0.0,0.0,0.0,0.0
1228778600,177111,1644542406581547022,1,0.0,0.0,0.0,0.0,0.0,0.0,0.0,0.0,0.0,0.0,0.0,0.0,0.0,0.0,0.0,0.0,0.0,0.0,0.0,0.0,0.0,0.0,0.0,0.0,0.0,0.598205626011,-9.57129001617,0.0392265990376,0.0,0.0,0.0,0.0,0.0,0.0,0.0,0.0,0.0
1230749300,177112,1644542406583560944,1,0.0,0.0,0.0,0.0,0.0,0.0,0.0,0.0,0.0,0.0,0.0,0.0,0.0,0.0,0.0,0.0,0.0,0.0,0.0,0.0,0.0,0.0,0.0,0.0,0.0,0.764918684959,-9.58109664917,0.12748645246,0.0,0.0,0.0,0.0,0.0,0.0,0.0,0.0,0.0
1232776100,177113,1644542406585577011,1,0.0,0.0,0.0,0.0,0.0,0.0,0.0,0.0,0.0,0.0,0.0,0.0,0.0,0.0,0.0,0.0,0.0,0.0,0.0,0.0,0.0,0.0,0.0,0.0,0.0,0.725692093372,-9.56148338318,0.225552946329,0.0,0.0,0.0,0.0,0.0,0.0,0.0,0.0,0.0
1235020200,177114,1644542406587590933,1,0.0,0.0,0.0,0.0,0.0,0.0,0.0,0.0,0.0,0.0,0.0,0.0,0.0,0.0,0.0,0.0,0.0,0.0,0.0,0.0,0.0,0.0,0.0,0.0,0.0,0.666852176189,-9.61051654816,0.294199496508,0.0,0.0,0.0,0.0,0.0,0.0,0.0,0.0,0.0
1236780200,177115,1644542406589604378,1,0.0,0.0,0.0,0.0,0.0,0.0,0.0,0.0,0.0,0.0,0.0,0.0,0.0,0.0,0.0,0.0,0.0,0.0,0.0,0.0,0.0,0.0,0.0,0.0,0.0,0.57859236002,-9.53206348419,0.402072638273,0.0,0.0,0.0,0.0,0.0,0.0,0.0,0.0,0.0
1238922800,177116,1644542406591620445,1,0.0,0.0,0.0,0.0,0.0,0.0,0.0,0.0,0.0,0.0,0.0,0.0,0.0,0.0,0.0,0.0,0.0,0.0,0.0,0.0,0.0,0.0,0.0,0.0,0.0,0.637432217598,-9.71838951111,0.451105892658,0.0,0.0,0.0,0.0,0.0,0.0,0.0,0.0,0.0
1240821800,177117,1644542406593634367,1,0.0,0.0,0.0,0.0,0.0,0.0,0.0,0.0,0.0,0.0,0.0,0.0,0.0,0.0,0.0,0.0,0.0,0.0,0.0,0.0,0.0,0.0,0.0,0.0,0.0,0.558979034424,-9.75761604309,0.343232750893,0.0,0.0,0.0,0.0,0.0,0.0,0.0,0.0,0.0
1242885500,177118,1644542406595648289,1,0.0,0.0,0.0,0.0,0.0,0.0,0.0,0.0,0.0,0.0,0.0,0.0,0.0,0.0,0.0,0.0,0.0,0.0,0.0,0.0,0.0,0.0,0.0,0.0,0.0,0.627625584602,-9.56148338318,0.313812792301,0.0,0.0,0.0,0.0,0.0,0.0,0.0,0.0,0.0
1244868900,177119,1644542406597664118,1,0.0,0.0,0.0,0.0,0.0,0.0,0.0,0.0,0.0,0.0,0.0,0.0,0.0,0.0,0.0,0.0,0.0,0.0,0.0,0.0,0.0,0.0,0.0,0.0,0.0,0.696272134781,-9.58109664917,0.343232750893,0.0,0.0,0.0,0.0,0.0,0.0,0.0,0.0,0.0
1246840000,177120,1644542406599678040,1,0.0,0.0,0.0,0.0,0.0,0.0,0.0,0.0,0.0,0.0,0.0,0.0,0.0,0.0,0.0,0.0,0.0,0.0,0.0,0.0,0.0,0.0,0.0,0.0,0.0,0.666852176189,-9.64974308014,0.38245934248,0.0,0.0,0.0,0.0,0.0,0.0,0.0,0.0,0.0
1248881300,177121,1644542406601691961,1,0.0,0.0,0.0,0.0,0.0,0.0,0.0,0.0,0.0,0.0,0.0,0.0,0.0,0.0,0.0,0.0,0.0,0.0,0.0,0.0,0.0,0.0,0.0,0.0,0.0,0.735498726368,-9.58109664917,0.38245934248,0.0,0.0,0.0,0.0,0.0,0.0,0.0,0.0,0.0
1250812100,177122,1644542406603705645,1,0.0,0.0,0.0,0.0,0.0,0.0,0.0,0.0,0.0,0.0,0.0,0.0,0.0,0.0,0.0,0.0,0.0,0.0,0.0,0.0,0.0,0.0,0.0,0.0,0.0,0.696272134781,-9.66935634613,0.451105892658,0.0,0.0,0.0,0.0,0.0,0.0,0.0,0.0,0.0
1252864500,177123,1644542406605721474,1,0.0,0.0,0.0,0.0,0.0,0.0,0.0,0.0,0.0,0.0,0.0,0.0,0.0,0.0,0.0,0.0,0.0,0.0,0.0,0.0,0.0,0.0,0.0,0.0,0.0,0.666852176189,-9.64974308014,0.529559075832,0.0,0.0,0.0,0.0,0.0,0.0,0.0,0.0,0.0
1254822400,177124,1644542406607735395,1,0.0,0.0,0.0,0.0,0.0,0.0,0.0,0.0,0.0,0.0,0.0,0.0,0.0,0.0,0.0,0.0,0.0,0.0,0.0,0.0,0.0,0.0,0.0,0.0,0.0,0.627625584602,-9.64974308014,0.57859236002,0.0,0.0,0.0,0.0,0.0,0.0,0.0,0.0,0.0
1256966500,177125,1644542406609749317,1,0.0,0.0,0.0,0.0,0.0,0.0,0.0,0.0,0.0,0.0,0.0,0.0,0.0,0.0,0.0,0.0,0.0,0.0,0.0,0.0,0.0,0.0,0.0,0.0,0.0,0.696272134781,-9.66935634613,0.509945809841,0.0,0.0,0.0,0.0,0.0,0.0,0.0,0.0,0.0
1258959700,177126,1644542406611765146,1,0.0,0.0,0.0,0.0,0.0,0.0,0.0,0.0,0.0,0.0,0.0,0.0,0.0,0.0,0.0,0.0,0.0,0.0,0.0,0.0,0.0,0.0,0.0,0.0,0.0,0.558979034424,-9.62032318115,0.57859236002,0.0,0.0,0.0,0.0,0.0,0.0,0.0,0.0,0.0
1261488100,177127,1644542406613779068,1,0.0,0.0,0.0,0.0,0.0,0.0,0.0,0.0,0.0,0.0,0.0,0.0,0.0,0.0,0.0,0.0,0.0,0.0,0.0,0.0,0.0,0.0,0.0,0.0,0.0,0.637432217598,-9.61051654816,0.637432217598,0.0,0.0,0.0,0.0,0.0,0.0,0.0,0.0,0.0
1263343700,177128,1644542406615792990,1,0.0,0.0,0.0,0.0,0.0,0.0,0.0,0.0,0.0,0.0,0.0,0.0,0.0,0.0,0.0,0.0,0.0,0.0,0.0,0.0,0.0,0.0,0.0,0.0,0.0,0.666852176189,-9.62032318115,0.686465501785,0.0,0.0,0.0,0.0,0.0,0.0,0.0,0.0,0.0
1265207000,177129,1644542406617806673,1,0.0,0.0,0.0,0.0,0.0,0.0,0.0,0.0,0.0,0.0,0.0,0.0,0.0,0.0,0.0,0.0,0.0,0.0,0.0,0.0,0.0,0.0,0.0,0.0,0.0,0.637432217598,-9.71838951111,0.774725317955,0.0,0.0,0.0,0.0,0.0,0.0,0.0,0.0,0.0
1267018300,177130,1644542406619820595,1,0.0,0.0,0.0,0.0,0.0,0.0,0.0,0.0,0.0,0.0,0.0,0.0,0.0,0.0,0.0,0.0,0.0,0.0,0.0,0.0,0.0,0.0,0.0,0.0,0.0,0.637432217598,-9.61051654816,0.696272134781,0.0,0.0,0.0,0.0,0.0,0.0,0.0,0.0,0.0
1268855300,177131,1644542406621834517,1,0.0,0.0,0.0,0.0,0.0,0.0,0.0,0.0,0.0,0.0,0.0,0.0,0.0,0.0,0.0,0.0,0.0,0.0,0.0,0.0,0.0,0.0,0.0,0.0,0.0,0.666852176189,-9.67916297913,0.57859236002,0.0,0.0,0.0,0.0,0.0,0.0,0.0,0.0,0.0
1270801000,177132,1644542406623850346,1,0.0,0.0,0.0,0.0,0.0,0.0,0.0,0.0,0.0,0.0,0.0,0.0,0.0,0.0,0.0,0.0,0.0,0.0,0.0,0.0,0.0,0.0,0.0,0.0,0.0,0.725692093372,-9.66935634613,0.274586200714,0.0,0.0,0.0,0.0,0.0,0.0,0.0,0.0,0.0
1273082000,177133,1644542406625864267,1,0.0,0.0,0.0,0.0,0.0,0.0,0.0,0.0,0.0,0.0,0.0,0.0,0.0,0.0,0.0,0.0,0.0,0.0,0.0,0.0,0.0,0.0,0.0,0.0,0.0,0.735498726368,-9.64974308014,0.12748645246,0.0,0.0,0.0,0.0,0.0,0.0,0.0,0.0,0.0
1275095500,177134,1644542406627878189,1,0.0,0.0,0.0,0.0,0.0,0.0,0.0,0.0,0.0,0.0,0.0,0.0,0.0,0.0,0.0,0.0,0.0,0.0,0.0,0.0,0.0,0.0,0.0,0.0,0.0,0.764918684959,-9.66935634613,0.196132987738,0.0,0.0,0.0,0.0,0.0,0.0,0.0,0.0,0.0
1277180200,177135,1644542406629891872,1,0.0,0.0,0.0,0.0,0.0,0.0,0.0,0.0,0.0,0.0,0.0,0.0,0.0,0.0,0.0,0.0,0.0,0.0,0.0,0.0,0.0,0.0,0.0,0.0,0.0,0.686465501785,-9.64974308014,0.176519691944,0.0,0.0,0.0,0.0,0.0,0.0,0.0,0.0,0.0
1279113100,177136,1644542406631905794,1,0.0,0.0,0.0,0.0,0.0,0.0,0.0,0.0,0.0,0.0,0.0,0.0,0.0,0.0,0.0,0.0,0.0,0.0,0.0,0.0,0.0,0.0,0.0,0.0,0.0,0.637432217598,-9.58109664917,0.274586200714,0.0,0.0,0.0,0.0,0.0,0.0,0.0,0.0,0.0
1281099800,177137,1644542406633919716,1,0.0,0.0,0.0,0.0,0.0,0.0,0.0,0.0,0.0,0.0,0.0,0.0,0.0,0.0,0.0,0.0,0.0,0.0,0.0,0.0,0.0,0.0,0.0,0.0,0.0,0.637432217598,-9.58109664917,0.38245934248,0.0,0.0,0.0,0.0,0.0,0.0,0.0,0.0,0.0
1283155800,177138,1644542406635933638,1,0.0,0.0,0.0,0.0,0.0,0.0,0.0,0.0,0.0,0.0,0.0,0.0,0.0,0.0,0.0,0.0,0.0,0.0,0.0,0.0,0.0,0.0,0.0,0.0,0.0,0.637432217598,-9.61051654816,0.509945809841,0.0,0.0,0.0,0.0,0.0,0.0,0.0,0.0,0.0
1285079100,177139,1644542406637949467,1,0.0,0.0,0.0,0.0,0.0,0.0,0.0,0.0,0.0,0.0,0.0,0.0,0.0,0.0,0.0,0.0,0.0,0.0,0.0,0.0,0.0,0.0,0.0,0.0,0.0,0.637432217598,-9.61051654816,0.529559075832,0.0,0.0,0.0,0.0,0.0,0.0,0.0,0.0,0.0
1287665500,177140,1644542406639963388,1,0.0,0.0,0.0,0.0,0.0,0.0,0.0,0.0,0.0,0.0,0.0,0.0,0.0,0.0,0.0,0.0,0.0,0.0,0.0,0.0,0.0,0.0,0.0,0.0,0.0,0.725692093372,-9.64974308014,0.558979034424,0.0,0.0,0.0,0.0,0.0,0.0,0.0,0.0,0.0
1289611300,177141,1644542406641977072,1,0.0,0.0,0.0,0.0,0.0,0.0,0.0,0.0,0.0,0.0,0.0,0.0,0.0,0.0,0.0,0.0,0.0,0.0,0.0,0.0,0.0,0.0,0.0,0.0,0.0,0.686465501785,-9.62032318115,0.490332484245,0.0,0.0,0.0,0.0,0.0,0.0,0.0,0.0,0.0
1291511000,177142,1644542406643990993,1,0.0,0.0,0.0,0.0,0.0,0.0,0.0,0.0,0.0,0.0,0.0,0.0,0.0,0.0,0.0,0.0,0.0,0.0,0.0,0.0,0.0,0.0,0.0,0.0,0.0,0.696272134781,-9.62032318115,0.421685934067,0.0,0.0,0.0,0.0,0.0,0.0,0.0,0.0,0.0
1293658900,177143,1644542406646006823,1,0.0,0.0,0.0,0.0,0.0,0.0,0.0,0.0,0.0,0.0,0.0,0.0,0.0,0.0,0.0,0.0,0.0,0.0,0.0,0.0,0.0,0.0,0.0,0.0,0.0,0.598205626011,-9.61051654816,0.402072638273,0.0,0.0,0.0,0.0,0.0,0.0,0.0,0.0,0.0
1295094600,177144,1644542406648020744,1,0.0,0.0,0.0,0.0,0.0,0.0,0.0,0.0,0.0,0.0,0.0,0.0,0.0,0.0,0.0,0.0,0.0,0.0,0.0,0.0,0.0,0.0,0.0,0.0,0.0,0.598205626011,-9.58109664917,0.558979034424,0.0,0.0,0.0,0.0,0.0,0.0,0.0,0.0,0.0
1297234800,177145,1644542406650034666,1,0.0,0.0,0.0,0.0,0.0,0.0,0.0,0.0,0.0,0.0,0.0,0.0,0.0,0.0,0.0,0.0,0.0,0.0,0.0,0.0,0.0,0.0,0.0,0.0,0.0,0.598205626011,-9.61051654816,0.666852176189,0.0,0.0,0.0,0.0,0.0,0.0,0.0,0.0,0.0
1299203100,177146,1644542406652048588,1,0.0,0.0,0.0,0.0,0.0,0.0,0.0,0.0,0.0,0.0,0.0,0.0,0.0,0.0,0.0,0.0,0.0,0.0,0.0,0.0,0.0,0.0,0.0,0.0,0.0,0.558979034424,-9.64974308014,0.529559075832,0.0,0.0,0.0,0.0,0.0,0.0,0.0,0.0,0.0
1301139100,177147,1644542406654064417,1,0.0,0.0,0.0,0.0,0.0,0.0,0.0,0.0,0.0,0.0,0.0,0.0,0.0,0.0,0.0,0.0,0.0,0.0,0.0,0.0,0.0,0.0,0.0,0.0,0.0,0.57859236002,-9.61051654816,0.558979034424,0.0,0.0,0.0,0.0,0.0,0.0,0.0,0.0,0.0
1303075700,177148,1644542406656078100,1,0.0,0.0,0.0,0.0,0.0,0.0,0.0,0.0,0.0,0.0,0.0,0.0,0.0,0.0,0.0,0.0,0.0,0.0,0.0,0.0,0.0,0.0,0.0,0.0,0.0,0.509945809841,-9.64974308014,0.558979034424,0.0,0.0,0.0,0.0,0.0,0.0,0.0,0.0,0.0
1305057500,177149,1644542406658092022,1,0.0,0.0,0.0,0.0,0.0,0.0,0.0,0.0,0.0,0.0,0.0,0.0,0.0,0.0,0.0,0.0,0.0,0.0,0.0,0.0,0.0,0.0,0.0,0.0,0.0,0.637432217598,-9.67916297913,0.598205626011,0.0,0.0,0.0,0.0,0.0,0.0,0.0,0.0,0.0
1307109200,177150,1644542406660105944,1,0.0,0.0,0.0,0.0,0.0,0.0,0.0,0.0,0.0,0.0,0.0,0.0,0.0,0.0,0.0,0.0,0.0,0.0,0.0,0.0,0.0,0.0,0.0,0.0,0.0,0.490332484245,-9.62032318115,0.686465501785,0.0,0.0,0.0,0.0,0.0,0.0,0.0,0.0,0.0
1309383200,177151,1644542406662119865,1,0.0,0.0,0.0,0.0,0.0,0.0,0.0,0.0,0.0,0.0,0.0,0.0,0.0,0.0,0.0,0.0,0.0,0.0,0.0,0.0,0.0,0.0,0.0,0.0,0.0,1.08853816986,-10.0420093536,-0.245166242123,0.0,0.0,0.0,0.0,0.0,0.0,0.0,0.0,0.0
1311327700,177152,1644542406664131641,1,0.0,0.0,0.0,0.0,0.0,0.0,0.0,0.0,0.0,0.0,0.0,0.0,0.0,0.0,0.0,0.0,0.0,0.0,0.0,0.0,0.0,0.0,0.0,0.0,0.0,0.00980664975941,-9.06134414673,-1.47099745274,0.0,0.0,0.0,0.0,0.0,0.0,0.0,0.0,0.0
1313395600,177153,1644542406666149616,1,0.0,0.0,0.0,0.0,0.0,0.0,0.0,0.0,0.0,0.0,0.0,0.0,0.0,0.0,0.0,0.0,0.0,0.0,0.0,0.0,0.0,0.0,0.0,0.0,0.0,1.05911815166,-9.81645679474,0.686465501785,0.0,0.0,0.0,0.0,0.0,0.0,0.0,0.0,0.0
1315418900,177154,1644542406668163300,1,0.0,0.0,0.0,0.0,0.0,0.0,0.0,0.0,0.0,0.0,0.0,0.0,0.0,0.0,0.0,0.0,0.0,0.0,0.0,0.0,0.0,0.0,0.0,0.0,0.0,0.264779537916,-9.56148338318,0.529559075832,0.0,0.0,0.0,0.0,0.0,0.0,0.0,0.0,0.0
1317592300,177155,1644542406670177221,1,0.0,0.0,0.0,0.0,0.0,0.0,0.0,0.0,0.0,0.0,0.0,0.0,0.0,0.0,0.0,0.0,0.0,0.0,0.0,0.0,0.0,0.0,0.0,0.0,0.0,0.666852176189,-9.53206348419,-0.0294199492782,0.0,0.0,0.0,0.0,0.0,0.0,0.0,0.0,0.0
1319453200,177156,1644542406672193050,1,0.0,0.0,0.0,0.0,0.0,0.0,0.0,0.0,0.0,0.0,0.0,0.0,0.0,0.0,0.0,0.0,0.0,0.0,0.0,0.0,0.0,0.0,0.0,0.0,0.0,0.38245934248,-9.61051654816,0.274586200714,0.0,0.0,0.0,0.0,0.0,0.0,0.0,0.0,0.0
1321356700,177157,1644542406674206972,1,0.0,0.0,0.0,0.0,0.0,0.0,0.0,0.0,0.0,0.0,0.0,0.0,0.0,0.0,0.0,0.0,0.0,0.0,0.0,0.0,0.0,0.0,0.0,0.0,0.0,0.509945809841,-9.58109664917,0.313812792301,0.0,0.0,0.0,0.0,0.0,0.0,0.0,0.0,0.0
1323490800,177158,1644542406676220894,1,0.0,0.0,0.0,0.0,0.0,0.0,0.0,0.0,0.0,0.0,0.0,0.0,0.0,0.0,0.0,0.0,0.0,0.0,0.0,0.0,0.0,0.0,0.0,0.0,0.0,0.637432217598,-9.62032318115,0.137293100357,0.0,0.0,0.0,0.0,0.0,0.0,0.0,0.0,0.0
1325478800,177159,1644542406678236723,1,0.0,0.0,0.0,0.0,0.0,0.0,0.0,0.0,0.0,0.0,0.0,0.0,0.0,0.0,0.0,0.0,0.0,0.0,0.0,0.0,0.0,0.0,0.0,0.0,0.0,0.549172401428,-9.53206348419,0.294199496508,0.0,0.0,0.0,0.0,0.0,0.0,0.0,0.0,0.0
1327484400,177160,1644542406680250645,1,0.0,0.0,0.0,0.0,0.0,0.0,0.0,0.0,0.0,0.0,0.0,0.0,0.0,0.0,0.0,0.0,0.0,0.0,0.0,0.0,0.0,0.0,0.0,0.0,0.0,0.490332484245,-9.66935634613,0.137293100357,0.0,0.0,0.0,0.0,0.0,0.0,0.0,0.0,0.0
1329366200,177161,1644542406682264328,1,0.0,0.0,0.0,0.0,0.0,0.0,0.0,0.0,0.0,0.0,0.0,0.0,0.0,0.0,0.0,0.0,0.0,0.0,0.0,0.0,0.0,0.0,0.0,0.0,0.0,0.549172401428,-9.62032318115,0.225552946329,0.0,0.0,0.0,0.0,0.0,0.0,0.0,0.0,0.0
1331328100,177162,1644542406684280157,1,0.0,0.0,0.0,0.0,0.0,0.0,0.0,0.0,0.0,0.0,0.0,0.0,0.0,0.0,0.0,0.0,0.0,0.0,0.0,0.0,0.0,0.0,0.0,0.0,0.0,0.598205626011,-9.61051654816,0.245166242123,0.0,0.0,0.0,0.0,0.0,0.0,0.0,0.0,0.0
1333557600,177163,1644542406686294079,1,0.0,0.0,0.0,0.0,0.0,0.0,0.0,0.0,0.0,0.0,0.0,0.0,0.0,0.0,0.0,0.0,0.0,0.0,0.0,0.0,0.0,0.0,0.0,0.0,0.0,0.549172401428,-9.62032318115,0.166713044047,0.0,0.0,0.0,0.0,0.0,0.0,0.0,0.0,0.0
1335316000,177164,1644542406688308001,1,0.0,0.0,0.0,0.0,0.0,0.0,0.0,0.0,0.0,0.0,0.0,0.0,0.0,0.0,0.0,0.0,0.0,0.0,0.0,0.0,0.0,0.0,0.0,0.0,0.0,0.549172401428,-9.64974308014,0.0980664938688,0.0,0.0,0.0,0.0,0.0,0.0,0.0,0.0,0.0
1337308900,177165,1644542406690324068,1,0.0,0.0,0.0,0.0,0.0,0.0,0.0,0.0,0.0,0.0,0.0,0.0,0.0,0.0,0.0,0.0,0.0,0.0,0.0,0.0,0.0,0.0,0.0,0.0,0.0,0.627625584602,-9.58109664917,0.196132987738,0.0,0.0,0.0,0.0,0.0,0.0,0.0,0.0,0.0
1339663300,177166,1644542406692337990,1,0.0,0.0,0.0,0.0,0.0,0.0,0.0,0.0,0.0,0.0,0.0,0.0,0.0,0.0,0.0,0.0,0.0,0.0,0.0,0.0,0.0,0.0,0.0,0.0,0.0,0.598205626011,-9.58109664917,0.196132987738,0.0,0.0,0.0,0.0,0.0,0.0,0.0,0.0,0.0
1341385900,177167,1644542406694351912,1,0.0,0.0,0.0,0.0,0.0,0.0,0.0,0.0,0.0,0.0,0.0,0.0,0.0,0.0,0.0,0.0,0.0,0.0,0.0,0.0,0.0,0.0,0.0,0.0,0.0,0.558979034424,-9.66935634613,0.12748645246,0.0,0.0,0.0,0.0,0.0,0.0,0.0,0.0,0.0
1343606400,177168,1644542406696365595,1,0.0,0.0,0.0,0.0,0.0,0.0,0.0,0.0,0.0,0.0,0.0,0.0,0.0,0.0,0.0,0.0,0.0,0.0,0.0,0.0,0.0,0.0,0.0,0.0,0.0,0.627625584602,-9.57129001617,0.225552946329,0.0,0.0,0.0,0.0,0.0,0.0,0.0,0.0,0.0
1345599600,177169,1644542406698381424,1,0.0,0.0,0.0,0.0,0.0,0.0,0.0,0.0,0.0,0.0,0.0,0.0,0.0,0.0,0.0,0.0,0.0,0.0,0.0,0.0,0.0,0.0,0.0,0.0,0.0,0.686465501785,-9.62032318115,0.225552946329,0.0,0.0,0.0,0.0,0.0,0.0,0.0,0.0,0.0
1347617700,177170,1644542406700395346,1,0.0,0.0,0.0,0.0,0.0,0.0,0.0,0.0,0.0,0.0,0.0,0.0,0.0,0.0,0.0,0.0,0.0,0.0,0.0,0.0,0.0,0.0,0.0,0.0,0.0,0.598205626011,-9.64974308014,0.12748645246,0.0,0.0,0.0,0.0,0.0,0.0,0.0,0.0,0.0
1349744000,177171,1644542406702409267,1,0.0,0.0,0.0,0.0,0.0,0.0,0.0,0.0,0.0,0.0,0.0,0.0,0.0,0.0,0.0,0.0,0.0,0.0,0.0,0.0,0.0,0.0,0.0,0.0,0.0,0.57859236002,-9.61051654816,0.12748645246,0.0,0.0,0.0,0.0,0.0,0.0,0.0,0.0,0.0
1351612700,177172,1644542406704423189,1,0.0,0.0,0.0,0.0,0.0,0.0,0.0,0.0,0.0,0.0,0.0,0.0,0.0,0.0,0.0,0.0,0.0,0.0,0.0,0.0,0.0,0.0,0.0,0.0,0.0,0.637432217598,-9.62032318115,0.176519691944,0.0,0.0,0.0,0.0,0.0,0.0,0.0,0.0,0.0
1353713500,177173,1644542406706439018,1,0.0,0.0,0.0,0.0,0.0,0.0,0.0,0.0,0.0,0.0,0.0,0.0,0.0,0.0,0.0,0.0,0.0,0.0,0.0,0.0,0.0,0.0,0.0,0.0,0.0,0.666852176189,-9.67916297913,0.245166242123,0.0,0.0,0.0,0.0,0.0,0.0,0.0,0.0,0.0
1355716500,177174,1644542406708452940,1,0.0,0.0,0.0,0.0,0.0,0.0,0.0,0.0,0.0,0.0,0.0,0.0,0.0,0.0,0.0,0.0,0.0,0.0,0.0,0.0,0.0,0.0,0.0,0.0,0.0,0.637432217598,-9.67916297913,0.12748645246,0.0,0.0,0.0,0.0,0.0,0.0,0.0,0.0,0.0
1357732300,177175,1644542406710466623,1,0.0,0.0,0.0,0.0,0.0,0.0,0.0,0.0,0.0,0.0,0.0,0.0,0.0,0.0,0.0,0.0,0.0,0.0,0.0,0.0,0.0,0.0,0.0,0.0,0.0,0.637432217598,-9.58109664917,0.176519691944,0.0,0.0,0.0,0.0,0.0,0.0,0.0,0.0,0.0
1360013100,177176,1644542406712482452,1,0.0,0.0,0.0,0.0,0.0,0.0,0.0,0.0,0.0,0.0,0.0,0.0,0.0,0.0,0.0,0.0,0.0,0.0,0.0,0.0,0.0,0.0,0.0,0.0,0.0,0.696272134781,-9.64974308014,0.176519691944,0.0,0.0,0.0,0.0,0.0,0.0,0.0,0.0,0.0
1361639400,177177,1644542406714496374,1,0.0,0.0,0.0,0.0,0.0,0.0,0.0,0.0,0.0,0.0,0.0,0.0,0.0,0.0,0.0,0.0,0.0,0.0,0.0,0.0,0.0,0.0,0.0,0.0,0.0,0.598205626011,-9.64974308014,0.166713044047,0.0,0.0,0.0,0.0,0.0,0.0,0.0,0.0,0.0
1363577700,177178,1644542406716510296,1,0.0,0.0,0.0,0.0,0.0,0.0,0.0,0.0,0.0,0.0,0.0,0.0,0.0,0.0,0.0,0.0,0.0,0.0,0.0,0.0,0.0,0.0,0.0,0.0,0.0,0.627625584602,-9.64974308014,0.196132987738,0.0,0.0,0.0,0.0,0.0,0.0,0.0,0.0,0.0
1365581700,177179,1644542406718524218,1,0.0,0.0,0.0,0.0,0.0,0.0,0.0,0.0,0.0,0.0,0.0,0.0,0.0,0.0,0.0,0.0,0.0,0.0,0.0,0.0,0.0,0.0,0.0,0.0,0.0,0.696272134781,-9.61051654816,0.176519691944,0.0,0.0,0.0,0.0,0.0,0.0,0.0,0.0,0.0
1367608800,177180,1644542406720540047,1,0.0,0.0,0.0,0.0,0.0,0.0,0.0,0.0,0.0,0.0,0.0,0.0,0.0,0.0,0.0,0.0,0.0,0.0,0.0,0.0,0.0,0.0,0.0,0.0,0.0,0.637432217598,-9.64974308014,0.166713044047,0.0,0.0,0.0,0.0,0.0,0.0,0.0,0.0,0.0
1369885600,177181,1644542406722553968,1,0.0,0.0,0.0,0.0,0.0,0.0,0.0,0.0,0.0,0.0,0.0,0.0,0.0,0.0,0.0,0.0,0.0,0.0,0.0,0.0,0.0,0.0,0.0,0.0,0.0,0.598205626011,-9.62032318115,0.166713044047,0.0,0.0,0.0,0.0,0.0,0.0,0.0,0.0,0.0
1371644900,177182,1644542406724567652,1,0.0,0.0,0.0,0.0,0.0,0.0,0.0,0.0,0.0,0.0,0.0,0.0,0.0,0.0,0.0,0.0,0.0,0.0,0.0,0.0,0.0,0.0,0.0,0.0,0.0,0.598205626011,-9.58109664917,0.245166242123,0.0,0.0,0.0,0.0,0.0,0.0,0.0,0.0,0.0
1373648700,177183,1644542406726583481,1,0.0,0.0,0.0,0.0,0.0,0.0,0.0,0.0,0.0,0.0,0.0,0.0,0.0,0.0,0.0,0.0,0.0,0.0,0.0,0.0,0.0,0.0,0.0,0.0,0.0,0.57859236002,-9.62032318115,0.196132987738,0.0,0.0,0.0,0.0,0.0,0.0,0.0,0.0,0.0
1375598900,177184,1644542406728597403,1,0.0,0.0,0.0,0.0,0.0,0.0,0.0,0.0,0.0,0.0,0.0,0.0,0.0,0.0,0.0,0.0,0.0,0.0,0.0,0.0,0.0,0.0,0.0,0.0,0.0,0.627625584602,-9.64974308014,0.196132987738,0.0,0.0,0.0,0.0,0.0,0.0,0.0,0.0,0.0
1377588800,177185,1644542406730611324,1,0.0,0.0,0.0,0.0,0.0,0.0,0.0,0.0,0.0,0.0,0.0,0.0,0.0,0.0,0.0,0.0,0.0,0.0,0.0,0.0,0.0,0.0,0.0,0.0,0.0,0.57859236002,-9.61051654816,0.274586200714,0.0,0.0,0.0,0.0,0.0,0.0,0.0,0.0,0.0
1379811700,177186,1644542406732627153,1,0.0,0.0,0.0,0.0,0.0,0.0,0.0,0.0,0.0,0.0,0.0,0.0,0.0,0.0,0.0,0.0,0.0,0.0,0.0,0.0,0.0,0.0,0.0,0.0,0.0,0.57859236002,-9.64974308014,0.274586200714,0.0,0.0,0.0,0.0,0.0,0.0,0.0,0.0,0.0
1381897100,177187,1644542406734641075,1,0.0,0.0,0.0,0.0,0.0,0.0,0.0,0.0,0.0,0.0,0.0,0.0,0.0,0.0,0.0,0.0,0.0,0.0,0.0,0.0,0.0,0.0,0.0,0.0,0.0,0.637432217598,-9.67916297913,0.274586200714,0.0,0.0,0.0,0.0,0.0,0.0,0.0,0.0,0.0
1383971200,177188,1644542406736656904,1,0.0,0.0,0.0,0.0,0.0,0.0,0.0,0.0,0.0,0.0,0.0,0.0,0.0,0.0,0.0,0.0,0.0,0.0,0.0,0.0,0.0,0.0,0.0,0.0,0.0,0.558979034424,-9.66935634613,0.313812792301,0.0,0.0,0.0,0.0,0.0,0.0,0.0,0.0,0.0
1385967700,177189,1644542406738670826,1,0.0,0.0,0.0,0.0,0.0,0.0,0.0,0.0,0.0,0.0,0.0,0.0,0.0,0.0,0.0,0.0,0.0,0.0,0.0,0.0,0.0,0.0,0.0,0.0,0.0,0.558979034424,-9.58109664917,0.313812792301,0.0,0.0,0.0,0.0,0.0,0.0,0.0,0.0,0.0
1388351200,177190,1644542406740684509,1,0.0,0.0,0.0,0.0,0.0,0.0,0.0,0.0,0.0,0.0,0.0,0.0,0.0,0.0,0.0,0.0,0.0,0.0,0.0,0.0,0.0,0.0,0.0,0.0,0.0,0.57859236002,-9.62032318115,0.264779537916,0.0,0.0,0.0,0.0,0.0,0.0,0.0,0.0,0.0
1390163300,177191,1644542406742700338,1,0.0,0.0,0.0,0.0,0.0,0.0,0.0,0.0,0.0,0.0,0.0,0.0,0.0,0.0,0.0,0.0,0.0,0.0,0.0,0.0,0.0,0.0,0.0,0.0,0.0,0.558979034424,-9.61051654816,0.294199496508,0.0,0.0,0.0,0.0,0.0,0.0,0.0,0.0,0.0
1391990400,177192,1644542406744714260,1,0.0,0.0,0.0,0.0,0.0,0.0,0.0,0.0,0.0,0.0,0.0,0.0,0.0,0.0,0.0,0.0,0.0,0.0,0.0,0.0,0.0,0.0,0.0,0.0,0.0,0.549172401428,-9.67916297913,0.343232750893,0.0,0.0,0.0,0.0,0.0,0.0,0.0,0.0,0.0
1393851800,177193,1644542406746728182,1,0.0,0.0,0.0,0.0,0.0,0.0,0.0,0.0,0.0,0.0,0.0,0.0,0.0,0.0,0.0,0.0,0.0,0.0,0.0,0.0,0.0,0.0,0.0,0.0,0.0,0.57859236002,-9.64974308014,0.313812792301,0.0,0.0,0.0,0.0,0.0,0.0,0.0,0.0,0.0
1395991000,177194,1644542406748742104,1,0.0,0.0,0.0,0.0,0.0,0.0,0.0,0.0,0.0,0.0,0.0,0.0,0.0,0.0,0.0,0.0,0.0,0.0,0.0,0.0,0.0,0.0,0.0,0.0,0.0,0.598205626011,-9.61051654816,0.274586200714,0.0,0.0,0.0,0.0,0.0,0.0,0.0,0.0,0.0
1397824100,177195,1644542406750758171,1,0.0,0.0,0.0,0.0,0.0,0.0,0.0,0.0,0.0,0.0,0.0,0.0,0.0,0.0,0.0,0.0,0.0,0.0,0.0,0.0,0.0,0.0,0.0,0.0,0.0,0.558979034424,-9.62032318115,0.264779537916,0.0,0.0,0.0,0.0,0.0,0.0,0.0,0.0,0.0
1399923300,177196,1644542406752771854,1,0.0,0.0,0.0,0.0,0.0,0.0,0.0,0.0,0.0,0.0,0.0,0.0,0.0,0.0,0.0,0.0,0.0,0.0,0.0,0.0,0.0,0.0,0.0,0.0,0.0,0.549172401428,-9.66935634613,0.264779537916,0.0,0.0,0.0,0.0,0.0,0.0,0.0,0.0,0.0
1401824700,177197,1644542406754785776,1,0.0,0.0,0.0,0.0,0.0,0.0,0.0,0.0,0.0,0.0,0.0,0.0,0.0,0.0,0.0,0.0,0.0,0.0,0.0,0.0,0.0,0.0,0.0,0.0,0.0,0.549172401428,-9.61051654816,0.274586200714,0.0,0.0,0.0,0.0,0.0,0.0,0.0,0.0,0.0
1403939200,177198,1644542406756801844,1,0.0,0.0,0.0,0.0,0.0,0.0,0.0,0.0,0.0,0.0,0.0,0.0,0.0,0.0,0.0,0.0,0.0,0.0,0.0,0.0,0.0,0.0,0.0,0.0,0.0,0.57859236002,-9.64974308014,0.274586200714,0.0,0.0,0.0,0.0,0.0,0.0,0.0,0.0,0.0
1405878900,177199,1644542406758815527,1,0.0,0.0,0.0,0.0,0.0,0.0,0.0,0.0,0.0,0.0,0.0,0.0,0.0,0.0,0.0,0.0,0.0,0.0,0.0,0.0,0.0,0.0,0.0,0.0,0.0,0.598205626011,-9.66935634613,0.294199496508,0.0,0.0,0.0,0.0,0.0,0.0,0.0,0.0,0.0
1407881800,177200,1644542406760829449,1,0.0,0.0,0.0,0.0,0.0,0.0,0.0,0.0,0.0,0.0,0.0,0.0,0.0,0.0,0.0,0.0,0.0,0.0,0.0,0.0,0.0,0.0,0.0,0.0,0.0,0.57859236002,-9.61051654816,0.225552946329,0.0,0.0,0.0,0.0,0.0,0.0,0.0,0.0,0.0
1409963000,177201,1644542406762843370,1,0.0,0.0,0.0,0.0,0.0,0.0,0.0,0.0,0.0,0.0,0.0,0.0,0.0,0.0,0.0,0.0,0.0,0.0,0.0,0.0,0.0,0.0,0.0,0.0,0.0,0.627625584602,-9.62032318115,0.225552946329,0.0,0.0,0.0,0.0,0.0,0.0,0.0,0.0,0.0
1411847300,177202,1644542406764859200,1,0.0,0.0,0.0,0.0,0.0,0.0,0.0,0.0,0.0,0.0,0.0,0.0,0.0,0.0,0.0,0.0,0.0,0.0,0.0,0.0,0.0,0.0,0.0,0.0,0.0,0.627625584602,-9.61051654816,0.225552946329,0.0,0.0,0.0,0.0,0.0,0.0,0.0,0.0,0.0
1414708700,177203,1644542406766873121,1,0.0,0.0,0.0,0.0,0.0,0.0,0.0,0.0,0.0,0.0,0.0,0.0,0.0,0.0,0.0,0.0,0.0,0.0,0.0,0.0,0.0,0.0,0.0,0.0,0.0,0.598205626011,-9.70858287811,0.137293100357,0.0,0.0,0.0,0.0,0.0,0.0,0.0,0.0,0.0
1416550400,177204,1644542406768887043,1,0.0,0.0,0.0,0.0,0.0,0.0,0.0,0.0,0.0,0.0,0.0,0.0,0.0,0.0,0.0,0.0,0.0,0.0,0.0,0.0,0.0,0.0,0.0,0.0,0.0,0.598205626011,-9.66935634613,0.12748645246,0.0,0.0,0.0,0.0,0.0,0.0,0.0,0.0,0.0
1418623600,177205,1644542406770900726,1,0.0,0.0,0.0,0.0,0.0,0.0,0.0,0.0,0.0,0.0,0.0,0.0,0.0,0.0,0.0,0.0,0.0,0.0,0.0,0.0,0.0,0.0,0.0,0.0,0.0,0.558979034424,-9.61051654816,0.0,0.0,0.0,0.0,0.0,0.0,0.0,0.0,0.0,0.0
1420197100,177206,1644542406772914648,1,0.0,0.0,0.0,0.0,0.0,0.0,0.0,0.0,0.0,0.0,0.0,0.0,0.0,0.0,0.0,0.0,0.0,0.0,0.0,0.0,0.0,0.0,0.0,0.0,0.0,0.558979034424,-9.61051654816,-0.0294199492782,0.0,0.0,0.0,0.0,0.0,0.0,0.0,0.0,0.0
1422214600,177207,1644542406774928570,1,0.0,0.0,0.0,0.0,0.0,0.0,0.0,0.0,0.0,0.0,0.0,0.0,0.0,0.0,0.0,0.0,0.0,0.0,0.0,0.0,0.0,0.0,0.0,0.0,0.0,0.549172401428,-9.62032318115,-0.0392265990376,0.0,0.0,0.0,0.0,0.0,0.0,0.0,0.0,0.0
1424473800,177208,1644542406776942492,1,0.0,0.0,0.0,0.0,0.0,0.0,0.0,0.0,0.0,0.0,0.0,0.0,0.0,0.0,0.0,0.0,0.0,0.0,0.0,0.0,0.0,0.0,0.0,0.0,0.0,0.57859236002,-9.58109664917,-0.0294199492782,0.0,0.0,0.0,0.0,0.0,0.0,0.0,0.0,0.0
1426279300,177209,1644542406778958321,1,0.0,0.0,0.0,0.0,0.0,0.0,0.0,0.0,0.0,0.0,0.0,0.0,0.0,0.0,0.0,0.0,0.0,0.0,0.0,0.0,0.0,0.0,0.0,0.0,0.0,0.598205626011,-9.58109664917,0.00980664975941,0.0,0.0,0.0,0.0,0.0,0.0,0.0,0.0,0.0
1428227700,177210,1644542406780974150,1,0.0,0.0,0.0,0.0,0.0,0.0,0.0,0.0,0.0,0.0,0.0,0.0,0.0,0.0,0.0,0.0,0.0,0.0,0.0,0.0,0.0,0.0,0.0,0.0,0.0,0.598205626011,-9.62032318115,0.0392265990376,0.0,0.0,0.0,0.0,0.0,0.0,0.0,0.0,0.0
1430077700,177211,1644542406782988071,1,0.0,0.0,0.0,0.0,0.0,0.0,0.0,0.0,0.0,0.0,0.0,0.0,0.0,0.0,0.0,0.0,0.0,0.0,0.0,0.0,0.0,0.0,0.0,0.0,0.0,0.627625584602,-9.58109664917,0.137293100357,0.0,0.0,0.0,0.0,0.0,0.0,0.0,0.0,0.0
1432184300,177212,1644542406785001993,1,0.0,0.0,0.0,0.0,0.0,0.0,0.0,0.0,0.0,0.0,0.0,0.0,0.0,0.0,0.0,0.0,0.0,0.0,0.0,0.0,0.0,0.0,0.0,0.0,0.0,0.627625584602,-9.64974308014,0.176519691944,0.0,0.0,0.0,0.0,0.0,0.0,0.0,0.0,0.0
1434082700,177213,1644542406787017822,1,0.0,0.0,0.0,0.0,0.0,0.0,0.0,0.0,0.0,0.0,0.0,0.0,0.0,0.0,0.0,0.0,0.0,0.0,0.0,0.0,0.0,0.0,0.0,0.0,0.0,0.558979034424,-9.61051654816,0.12748645246,0.0,0.0,0.0,0.0,0.0,0.0,0.0,0.0,0.0
1436238700,177214,1644542406789031506,1,0.0,0.0,0.0,0.0,0.0,0.0,0.0,0.0,0.0,0.0,0.0,0.0,0.0,0.0,0.0,0.0,0.0,0.0,0.0,0.0,0.0,0.0,0.0,0.0,0.0,0.666852176189,-9.66935634613,0.196132987738,0.0,0.0,0.0,0.0,0.0,0.0,0.0,0.0,0.0
1438157400,177215,1644542406791045427,1,0.0,0.0,0.0,0.0,0.0,0.0,0.0,0.0,0.0,0.0,0.0,0.0,0.0,0.0,0.0,0.0,0.0,0.0,0.0,0.0,0.0,0.0,0.0,0.0,0.0,0.558979034424,-9.62032318115,0.12748645246,0.0,0.0,0.0,0.0,0.0,0.0,0.0,0.0,0.0
1440032800,177216,1644542406793061256,1,0.0,0.0,0.0,0.0,0.0,0.0,0.0,0.0,0.0,0.0,0.0,0.0,0.0,0.0,0.0,0.0,0.0,0.0,0.0,0.0,0.0,0.0,0.0,0.0,0.0,0.627625584602,-9.62032318115,0.176519691944,0.0,0.0,0.0,0.0,0.0,0.0,0.0,0.0,0.0
1442147800,177217,1644542406795075178,1,0.0,0.0,0.0,0.0,0.0,0.0,0.0,0.0,0.0,0.0,0.0,0.0,0.0,0.0,0.0,0.0,0.0,0.0,0.0,0.0,0.0,0.0,0.0,0.0,0.0,0.666852176189,-9.62032318115,0.313812792301,0.0,0.0,0.0,0.0,0.0,0.0,0.0,0.0,0.0
1444073400,177218,1644542406797089100,1,0.0,0.0,0.0,0.0,0.0,0.0,0.0,0.0,0.0,0.0,0.0,0.0,0.0,0.0,0.0,0.0,0.0,0.0,0.0,0.0,0.0,0.0,0.0,0.0,0.0,0.666852176189,-9.64974308014,0.402072638273,0.0,0.0,0.0,0.0,0.0,0.0,0.0,0.0,0.0
1446564200,177219,1644542406799103022,1,0.0,0.0,0.0,0.0,0.0,0.0,0.0,0.0,0.0,0.0,0.0,0.0,0.0,0.0,0.0,0.0,0.0,0.0,0.0,0.0,0.0,0.0,0.0,0.0,0.0,0.627625584602,-9.62032318115,0.451105892658,0.0,0.0,0.0,0.0,0.0,0.0,0.0,0.0,0.0
1448508500,177220,1644542406801118851,1,0.0,0.0,0.0,0.0,0.0,0.0,0.0,0.0,0.0,0.0,0.0,0.0,0.0,0.0,0.0,0.0,0.0,0.0,0.0,0.0,0.0,0.0,0.0,0.0,0.0,0.598205626011,-9.61051654816,0.362846046686,0.0,0.0,0.0,0.0,0.0,0.0,0.0,0.0,0.0
1450512400,177221,1644542406803132534,1,0.0,0.0,0.0,0.0,0.0,0.0,0.0,0.0,0.0,0.0,0.0,0.0,0.0,0.0,0.0,0.0,0.0,0.0,0.0,0.0,0.0,0.0,0.0,0.0,0.0,0.57859236002,-9.58109664917,0.343232750893,0.0,0.0,0.0,0.0,0.0,0.0,0.0,0.0,0.0
1452425900,177222,1644542406805146456,1,0.0,0.0,0.0,0.0,0.0,0.0,0.0,0.0,0.0,0.0,0.0,0.0,0.0,0.0,0.0,0.0,0.0,0.0,0.0,0.0,0.0,0.0,0.0,0.0,0.0,0.627625584602,-9.62032318115,0.294199496508,0.0,0.0,0.0,0.0,0.0,0.0,0.0,0.0,0.0
1454346100,177223,1644542406807160378,1,0.0,0.0,0.0,0.0,0.0,0.0,0.0,0.0,0.0,0.0,0.0,0.0,0.0,0.0,0.0,0.0,0.0,0.0,0.0,0.0,0.0,0.0,0.0,0.0,0.0,0.57859236002,-9.64974308014,0.343232750893,0.0,0.0,0.0,0.0,0.0,0.0,0.0,0.0,0.0
1456486400,177224,1644542406809176207,1,0.0,0.0,0.0,0.0,0.0,0.0,0.0,0.0,0.0,0.0,0.0,0.0,0.0,0.0,0.0,0.0,0.0,0.0,0.0,0.0,0.0,0.0,0.0,0.0,0.0,0.558979034424,-9.61051654816,0.264779537916,0.0,0.0,0.0,0.0,0.0,0.0,0.0,0.0,0.0
1458357900,177225,1644542406811190128,1,0.0,0.0,0.0,0.0,0.0,0.0,0.0,0.0,0.0,0.0,0.0,0.0,0.0,0.0,0.0,0.0,0.0,0.0,0.0,0.0,0.0,0.0,0.0,0.0,0.0,0.598205626011,-9.64974308014,0.313812792301,0.0,0.0,0.0,0.0,0.0,0.0,0.0,0.0,0.0
1460312600,177226,1644542406813204050,1,0.0,0.0,0.0,0.0,0.0,0.0,0.0,0.0,0.0,0.0,0.0,0.0,0.0,0.0,0.0,0.0,0.0,0.0,0.0,0.0,0.0,0.0,0.0,0.0,0.0,0.598205626011,-9.62032318115,0.294199496508,0.0,0.0,0.0,0.0,0.0,0.0,0.0,0.0,0.0
1462486800,177227,1644542406815219879,1,0.0,0.0,0.0,0.0,0.0,0.0,0.0,0.0,0.0,0.0,0.0,0.0,0.0,0.0,0.0,0.0,0.0,0.0,0.0,0.0,0.0,0.0,0.0,0.0,0.0,0.627625584602,-9.61051654816,0.264779537916,0.0,0.0,0.0,0.0,0.0,0.0,0.0,0.0,0.0
1464356700,177228,1644542406817233801,1,0.0,0.0,0.0,0.0,0.0,0.0,0.0,0.0,0.0,0.0,0.0,0.0,0.0,0.0,0.0,0.0,0.0,0.0,0.0,0.0,0.0,0.0,0.0,0.0,0.0,0.598205626011,-9.61051654816,0.264779537916,0.0,0.0,0.0,0.0,0.0,0.0,0.0,0.0,0.0
1466381500,177229,1644542406819247484,1,0.0,0.0,0.0,0.0,0.0,0.0,0.0,0.0,0.0,0.0,0.0,0.0,0.0,0.0,0.0,0.0,0.0,0.0,0.0,0.0,0.0,0.0,0.0,0.0,0.0,0.598205626011,-9.58109664917,0.225552946329,0.0,0.0,0.0,0.0,0.0,0.0,0.0,0.0,0.0
1468527500,177230,1644542406821261406,1,0.0,0.0,0.0,0.0,0.0,0.0,0.0,0.0,0.0,0.0,0.0,0.0,0.0,0.0,0.0,0.0,0.0,0.0,0.0,0.0,0.0,0.0,0.0,0.0,0.0,0.627625584602,-9.58109664917,0.264779537916,0.0,0.0,0.0,0.0,0.0,0.0,0.0,0.0,0.0
1470433700,177231,1644542406823275328,1,0.0,0.0,0.0,0.0,0.0,0.0,0.0,0.0,0.0,0.0,0.0,0.0,0.0,0.0,0.0,0.0,0.0,0.0,0.0,0.0,0.0,0.0,0.0,0.0,0.0,0.637432217598,-9.62032318115,0.264779537916,0.0,0.0,0.0,0.0,0.0,0.0,0.0,0.0,0.0
1472354000,177232,1644542406825289249,1,0.0,0.0,0.0,0.0,0.0,0.0,0.0,0.0,0.0,0.0,0.0,0.0,0.0,0.0,0.0,0.0,0.0,0.0,0.0,0.0,0.0,0.0,0.0,0.0,0.0,0.57859236002,-9.58109664917,0.245166242123,0.0,0.0,0.0,0.0,0.0,0.0,0.0,0.0,0.0
1474505200,177233,1644542406827303171,1,0.0,0.0,0.0,0.0,0.0,0.0,0.0,0.0,0.0,0.0,0.0,0.0,0.0,0.0,0.0,0.0,0.0,0.0,0.0,0.0,0.0,0.0,0.0,0.0,0.0,0.598205626011,-9.62032318115,0.196132987738,0.0,0.0,0.0,0.0,0.0,0.0,0.0,0.0,0.0
1476329000,177234,1644542406829316854,1,0.0,0.0,0.0,0.0,0.0,0.0,0.0,0.0,0.0,0.0,0.0,0.0,0.0,0.0,0.0,0.0,0.0,0.0,0.0,0.0,0.0,0.0,0.0,0.0,0.0,0.558979034424,-9.62032318115,0.225552946329,0.0,0.0,0.0,0.0,0.0,0.0,0.0,0.0,0.0
1478294200,177235,1644542406831332684,1,0.0,0.0,0.0,0.0,0.0,0.0,0.0,0.0,0.0,0.0,0.0,0.0,0.0,0.0,0.0,0.0,0.0,0.0,0.0,0.0,0.0,0.0,0.0,0.0,0.0,0.598205626011,-9.61051654816,0.225552946329,0.0,0.0,0.0,0.0,0.0,0.0,0.0,0.0,0.0
1480321900,177236,1644542406833346605,1,0.0,0.0,0.0,0.0,0.0,0.0,0.0,0.0,0.0,0.0,0.0,0.0,0.0,0.0,0.0,0.0,0.0,0.0,0.0,0.0,0.0,0.0,0.0,0.0,0.0,0.558979034424,-9.64974308014,0.274586200714,0.0,0.0,0.0,0.0,0.0,0.0,0.0,0.0,0.0
1482755200,177237,1644542406835360527,1,0.0,0.0,0.0,0.0,0.0,0.0,0.0,0.0,0.0,0.0,0.0,0.0,0.0,0.0,0.0,0.0,0.0,0.0,0.0,0.0,0.0,0.0,0.0,0.0,0.0,0.549172401428,-9.61051654816,0.245166242123,0.0,0.0,0.0,0.0,0.0,0.0,0.0,0.0,0.0
1484685700,177238,1644542406837376356,1,0.0,0.0,0.0,0.0,0.0,0.0,0.0,0.0,0.0,0.0,0.0,0.0,0.0,0.0,0.0,0.0,0.0,0.0,0.0,0.0,0.0,0.0,0.0,0.0,0.0,0.627625584602,-9.61051654816,0.264779537916,0.0,0.0,0.0,0.0,0.0,0.0,0.0,0.0,0.0
1486906600,177239,1644542406839390278,1,0.0,0.0,0.0,0.0,0.0,0.0,0.0,0.0,0.0,0.0,0.0,0.0,0.0,0.0,0.0,0.0,0.0,0.0,0.0,0.0,0.0,0.0,0.0,0.0,0.0,0.627625584602,-9.66935634613,0.274586200714,0.0,0.0,0.0,0.0,0.0,0.0,0.0,0.0,0.0
1489110800,177240,1644542406841404200,1,0.0,0.0,0.0,0.0,0.0,0.0,0.0,0.0,0.0,0.0,0.0,0.0,0.0,0.0,0.0,0.0,0.0,0.0,0.0,0.0,0.0,0.0,0.0,0.0,0.0,0.598205626011,-9.64974308014,0.176519691944,0.0,0.0,0.0,0.0,0.0,0.0,0.0,0.0,0.0
1490635700,177241,1644542406843418121,1,0.0,0.0,0.0,0.0,0.0,0.0,0.0,0.0,0.0,0.0,0.0,0.0,0.0,0.0,0.0,0.0,0.0,0.0,0.0,0.0,0.0,0.0,0.0,0.0,0.0,0.558979034424,-9.62032318115,0.176519691944,0.0,0.0,0.0,0.0,0.0,0.0,0.0,0.0,0.0
1492746100,177242,1644542406845431805,1,0.0,0.0,0.0,0.0,0.0,0.0,0.0,0.0,0.0,0.0,0.0,0.0,0.0,0.0,0.0,0.0,0.0,0.0,0.0,0.0,0.0,0.0,0.0,0.0,0.0,0.627625584602,-9.62032318115,0.176519691944,0.0,0.0,0.0,0.0,0.0,0.0,0.0,0.0,0.0
1494589900,177243,1644542406847447872,1,0.0,0.0,0.0,0.0,0.0,0.0,0.0,0.0,0.0,0.0,0.0,0.0,0.0,0.0,0.0,0.0,0.0,0.0,0.0,0.0,0.0,0.0,0.0,0.0,0.0,0.598205626011,-9.66935634613,0.137293100357,0.0,0.0,0.0,0.0,0.0,0.0,0.0,0.0,0.0
1496581300,177244,1644542406849461555,1,0.0,0.0,0.0,0.0,0.0,0.0,0.0,0.0,0.0,0.0,0.0,0.0,0.0,0.0,0.0,0.0,0.0,0.0,0.0,0.0,0.0,0.0,0.0,0.0,0.0,0.57859236002,-9.64974308014,0.166713044047,0.0,0.0,0.0,0.0,0.0,0.0,0.0,0.0,0.0
1498891300,177245,1644542406851475477,1,0.0,0.0,0.0,0.0,0.0,0.0,0.0,0.0,0.0,0.0,0.0,0.0,0.0,0.0,0.0,0.0,0.0,0.0,0.0,0.0,0.0,0.0,0.0,0.0,0.0,0.598205626011,-9.67916297913,0.0980664938688,0.0,0.0,0.0,0.0,0.0,0.0,0.0,0.0,0.0
1500704700,177246,1644542406853489399,1,0.0,0.0,0.0,0.0,0.0,0.0,0.0,0.0,0.0,0.0,0.0,0.0,0.0,0.0,0.0,0.0,0.0,0.0,0.0,0.0,0.0,0.0,0.0,0.0,0.0,0.558979034424,-9.62032318115,0.176519691944,0.0,0.0,0.0,0.0,0.0,0.0,0.0,0.0,0.0
1502608300,177247,1644542406855503321,1,0.0,0.0,0.0,0.0,0.0,0.0,0.0,0.0,0.0,0.0,0.0,0.0,0.0,0.0,0.0,0.0,0.0,0.0,0.0,0.0,0.0,0.0,0.0,0.0,0.0,0.598205626011,-9.64974308014,0.12748645246,0.0,0.0,0.0,0.0,0.0,0.0,0.0,0.0,0.0
1504632400,177248,1644542406857519388,1,0.0,0.0,0.0,0.0,0.0,0.0,0.0,0.0,0.0,0.0,0.0,0.0,0.0,0.0,0.0,0.0,0.0,0.0,0.0,0.0,0.0,0.0,0.0,0.0,0.0,0.627625584602,-9.61051654816,0.176519691944,0.0,0.0,0.0,0.0,0.0,0.0,0.0,0.0,0.0
1506587500,177249,1644542406859533072,1,0.0,0.0,0.0,0.0,0.0,0.0,0.0,0.0,0.0,0.0,0.0,0.0,0.0,0.0,0.0,0.0,0.0,0.0,0.0,0.0,0.0,0.0,0.0,0.0,0.0,0.637432217598,-9.64974308014,0.166713044047,0.0,0.0,0.0,0.0,0.0,0.0,0.0,0.0,0.0
1508564500,177250,1644542406861546993,1,0.0,0.0,0.0,0.0,0.0,0.0,0.0,0.0,0.0,0.0,0.0,0.0,0.0,0.0,0.0,0.0,0.0,0.0,0.0,0.0,0.0,0.0,0.0,0.0,0.0,0.637432217598,-9.66935634613,0.225552946329,0.0,0.0,0.0,0.0,0.0,0.0,0.0,0.0,0.0
1510684100,177251,1644542406863560677,1,0.0,0.0,0.0,0.0,0.0,0.0,0.0,0.0,0.0,0.0,0.0,0.0,0.0,0.0,0.0,0.0,0.0,0.0,0.0,0.0,0.0,0.0,0.0,0.0,0.0,0.598205626011,-9.62032318115,0.176519691944,0.0,0.0,0.0,0.0,0.0,0.0,0.0,0.0,0.0
1512721400,177252,1644542406865574598,1,0.0,0.0,0.0,0.0,0.0,0.0,0.0,0.0,0.0,0.0,0.0,0.0,0.0,0.0,0.0,0.0,0.0,0.0,0.0,0.0,0.0,0.0,0.0,0.0,0.0,0.57859236002,-9.62032318115,0.225552946329,0.0,0.0,0.0,0.0,0.0,0.0,0.0,0.0,0.0
1514595100,177253,1644542406867590666,1,0.0,0.0,0.0,0.0,0.0,0.0,0.0,0.0,0.0,0.0,0.0,0.0,0.0,0.0,0.0,0.0,0.0,0.0,0.0,0.0,0.0,0.0,0.0,0.0,0.0,0.549172401428,-9.62032318115,0.196132987738,0.0,0.0,0.0,0.0,0.0,0.0,0.0,0.0,0.0
1516607500,177254,1644542406869604588,1,0.0,0.0,0.0,0.0,0.0,0.0,0.0,0.0,0.0,0.0,0.0,0.0,0.0,0.0,0.0,0.0,0.0,0.0,0.0,0.0,0.0,0.0,0.0,0.0,0.0,0.598205626011,-9.64974308014,0.166713044047,0.0,0.0,0.0,0.0,0.0,0.0,0.0,0.0,0.0
1518979300,177255,1644542406871618509,1,0.0,0.0,0.0,0.0,0.0,0.0,0.0,0.0,0.0,0.0,0.0,0.0,0.0,0.0,0.0,0.0,0.0,0.0,0.0,0.0,0.0,0.0,0.0,0.0,0.0,0.529559075832,-9.62032318115,0.176519691944,0.0,0.0,0.0,0.0,0.0,0.0,0.0,0.0,0.0
1520975900,177256,1644542406873632193,1,0.0,0.0,0.0,0.0,0.0,0.0,0.0,0.0,0.0,0.0,0.0,0.0,0.0,0.0,0.0,0.0,0.0,0.0,0.0,0.0,0.0,0.0,0.0,0.0,0.0,0.529559075832,-9.64974308014,0.245166242123,0.0,0.0,0.0,0.0,0.0,0.0,0.0,0.0,0.0
1522987000,177257,1644542406875646114,1,0.0,0.0,0.0,0.0,0.0,0.0,0.0,0.0,0.0,0.0,0.0,0.0,0.0,0.0,0.0,0.0,0.0,0.0,0.0,0.0,0.0,0.0,0.0,0.0,0.0,0.490332484245,-9.61051654816,0.245166242123,0.0,0.0,0.0,0.0,0.0,0.0,0.0,0.0,0.0
1525508800,177258,1644542406877661943,1,0.0,0.0,0.0,0.0,0.0,0.0,0.0,0.0,0.0,0.0,0.0,0.0,0.0,0.0,0.0,0.0,0.0,0.0,0.0,0.0,0.0,0.0,0.0,0.0,0.0,0.509945809841,-9.58109664917,0.196132987738,0.0,0.0,0.0,0.0,0.0,0.0,0.0,0.0,0.0
1526889700,177259,1644542406879675865,1,0.0,0.0,0.0,0.0,0.0,0.0,0.0,0.0,0.0,0.0,0.0,0.0,0.0,0.0,0.0,0.0,0.0,0.0,0.0,0.0,0.0,0.0,0.0,0.0,0.0,0.490332484245,-9.62032318115,0.225552946329,0.0,0.0,0.0,0.0,0.0,0.0,0.0,0.0,0.0
1528839100,177260,1644542406881689787,1,0.0,0.0,0.0,0.0,0.0,0.0,0.0,0.0,0.0,0.0,0.0,0.0,0.0,0.0,0.0,0.0,0.0,0.0,0.0,0.0,0.0,0.0,0.0,0.0,0.0,0.529559075832,-9.62032318115,0.176519691944,0.0,0.0,0.0,0.0,0.0,0.0,0.0,0.0,0.0
1530931600,177261,1644542406883703709,1,0.0,0.0,0.0,0.0,0.0,0.0,0.0,0.0,0.0,0.0,0.0,0.0,0.0,0.0,0.0,0.0,0.0,0.0,0.0,0.0,0.0,0.0,0.0,0.0,0.0,0.509945809841,-9.61051654816,0.225552946329,0.0,0.0,0.0,0.0,0.0,0.0,0.0,0.0,0.0
1533000500,177262,1644542406885719538,1,0.0,0.0,0.0,0.0,0.0,0.0,0.0,0.0,0.0,0.0,0.0,0.0,0.0,0.0,0.0,0.0,0.0,0.0,0.0,0.0,0.0,0.0,0.0,0.0,0.0,0.490332484245,-9.61051654816,0.264779537916,0.0,0.0,0.0,0.0,0.0,0.0,0.0,0.0,0.0
1534887800,177263,1644542406887733459,1,0.0,0.0,0.0,0.0,0.0,0.0,0.0,0.0,0.0,0.0,0.0,0.0,0.0,0.0,0.0,0.0,0.0,0.0,0.0,0.0,0.0,0.0,0.0,0.0,0.0,0.470719188452,-9.62032318115,0.294199496508,0.0,0.0,0.0,0.0,0.0,0.0,0.0,0.0,0.0
1536849900,177264,1644542406889747143,1,0.0,0.0,0.0,0.0,0.0,0.0,0.0,0.0,0.0,0.0,0.0,0.0,0.0,0.0,0.0,0.0,0.0,0.0,0.0,0.0,0.0,0.0,0.0,0.0,0.0,0.451105892658,-9.61051654816,0.245166242123,0.0,0.0,0.0,0.0,0.0,0.0,0.0,0.0,0.0
1538977200,177265,1644542406891762972,1,0.0,0.0,0.0,0.0,0.0,0.0,0.0,0.0,0.0,0.0,0.0,0.0,0.0,0.0,0.0,0.0,0.0,0.0,0.0,0.0,0.0,0.0,0.0,0.0,0.0,0.421685934067,-9.58109664917,0.225552946329,0.0,0.0,0.0,0.0,0.0,0.0,0.0,0.0,0.0
1540938900,177266,1644542406893776894,1,0.0,0.0,0.0,0.0,0.0,0.0,0.0,0.0,0.0,0.0,0.0,0.0,0.0,0.0,0.0,0.0,0.0,0.0,0.0,0.0,0.0,0.0,0.0,0.0,0.0,0.402072638273,-9.61051654816,0.264779537916,0.0,0.0,0.0,0.0,0.0,0.0,0.0,0.0,0.0
1542829500,177267,1644542406895790815,1,0.0,0.0,0.0,0.0,0.0,0.0,0.0,0.0,0.0,0.0,0.0,0.0,0.0,0.0,0.0,0.0,0.0,0.0,0.0,0.0,0.0,0.0,0.0,0.0,0.0,0.451105892658,-9.61051654816,0.264779537916,0.0,0.0,0.0,0.0,0.0,0.0,0.0,0.0,0.0
1545515900,177268,1644542406897804737,1,0.0,0.0,0.0,0.0,0.0,0.0,0.0,0.0,0.0,0.0,0.0,0.0,0.0,0.0,0.0,0.0,0.0,0.0,0.0,0.0,0.0,0.0,0.0,0.0,0.0,0.490332484245,-9.66935634613,0.264779537916,0.0,0.0,0.0,0.0,0.0,0.0,0.0,0.0,0.0
1546925400,177269,1644542406899820566,1,0.0,0.0,0.0,0.0,0.0,0.0,0.0,0.0,0.0,0.0,0.0,0.0,0.0,0.0,0.0,0.0,0.0,0.0,0.0,0.0,0.0,0.0,0.0,0.0,0.0,0.421685934067,-9.61051654816,0.245166242123,0.0,0.0,0.0,0.0,0.0,0.0,0.0,0.0,0.0
1548891400,177270,1644542406901834488,1,0.0,0.0,0.0,0.0,0.0,0.0,0.0,0.0,0.0,0.0,0.0,0.0,0.0,0.0,0.0,0.0,0.0,0.0,0.0,0.0,0.0,0.0,0.0,0.0,0.0,0.421685934067,-9.61051654816,0.245166242123,0.0,0.0,0.0,0.0,0.0,0.0,0.0,0.0,0.0
1551422200,177271,1644542406903848410,1,0.0,0.0,0.0,0.0,0.0,0.0,0.0,0.0,0.0,0.0,0.0,0.0,0.0,0.0,0.0,0.0,0.0,0.0,0.0,0.0,0.0,0.0,0.0,0.0,0.0,0.490332484245,-9.57129001617,0.225552946329,0.0,0.0,0.0,0.0,0.0,0.0,0.0,0.0,0.0
1553052200,177272,1644542406905864239,1,0.0,0.0,0.0,0.0,0.0,0.0,0.0,0.0,0.0,0.0,0.0,0.0,0.0,0.0,0.0,0.0,0.0,0.0,0.0,0.0,0.0,0.0,0.0,0.0,0.0,0.490332484245,-9.58109664917,0.274586200714,0.0,0.0,0.0,0.0,0.0,0.0,0.0,0.0,0.0
1555203700,177273,1644542406907877922,1,0.0,0.0,0.0,0.0,0.0,0.0,0.0,0.0,0.0,0.0,0.0,0.0,0.0,0.0,0.0,0.0,0.0,0.0,0.0,0.0,0.0,0.0,0.0,0.0,0.0,0.490332484245,-9.62032318115,0.264779537916,0.0,0.0,0.0,0.0,0.0,0.0,0.0,0.0,0.0
1557224400,177274,1644542406909891844,1,0.0,0.0,0.0,0.0,0.0,0.0,0.0,0.0,0.0,0.0,0.0,0.0,0.0,0.0,0.0,0.0,0.0,0.0,0.0,0.0,0.0,0.0,0.0,0.0,0.0,0.558979034424,-9.61051654816,0.245166242123,0.0,0.0,0.0,0.0,0.0,0.0,0.0,0.0,0.0
1559185800,177275,1644542406911905766,1,0.0,0.0,0.0,0.0,0.0,0.0,0.0,0.0,0.0,0.0,0.0,0.0,0.0,0.0,0.0,0.0,0.0,0.0,0.0,0.0,0.0,0.0,0.0,0.0,0.0,0.558979034424,-9.61051654816,0.245166242123,0.0,0.0,0.0,0.0,0.0,0.0,0.0,0.0,0.0
1561432500,177276,1644542406913921595,1,0.0,0.0,0.0,0.0,0.0,0.0,0.0,0.0,0.0,0.0,0.0,0.0,0.0,0.0,0.0,0.0,0.0,0.0,0.0,0.0,0.0,0.0,0.0,0.0,0.0,0.558979034424,-9.62032318115,0.264779537916,0.0,0.0,0.0,0.0,0.0,0.0,0.0,0.0,0.0
1563161400,177277,1644542406915935516,1,0.0,0.0,0.0,0.0,0.0,0.0,0.0,0.0,0.0,0.0,0.0,0.0,0.0,0.0,0.0,0.0,0.0,0.0,0.0,0.0,0.0,0.0,0.0,0.0,0.0,0.558979034424,-9.61051654816,0.245166242123,0.0,0.0,0.0,0.0,0.0,0.0,0.0,0.0,0.0
1565247600,177278,1644542406917949438,1,0.0,0.0,0.0,0.0,0.0,0.0,0.0,0.0,0.0,0.0,0.0,0.0,0.0,0.0,0.0,0.0,0.0,0.0,0.0,0.0,0.0,0.0,0.0,0.0,0.0,0.598205626011,-9.5222568512,0.176519691944,0.0,0.0,0.0,0.0,0.0,0.0,0.0,0.0,0.0
1567526500,177279,1644542406919963121,1,0.0,0.0,0.0,0.0,0.0,0.0,0.0,0.0,0.0,0.0,0.0,0.0,0.0,0.0,0.0,0.0,0.0,0.0,0.0,0.0,0.0,0.0,0.0,0.0,0.0,1.54945063591,-9.70858287811,-0.196132987738,0.0,0.0,0.0,0.0,0.0,0.0,0.0,0.0,0.0
1569227400,177280,1644542406921978951,1,0.0,0.0,0.0,0.0,0.0,0.0,0.0,0.0,0.0,0.0,0.0,0.0,0.0,0.0,0.0,0.0,0.0,0.0,0.0,0.0,0.0,0.0,0.0,0.0,0.0,0.558979034424,-9.66935634613,1.20621788502,0.0,0.0,0.0,0.0,0.0,0.0,0.0,0.0,0.0
1571217200,177281,1644542406923992872,1,0.0,0.0,0.0,0.0,0.0,0.0,0.0,0.0,0.0,0.0,0.0,0.0,0.0,0.0,0.0,0.0,0.0,0.0,0.0,0.0,0.0,0.0,0.0,0.0,0.0,0.57859236002,-9.57129001617,0.0686465501785,0.0,0.0,0.0,0.0,0.0,0.0,0.0,0.0,0.0
1573603300,177282,1644542406926006794,1,0.0,0.0,0.0,0.0,0.0,0.0,0.0,0.0,0.0,0.0,0.0,0.0,0.0,0.0,0.0,0.0,0.0,0.0,0.0,0.0,0.0,0.0,0.0,0.0,0.0,0.686465501785,-9.66935634613,0.313812792301,0.0,0.0,0.0,0.0,0.0,0.0,0.0,0.0,0.0
1575417700,177283,1644542406928022623,1,0.0,0.0,0.0,0.0,0.0,0.0,0.0,0.0,0.0,0.0,0.0,0.0,0.0,0.0,0.0,0.0,0.0,0.0,0.0,0.0,0.0,0.0,0.0,0.0,0.0,0.470719188452,-9.56148338318,0.245166242123,0.0,0.0,0.0,0.0,0.0,0.0,0.0,0.0,0.0
1577108400,177284,1644542406930036545,1,0.0,0.0,0.0,0.0,0.0,0.0,0.0,0.0,0.0,0.0,0.0,0.0,0.0,0.0,0.0,0.0,0.0,0.0,0.0,0.0,0.0,0.0,0.0,0.0,0.0,0.666852176189,-9.58109664917,0.274586200714,0.0,0.0,0.0,0.0,0.0,0.0,0.0,0.0,0.0
1579159100,177285,1644542406932050467,1,0.0,0.0,0.0,0.0,0.0,0.0,0.0,0.0,0.0,0.0,0.0,0.0,0.0,0.0,0.0,0.0,0.0,0.0,0.0,0.0,0.0,0.0,0.0,0.0,0.0,0.57859236002,-9.61051654816,0.176519691944,0.0,0.0,0.0,0.0,0.0,0.0,0.0,0.0,0.0
1581409300,177286,1644542406934066296,1,0.0,0.0,0.0,0.0,0.0,0.0,0.0,0.0,0.0,0.0,0.0,0.0,0.0,0.0,0.0,0.0,0.0,0.0,0.0,0.0,0.0,0.0,0.0,0.0,0.0,0.598205626011,-9.61051654816,0.225552946329,0.0,0.0,0.0,0.0,0.0,0.0,0.0,0.0,0.0
1583153400,177287,1644542406936080217,1,0.0,0.0,0.0,0.0,0.0,0.0,0.0,0.0,0.0,0.0,0.0,0.0,0.0,0.0,0.0,0.0,0.0,0.0,0.0,0.0,0.0,0.0,0.0,0.0,0.0,0.627625584602,-9.61051654816,0.264779537916,0.0,0.0,0.0,0.0,0.0,0.0,0.0,0.0,0.0
1585402900,177288,1644542406938093901,1,0.0,0.0,0.0,0.0,0.0,0.0,0.0,0.0,0.0,0.0,0.0,0.0,0.0,0.0,0.0,0.0,0.0,0.0,0.0,0.0,0.0,0.0,0.0,0.0,0.0,0.666852176189,-9.66935634613,0.225552946329,0.0,0.0,0.0,0.0,0.0,0.0,0.0,0.0,0.0
1587123900,177289,1644542406940110207,1,0.0,0.0,0.0,0.0,0.0,0.0,0.0,0.0,0.0,0.0,0.0,0.0,0.0,0.0,0.0,0.0,0.0,0.0,0.0,0.0,0.0,0.0,0.0,0.0,0.0,0.627625584602,-9.62032318115,0.176519691944,0.0,0.0,0.0,0.0,0.0,0.0,0.0,0.0,0.0
1589888200,177290,1644542406942123890,1,0.0,0.0,0.0,0.0,0.0,0.0,0.0,0.0,0.0,0.0,0.0,0.0,0.0,0.0,0.0,0.0,0.0,0.0,0.0,0.0,0.0,0.0,0.0,0.0,0.0,0.666852176189,-9.64974308014,0.264779537916,0.0,0.0,0.0,0.0,0.0,0.0,0.0,0.0,0.0
1591365400,177291,1644542406944137812,1,0.0,0.0,0.0,0.0,0.0,0.0,0.0,0.0,0.0,0.0,0.0,0.0,0.0,0.0,0.0,0.0,0.0,0.0,0.0,0.0,0.0,0.0,0.0,0.0,0.0,0.666852176189,-9.62032318115,0.245166242123,0.0,0.0,0.0,0.0,0.0,0.0,0.0,0.0,0.0
1593889600,177292,1644542406946153641,1,0.0,0.0,0.0,0.0,0.0,0.0,0.0,0.0,0.0,0.0,0.0,0.0,0.0,0.0,0.0,0.0,0.0,0.0,0.0,0.0,0.0,0.0,0.0,0.0,0.0,0.57859236002,-9.61051654816,0.176519691944,0.0,0.0,0.0,0.0,0.0,0.0,0.0,0.0,0.0
1595797800,177293,1644542406948167562,1,0.0,0.0,0.0,0.0,0.0,0.0,0.0,0.0,0.0,0.0,0.0,0.0,0.0,0.0,0.0,0.0,0.0,0.0,0.0,0.0,0.0,0.0,0.0,0.0,0.0,0.637432217598,-9.66935634613,0.12748645246,0.0,0.0,0.0,0.0,0.0,0.0,0.0,0.0,0.0
1597826500,177294,1644542406950181484,1,0.0,0.0,0.0,0.0,0.0,0.0,0.0,0.0,0.0,0.0,0.0,0.0,0.0,0.0,0.0,0.0,0.0,0.0,0.0,0.0,0.0,0.0,0.0,0.0,0.0,0.627625584602,-9.58109664917,0.245166242123,0.0,0.0,0.0,0.0,0.0,0.0,0.0,0.0,0.0
1599531200,177295,1644542406952195406,1,0.0,0.0,0.0,0.0,0.0,0.0,0.0,0.0,0.0,0.0,0.0,0.0,0.0,0.0,0.0,0.0,0.0,0.0,0.0,0.0,0.0,0.0,0.0,0.0,0.0,0.637432217598,-9.67916297913,0.225552946329,0.0,0.0,0.0,0.0,0.0,0.0,0.0,0.0,0.0
1601431100,177296,1644542406954211235,1,0.0,0.0,0.0,0.0,0.0,0.0,0.0,0.0,0.0,0.0,0.0,0.0,0.0,0.0,0.0,0.0,0.0,0.0,0.0,0.0,0.0,0.0,0.0,0.0,0.0,0.598205626011,-9.64974308014,0.196132987738,0.0,0.0,0.0,0.0,0.0,0.0,0.0,0.0,0.0
1603858300,177297,1644542406956225157,1,0.0,0.0,0.0,0.0,0.0,0.0,0.0,0.0,0.0,0.0,0.0,0.0,0.0,0.0,0.0,0.0,0.0,0.0,0.0,0.0,0.0,0.0,0.0,0.0,0.0,0.637432217598,-9.67916297913,0.225552946329,0.0,0.0,0.0,0.0,0.0,0.0,0.0,0.0,0.0
1605733200,177298,1644542406958238840,1,0.0,0.0,0.0,0.0,0.0,0.0,0.0,0.0,0.0,0.0,0.0,0.0,0.0,0.0,0.0,0.0,0.0,0.0,0.0,0.0,0.0,0.0,0.0,0.0,0.0,0.598205626011,-9.64974308014,0.264779537916,0.0,0.0,0.0,0.0,0.0,0.0,0.0,0.0,0.0
1607424500,177299,1644542406960254669,1,0.0,0.0,0.0,0.0,0.0,0.0,0.0,0.0,0.0,0.0,0.0,0.0,0.0,0.0,0.0,0.0,0.0,0.0,0.0,0.0,0.0,0.0,0.0,0.0,0.0,0.637432217598,-9.64974308014,0.137293100357,0.0,0.0,0.0,0.0,0.0,0.0,0.0,0.0,0.0
1609391700,177300,1644542406962268591,1,0.0,0.0,0.0,0.0,0.0,0.0,0.0,0.0,0.0,0.0,0.0,0.0,0.0,0.0,0.0,0.0,0.0,0.0,0.0,0.0,0.0,0.0,0.0,0.0,0.0,0.637432217598,-9.62032318115,0.225552946329,0.0,0.0,0.0,0.0,0.0,0.0,0.0,0.0,0.0
1611424900,177301,1644542406964282513,1,0.0,0.0,0.0,0.0,0.0,0.0,0.0,0.0,0.0,0.0,0.0,0.0,0.0,0.0,0.0,0.0,0.0,0.0,0.0,0.0,0.0,0.0,0.0,0.0,0.0,0.637432217598,-9.61051654816,0.225552946329,0.0,0.0,0.0,0.0,0.0,0.0,0.0,0.0,0.0
1613486300,177302,1644542406966298342,1,0.0,0.0,0.0,0.0,0.0,0.0,0.0,0.0,0.0,0.0,0.0,0.0,0.0,0.0,0.0,0.0,0.0,0.0,0.0,0.0,0.0,0.0,0.0,0.0,0.0,0.598205626011,-9.62032318115,0.196132987738,0.0,0.0,0.0,0.0,0.0,0.0,0.0,0.0,0.0
1615471500,177303,1644542406968312263,1,0.0,0.0,0.0,0.0,0.0,0.0,0.0,0.0,0.0,0.0,0.0,0.0,0.0,0.0,0.0,0.0,0.0,0.0,0.0,0.0,0.0,0.0,0.0,0.0,0.0,0.558979034424,-9.64974308014,0.166713044047,0.0,0.0,0.0,0.0,0.0,0.0,0.0,0.0,0.0
1617316800,177304,1644542406970326185,1,0.0,0.0,0.0,0.0,0.0,0.0,0.0,0.0,0.0,0.0,0.0,0.0,0.0,0.0,0.0,0.0,0.0,0.0,0.0,0.0,0.0,0.0,0.0,0.0,0.0,0.57859236002,-9.61051654816,0.264779537916,0.0,0.0,0.0,0.0,0.0,0.0,0.0,0.0,0.0
1619462400,177305,1644542406972342014,1,0.0,0.0,0.0,0.0,0.0,0.0,0.0,0.0,0.0,0.0,0.0,0.0,0.0,0.0,0.0,0.0,0.0,0.0,0.0,0.0,0.0,0.0,0.0,0.0,0.0,0.598205626011,-9.66935634613,0.264779537916,0.0,0.0,0.0,0.0,0.0,0.0,0.0,0.0,0.0
1621358100,177306,1644542406974355936,1,0.0,0.0,0.0,0.0,0.0,0.0,0.0,0.0,0.0,0.0,0.0,0.0,0.0,0.0,0.0,0.0,0.0,0.0,0.0,0.0,0.0,0.0,0.0,0.0,0.0,0.57859236002,-9.67916297913,0.196132987738,0.0,0.0,0.0,0.0,0.0,0.0,0.0,0.0,0.0
1623563900,177307,1644542406976369619,1,0.0,0.0,0.0,0.0,0.0,0.0,0.0,0.0,0.0,0.0,0.0,0.0,0.0,0.0,0.0,0.0,0.0,0.0,0.0,0.0,0.0,0.0,0.0,0.0,0.0,0.57859236002,-9.62032318115,0.264779537916,0.0,0.0,0.0,0.0,0.0,0.0,0.0,0.0,0.0
1625575200,177308,1644542406978385448,1,0.0,0.0,0.0,0.0,0.0,0.0,0.0,0.0,0.0,0.0,0.0,0.0,0.0,0.0,0.0,0.0,0.0,0.0,0.0,0.0,0.0,0.0,0.0,0.0,0.0,0.57859236002,-9.67916297913,0.245166242123,0.0,0.0,0.0,0.0,0.0,0.0,0.0,0.0,0.0
1627591700,177309,1644542406980399370,1,0.0,0.0,0.0,0.0,0.0,0.0,0.0,0.0,0.0,0.0,0.0,0.0,0.0,0.0,0.0,0.0,0.0,0.0,0.0,0.0,0.0,0.0,0.0,0.0,0.0,0.558979034424,-9.62032318115,0.294199496508,0.0,0.0,0.0,0.0,0.0,0.0,0.0,0.0,0.0
1629608100,177310,1644542406982413292,1,0.0,0.0,0.0,0.0,0.0,0.0,0.0,0.0,0.0,0.0,0.0,0.0,0.0,0.0,0.0,0.0,0.0,0.0,0.0,0.0,0.0,0.0,0.0,0.0,0.0,0.549172401428,-9.64974308014,0.245166242123,0.0,0.0,0.0,0.0,0.0,0.0,0.0,0.0,0.0
1631716400,177311,1644542406984427214,1,0.0,0.0,0.0,0.0,0.0,0.0,0.0,0.0,0.0,0.0,0.0,0.0,0.0,0.0,0.0,0.0,0.0,0.0,0.0,0.0,0.0,0.0,0.0,0.0,0.0,0.558979034424,-9.58109664917,0.225552946329,0.0,0.0,0.0,0.0,0.0,0.0,0.0,0.0,0.0
1633572000,177312,1644542406986443043,1,0.0,0.0,0.0,0.0,0.0,0.0,0.0,0.0,0.0,0.0,0.0,0.0,0.0,0.0,0.0,0.0,0.0,0.0,0.0,0.0,0.0,0.0,0.0,0.0,0.0,0.558979034424,-9.62032318115,0.264779537916,0.0,0.0,0.0,0.0,0.0,0.0,0.0,0.0,0.0
1635569500,177313,1644542406988456964,1,0.0,0.0,0.0,0.0,0.0,0.0,0.0,0.0,0.0,0.0,0.0,0.0,0.0,0.0,0.0,0.0,0.0,0.0,0.0,0.0,0.0,0.0,0.0,0.0,0.0,0.57859236002,-9.62032318115,0.225552946329,0.0,0.0,0.0,0.0,0.0,0.0,0.0,0.0,0.0
1637532000,177314,1644542406990470886,1,0.0,0.0,0.0,0.0,0.0,0.0,0.0,0.0,0.0,0.0,0.0,0.0,0.0,0.0,0.0,0.0,0.0,0.0,0.0,0.0,0.0,0.0,0.0,0.0,0.0,0.598205626011,-9.64974308014,0.245166242123,0.0,0.0,0.0,0.0,0.0,0.0,0.0,0.0,0.0
1639619600,177315,1644542406992486715,1,0.0,0.0,0.0,0.0,0.0,0.0,0.0,0.0,0.0,0.0,0.0,0.0,0.0,0.0,0.0,0.0,0.0,0.0,0.0,0.0,0.0,0.0,0.0,0.0,0.0,0.598205626011,-9.66935634613,0.274586200714,0.0,0.0,0.0,0.0,0.0,0.0,0.0,0.0,0.0
1641567100,177316,1644542406994500399,1,0.0,0.0,0.0,0.0,0.0,0.0,0.0,0.0,0.0,0.0,0.0,0.0,0.0,0.0,0.0,0.0,0.0,0.0,0.0,0.0,0.0,0.0,0.0,0.0,0.0,0.57859236002,-9.62032318115,0.225552946329,0.0,0.0,0.0,0.0,0.0,0.0,0.0,0.0,0.0
1643702100,177317,1644542406996514320,1,0.0,0.0,0.0,0.0,0.0,0.0,0.0,0.0,0.0,0.0,0.0,0.0,0.0,0.0,0.0,0.0,0.0,0.0,0.0,0.0,0.0,0.0,0.0,0.0,0.0,0.549172401428,-9.61051654816,0.264779537916,0.0,0.0,0.0,0.0,0.0,0.0,0.0,0.0,0.0
1645581000,177318,1644542406998530388,1,0.0,0.0,0.0,0.0,0.0,0.0,0.0,0.0,0.0,0.0,0.0,0.0,0.0,0.0,0.0,0.0,0.0,0.0,0.0,0.0,0.0,0.0,0.0,0.0,0.0,0.57859236002,-9.62032318115,0.274586200714,0.0,0.0,0.0,0.0,0.0,0.0,0.0,0.0,0.0
1647574500,177319,1644542407000544071,1,0.0,0.0,0.0,0.0,0.0,0.0,0.0,0.0,0.0,0.0,0.0,0.0,0.0,0.0,0.0,0.0,0.0,0.0,0.0,0.0,0.0,0.0,0.0,0.0,0.0,0.549172401428,-9.62032318115,0.225552946329,0.0,0.0,0.0,0.0,0.0,0.0,0.0,0.0,0.0
1649609500,177320,1644542407002557993,1,0.0,0.0,0.0,0.0,0.0,0.0,0.0,0.0,0.0,0.0,0.0,0.0,0.0,0.0,0.0,0.0,0.0,0.0,0.0,0.0,0.0,0.0,0.0,0.0,0.0,0.57859236002,-9.62032318115,0.225552946329,0.0,0.0,0.0,0.0,0.0,0.0,0.0,0.0,0.0
1651625000,177321,1644542407004574060,1,0.0,0.0,0.0,0.0,0.0,0.0,0.0,0.0,0.0,0.0,0.0,0.0,0.0,0.0,0.0,0.0,0.0,0.0,0.0,0.0,0.0,0.0,0.0,0.0,0.0,0.57859236002,-9.61051654816,0.166713044047,0.0,0.0,0.0,0.0,0.0,0.0,0.0,0.0,0.0
1653637100,177322,1644542407006587982,1,0.0,0.0,0.0,0.0,0.0,0.0,0.0,0.0,0.0,0.0,0.0,0.0,0.0,0.0,0.0,0.0,0.0,0.0,0.0,0.0,0.0,0.0,0.0,0.0,0.0,0.57859236002,-9.61051654816,0.196132987738,0.0,0.0,0.0,0.0,0.0,0.0,0.0,0.0,0.0
1655775500,177323,1644542407008601904,1,0.0,0.0,0.0,0.0,0.0,0.0,0.0,0.0,0.0,0.0,0.0,0.0,0.0,0.0,0.0,0.0,0.0,0.0,0.0,0.0,0.0,0.0,0.0,0.0,0.0,0.598205626011,-9.66935634613,0.196132987738,0.0,0.0,0.0,0.0,0.0,0.0,0.0,0.0,0.0
1657664000,177324,1644542407010617733,1,0.0,0.0,0.0,0.0,0.0,0.0,0.0,0.0,0.0,0.0,0.0,0.0,0.0,0.0,0.0,0.0,0.0,0.0,0.0,0.0,0.0,0.0,0.0,0.0,0.0,0.598205626011,-9.62032318115,0.166713044047,0.0,0.0,0.0,0.0,0.0,0.0,0.0,0.0,0.0
1660086200,177325,1644542407012631416,1,0.0,0.0,0.0,0.0,0.0,0.0,0.0,0.0,0.0,0.0,0.0,0.0,0.0,0.0,0.0,0.0,0.0,0.0,0.0,0.0,0.0,0.0,0.0,0.0,0.0,0.598205626011,-9.62032318115,0.196132987738,0.0,0.0,0.0,0.0,0.0,0.0,0.0,0.0,0.0
1661863500,177326,1644542407014645338,1,0.0,0.0,0.0,0.0,0.0,0.0,0.0,0.0,0.0,0.0,0.0,0.0,0.0,0.0,0.0,0.0,0.0,0.0,0.0,0.0,0.0,0.0,0.0,0.0,0.0,0.598205626011,-9.62032318115,0.225552946329,0.0,0.0,0.0,0.0,0.0,0.0,0.0,0.0,0.0
1663892200,177327,1644542407016661167,1,0.0,0.0,0.0,0.0,0.0,0.0,0.0,0.0,0.0,0.0,0.0,0.0,0.0,0.0,0.0,0.0,0.0,0.0,0.0,0.0,0.0,0.0,0.0,0.0,0.0,0.627625584602,-9.62032318115,0.225552946329,0.0,0.0,0.0,0.0,0.0,0.0,0.0,0.0,0.0
1665937700,177328,1644542407018675089,1,0.0,0.0,0.0,0.0,0.0,0.0,0.0,0.0,0.0,0.0,0.0,0.0,0.0,0.0,0.0,0.0,0.0,0.0,0.0,0.0,0.0,0.0,0.0,0.0,0.0,0.637432217598,-9.64974308014,0.225552946329,0.0,0.0,0.0,0.0,0.0,0.0,0.0,0.0,0.0
1667908000,177329,1644542407020689011,1,0.0,0.0,0.0,0.0,0.0,0.0,0.0,0.0,0.0,0.0,0.0,0.0,0.0,0.0,0.0,0.0,0.0,0.0,0.0,0.0,0.0,0.0,0.0,0.0,0.0,0.598205626011,-9.66935634613,0.245166242123,0.0,0.0,0.0,0.0,0.0,0.0,0.0,0.0,0.0
1669832500,177330,1644542407022702932,1,0.0,0.0,0.0,0.0,0.0,0.0,0.0,0.0,0.0,0.0,0.0,0.0,0.0,0.0,0.0,0.0,0.0,0.0,0.0,0.0,0.0,0.0,0.0,0.0,0.0,0.598205626011,-9.67916297913,0.196132987738,0.0,0.0,0.0,0.0,0.0,0.0,0.0,0.0,0.0
1671858000,177331,1644542407024718761,1,0.0,0.0,0.0,0.0,0.0,0.0,0.0,0.0,0.0,0.0,0.0,0.0,0.0,0.0,0.0,0.0,0.0,0.0,0.0,0.0,0.0,0.0,0.0,0.0,0.0,0.627625584602,-9.62032318115,0.225552946329,0.0,0.0,0.0,0.0,0.0,0.0,0.0,0.0,0.0
1673850200,177332,1644542407026732683,1,0.0,0.0,0.0,0.0,0.0,0.0,0.0,0.0,0.0,0.0,0.0,0.0,0.0,0.0,0.0,0.0,0.0,0.0,0.0,0.0,0.0,0.0,0.0,0.0,0.0,0.637432217598,-9.64974308014,0.225552946329,0.0,0.0,0.0,0.0,0.0,0.0,0.0,0.0,0.0
1675868300,177333,1644542407028748512,1,0.0,0.0,0.0,0.0,0.0,0.0,0.0,0.0,0.0,0.0,0.0,0.0,0.0,0.0,0.0,0.0,0.0,0.0,0.0,0.0,0.0,0.0,0.0,0.0,0.0,0.598205626011,-9.66935634613,0.176519691944,0.0,0.0,0.0,0.0,0.0,0.0,0.0,0.0,0.0
1677862000,177334,1644542407030762434,1,0.0,0.0,0.0,0.0,0.0,0.0,0.0,0.0,0.0,0.0,0.0,0.0,0.0,0.0,0.0,0.0,0.0,0.0,0.0,0.0,0.0,0.0,0.0,0.0,0.0,0.627625584602,-9.61051654816,0.176519691944,0.0,0.0,0.0,0.0,0.0,0.0,0.0,0.0,0.0
1679834300,177335,1644542407032776117,1,0.0,0.0,0.0,0.0,0.0,0.0,0.0,0.0,0.0,0.0,0.0,0.0,0.0,0.0,0.0,0.0,0.0,0.0,0.0,0.0,0.0,0.0,0.0,0.0,0.0,0.637432217598,-9.62032318115,0.176519691944,0.0,0.0,0.0,0.0,0.0,0.0,0.0,0.0,0.0
1681861700,177336,1644542407034790039,1,0.0,0.0,0.0,0.0,0.0,0.0,0.0,0.0,0.0,0.0,0.0,0.0,0.0,0.0,0.0,0.0,0.0,0.0,0.0,0.0,0.0,0.0,0.0,0.0,0.0,0.637432217598,-9.62032318115,0.137293100357,0.0,0.0,0.0,0.0,0.0,0.0,0.0,0.0,0.0
1683943600,177337,1644542407036805868,1,0.0,0.0,0.0,0.0,0.0,0.0,0.0,0.0,0.0,0.0,0.0,0.0,0.0,0.0,0.0,0.0,0.0,0.0,0.0,0.0,0.0,0.0,0.0,0.0,0.0,0.627625584602,-9.64974308014,0.176519691944,0.0,0.0,0.0,0.0,0.0,0.0,0.0,0.0,0.0
1686150900,177338,1644542407038819790,1,0.0,0.0,0.0,0.0,0.0,0.0,0.0,0.0,0.0,0.0,0.0,0.0,0.0,0.0,0.0,0.0,0.0,0.0,0.0,0.0,0.0,0.0,0.0,0.0,0.0,0.666852176189,-9.64974308014,0.245166242123,0.0,0.0,0.0,0.0,0.0,0.0,0.0,0.0,0.0
1687857700,177339,1644542407040833712,1,0.0,0.0,0.0,0.0,0.0,0.0,0.0,0.0,0.0,0.0,0.0,0.0,0.0,0.0,0.0,0.0,0.0,0.0,0.0,0.0,0.0,0.0,0.0,0.0,0.0,0.57859236002,-9.62032318115,0.166713044047,0.0,0.0,0.0,0.0,0.0,0.0,0.0,0.0,0.0
1690161600,177340,1644542407042849541,1,0.0,0.0,0.0,0.0,0.0,0.0,0.0,0.0,0.0,0.0,0.0,0.0,0.0,0.0,0.0,0.0,0.0,0.0,0.0,0.0,0.0,0.0,0.0,0.0,0.0,0.627625584602,-9.61051654816,0.225552946329,0.0,0.0,0.0,0.0,0.0,0.0,0.0,0.0,0.0
1691859600,177341,1644542407044863462,1,0.0,0.0,0.0,0.0,0.0,0.0,0.0,0.0,0.0,0.0,0.0,0.0,0.0,0.0,0.0,0.0,0.0,0.0,0.0,0.0,0.0,0.0,0.0,0.0,0.0,0.598205626011,-9.64974308014,0.264779537916,0.0,0.0,0.0,0.0,0.0,0.0,0.0,0.0,0.0
1694655000,177342,1644542407046877384,1,0.0,0.0,0.0,0.0,0.0,0.0,0.0,0.0,0.0,0.0,0.0,0.0,0.0,0.0,0.0,0.0,0.0,0.0,0.0,0.0,0.0,0.0,0.0,0.0,0.0,0.666852176189,-9.58109664917,0.245166242123,0.0,0.0,0.0,0.0,0.0,0.0,0.0,0.0,0.0
1696122800,177343,1644542407048891068,1,0.0,0.0,0.0,0.0,0.0,0.0,0.0,0.0,0.0,0.0,0.0,0.0,0.0,0.0,0.0,0.0,0.0,0.0,0.0,0.0,0.0,0.0,0.0,0.0,0.0,0.627625584602,-9.64974308014,0.196132987738,0.0,0.0,0.0,0.0,0.0,0.0,0.0,0.0,0.0
1698286000,177344,1644542407050904989,1,0.0,0.0,0.0,0.0,0.0,0.0,0.0,0.0,0.0,0.0,0.0,0.0,0.0,0.0,0.0,0.0,0.0,0.0,0.0,0.0,0.0,0.0,0.0,0.0,0.0,0.627625584602,-9.64974308014,0.245166242123,0.0,0.0,0.0,0.0,0.0,0.0,0.0,0.0,0.0
1700710700,177345,1644542407052920818,1,0.0,0.0,0.0,0.0,0.0,0.0,0.0,0.0,0.0,0.0,0.0,0.0,0.0,0.0,0.0,0.0,0.0,0.0,0.0,0.0,0.0,0.0,0.0,0.0,0.0,0.57859236002,-9.62032318115,0.274586200714,0.0,0.0,0.0,0.0,0.0,0.0,0.0,0.0,0.0
1702127200,177346,1644542407054934740,1,0.0,0.0,0.0,0.0,0.0,0.0,0.0,0.0,0.0,0.0,0.0,0.0,0.0,0.0,0.0,0.0,0.0,0.0,0.0,0.0,0.0,0.0,0.0,0.0,0.0,0.598205626011,-9.64974308014,0.274586200714,0.0,0.0,0.0,0.0,0.0,0.0,0.0,0.0,0.0
1704121600,177347,1644542407056948662,1,0.0,0.0,0.0,0.0,0.0,0.0,0.0,0.0,0.0,0.0,0.0,0.0,0.0,0.0,0.0,0.0,0.0,0.0,0.0,0.0,0.0,0.0,0.0,0.0,0.0,0.57859236002,-9.62032318115,0.274586200714,0.0,0.0,0.0,0.0,0.0,0.0,0.0,0.0,0.0
1706083500,177348,1644542407058962584,1,0.0,0.0,0.0,0.0,0.0,0.0,0.0,0.0,0.0,0.0,0.0,0.0,0.0,0.0,0.0,0.0,0.0,0.0,0.0,0.0,0.0,0.0,0.0,0.0,0.0,0.598205626011,-9.58109664917,0.245166242123,0.0,0.0,0.0,0.0,0.0,0.0,0.0,0.0,0.0
1708146300,177349,1644542407060976505,1,0.0,0.0,0.0,0.0,0.0,0.0,0.0,0.0,0.0,0.0,0.0,0.0,0.0,0.0,0.0,0.0,0.0,0.0,0.0,0.0,0.0,0.0,0.0,0.0,0.0,0.558979034424,-9.62032318115,0.264779537916,0.0,0.0,0.0,0.0,0.0,0.0,0.0,0.0,0.0
1710106400,177350,1644542407062990427,1,0.0,0.0,0.0,0.0,0.0,0.0,0.0,0.0,0.0,0.0,0.0,0.0,0.0,0.0,0.0,0.0,0.0,0.0,0.0,0.0,0.0,0.0,0.0,0.0,0.0,0.57859236002,-9.62032318115,0.264779537916,0.0,0.0,0.0,0.0,0.0,0.0,0.0,0.0,0.0
1712114100,177351,1644542407065006256,1,0.0,0.0,0.0,0.0,0.0,0.0,0.0,0.0,0.0,0.0,0.0,0.0,0.0,0.0,0.0,0.0,0.0,0.0,0.0,0.0,0.0,0.0,0.0,0.0,0.0,0.558979034424,-9.64974308014,0.274586200714,0.0,0.0,0.0,0.0,0.0,0.0,0.0,0.0,0.0
1714114200,177352,1644542407067019939,1,0.0,0.0,0.0,0.0,0.0,0.0,0.0,0.0,0.0,0.0,0.0,0.0,0.0,0.0,0.0,0.0,0.0,0.0,0.0,0.0,0.0,0.0,0.0,0.0,0.0,0.558979034424,-9.61051654816,0.274586200714,0.0,0.0,0.0,0.0,0.0,0.0,0.0,0.0,0.0
1716145200,177353,1644542407069033861,1,0.0,0.0,0.0,0.0,0.0,0.0,0.0,0.0,0.0,0.0,0.0,0.0,0.0,0.0,0.0,0.0,0.0,0.0,0.0,0.0,0.0,0.0,0.0,0.0,0.0,0.598205626011,-9.61051654816,0.313812792301,0.0,0.0,0.0,0.0,0.0,0.0,0.0,0.0,0.0
1718122200,177354,1644542407071047783,1,0.0,0.0,0.0,0.0,0.0,0.0,0.0,0.0,0.0,0.0,0.0,0.0,0.0,0.0,0.0,0.0,0.0,0.0,0.0,0.0,0.0,0.0,0.0,0.0,0.0,0.57859236002,-9.61051654816,0.225552946329,0.0,0.0,0.0,0.0,0.0,0.0,0.0,0.0,0.0
1720317400,177355,1644542407073061705,1,0.0,0.0,0.0,0.0,0.0,0.0,0.0,0.0,0.0,0.0,0.0,0.0,0.0,0.0,0.0,0.0,0.0,0.0,0.0,0.0,0.0,0.0,0.0,0.0,0.0,0.598205626011,-9.61051654816,0.274586200714,0.0,0.0,0.0,0.0,0.0,0.0,0.0,0.0,0.0
1722230000,177356,1644542407075075626,1,0.0,0.0,0.0,0.0,0.0,0.0,0.0,0.0,0.0,0.0,0.0,0.0,0.0,0.0,0.0,0.0,0.0,0.0,0.0,0.0,0.0,0.0,0.0,0.0,0.0,0.558979034424,-9.58109664917,0.264779537916,0.0,0.0,0.0,0.0,0.0,0.0,0.0,0.0,0.0
1724217200,177357,1644542407077091455,1,0.0,0.0,0.0,0.0,0.0,0.0,0.0,0.0,0.0,0.0,0.0,0.0,0.0,0.0,0.0,0.0,0.0,0.0,0.0,0.0,0.0,0.0,0.0,0.0,0.0,0.549172401428,-9.62032318115,0.274586200714,0.0,0.0,0.0,0.0,0.0,0.0,0.0,0.0,0.0
1726229800,177358,1644542407079105377,1,0.0,0.0,0.0,0.0,0.0,0.0,0.0,0.0,0.0,0.0,0.0,0.0,0.0,0.0,0.0,0.0,0.0,0.0,0.0,0.0,0.0,0.0,0.0,0.0,0.0,0.57859236002,-9.62032318115,0.264779537916,0.0,0.0,0.0,0.0,0.0,0.0,0.0,0.0,0.0
1728446900,177359,1644542407081119061,1,0.0,0.0,0.0,0.0,0.0,0.0,0.0,0.0,0.0,0.0,0.0,0.0,0.0,0.0,0.0,0.0,0.0,0.0,0.0,0.0,0.0,0.0,0.0,0.0,0.0,0.627625584602,-9.62032318115,0.245166242123,0.0,0.0,0.0,0.0,0.0,0.0,0.0,0.0,0.0
1731286100,177360,1644542407083132982,1,0.0,0.0,0.0,0.0,0.0,0.0,0.0,0.0,0.0,0.0,0.0,0.0,0.0,0.0,0.0,0.0,0.0,0.0,0.0,0.0,0.0,0.0,0.0,0.0,0.0,0.598205626011,-9.62032318115,0.294199496508,0.0,0.0,0.0,0.0,0.0,0.0,0.0,0.0,0.0
1732415200,177361,1644542407085146904,1,0.0,0.0,0.0,0.0,0.0,0.0,0.0,0.0,0.0,0.0,0.0,0.0,0.0,0.0,0.0,0.0,0.0,0.0,0.0,0.0,0.0,0.0,0.0,0.0,0.0,0.627625584602,-9.58109664917,0.264779537916,0.0,0.0,0.0,0.0,0.0,0.0,0.0,0.0,0.0
1734362000,177362,1644542407087162733,1,0.0,0.0,0.0,0.0,0.0,0.0,0.0,0.0,0.0,0.0,0.0,0.0,0.0,0.0,0.0,0.0,0.0,0.0,0.0,0.0,0.0,0.0,0.0,0.0,0.0,0.57859236002,-9.58109664917,0.245166242123,0.0,0.0,0.0,0.0,0.0,0.0,0.0,0.0,0.0
1736352300,177363,1644542407089176655,1,0.0,0.0,0.0,0.0,0.0,0.0,0.0,0.0,0.0,0.0,0.0,0.0,0.0,0.0,0.0,0.0,0.0,0.0,0.0,0.0,0.0,0.0,0.0,0.0,0.0,0.57859236002,-9.62032318115,0.225552946329,0.0,0.0,0.0,0.0,0.0,0.0,0.0,0.0,0.0
1738343000,177364,1644542407091190577,1,0.0,0.0,0.0,0.0,0.0,0.0,0.0,0.0,0.0,0.0,0.0,0.0,0.0,0.0,0.0,0.0,0.0,0.0,0.0,0.0,0.0,0.0,0.0,0.0,0.0,0.558979034424,-9.64974308014,0.166713044047,0.0,0.0,0.0,0.0,0.0,0.0,0.0,0.0,0.0
1740435900,177365,1644542407093204498,1,0.0,0.0,0.0,0.0,0.0,0.0,0.0,0.0,0.0,0.0,0.0,0.0,0.0,0.0,0.0,0.0,0.0,0.0,0.0,0.0,0.0,0.0,0.0,0.0,0.0,0.57859236002,-9.62032318115,0.245166242123,0.0,0.0,0.0,0.0,0.0,0.0,0.0,0.0,0.0
1742389400,177366,1644542407095220566,1,0.0,0.0,0.0,0.0,0.0,0.0,0.0,0.0,0.0,0.0,0.0,0.0,0.0,0.0,0.0,0.0,0.0,0.0,0.0,0.0,0.0,0.0,0.0,0.0,0.0,0.598205626011,-9.64974308014,0.245166242123,0.0,0.0,0.0,0.0,0.0,0.0,0.0,0.0,0.0
1744367500,177367,1644542407097234488,1,0.0,0.0,0.0,0.0,0.0,0.0,0.0,0.0,0.0,0.0,0.0,0.0,0.0,0.0,0.0,0.0,0.0,0.0,0.0,0.0,0.0,0.0,0.0,0.0,0.0,0.627625584602,-9.66935634613,0.225552946329,0.0,0.0,0.0,0.0,0.0,0.0,0.0,0.0,0.0
1746400700,177368,1644542407099247932,1,0.0,0.0,0.0,0.0,0.0,0.0,0.0,0.0,0.0,0.0,0.0,0.0,0.0,0.0,0.0,0.0,0.0,0.0,0.0,0.0,0.0,0.0,0.0,0.0,0.0,0.627625584602,-9.61051654816,0.196132987738,0.0,0.0,0.0,0.0,0.0,0.0,0.0,0.0,0.0
1748458300,177369,1644542407101261854,1,0.0,0.0,0.0,0.0,0.0,0.0,0.0,0.0,0.0,0.0,0.0,0.0,0.0,0.0,0.0,0.0,0.0,0.0,0.0,0.0,0.0,0.0,0.0,0.0,0.0,0.558979034424,-9.64974308014,0.196132987738,0.0,0.0,0.0,0.0,0.0,0.0,0.0,0.0,0.0
1750937500,177370,1644542407103277922,1,0.0,0.0,0.0,0.0,0.0,0.0,0.0,0.0,0.0,0.0,0.0,0.0,0.0,0.0,0.0,0.0,0.0,0.0,0.0,0.0,0.0,0.0,0.0,0.0,0.0,0.598205626011,-9.64974308014,0.225552946329,0.0,0.0,0.0,0.0,0.0,0.0,0.0,0.0,0.0
1752469100,177371,1644542407105291843,1,0.0,0.0,0.0,0.0,0.0,0.0,0.0,0.0,0.0,0.0,0.0,0.0,0.0,0.0,0.0,0.0,0.0,0.0,0.0,0.0,0.0,0.0,0.0,0.0,0.0,0.666852176189,-9.66935634613,0.176519691944,0.0,0.0,0.0,0.0,0.0,0.0,0.0,0.0,0.0
1754466000,177372,1644542407107305765,1,0.0,0.0,0.0,0.0,0.0,0.0,0.0,0.0,0.0,0.0,0.0,0.0,0.0,0.0,0.0,0.0,0.0,0.0,0.0,0.0,0.0,0.0,0.0,0.0,0.0,0.637432217598,-9.61051654816,0.245166242123,0.0,0.0,0.0,0.0,0.0,0.0,0.0,0.0,0.0
1756466900,177373,1644542407109319687,1,0.0,0.0,0.0,0.0,0.0,0.0,0.0,0.0,0.0,0.0,0.0,0.0,0.0,0.0,0.0,0.0,0.0,0.0,0.0,0.0,0.0,0.0,0.0,0.0,0.0,0.627625584602,-9.61051654816,0.176519691944,0.0,0.0,0.0,0.0,0.0,0.0,0.0,0.0,0.0
1758477100,177374,1644542407111333609,1,0.0,0.0,0.0,0.0,0.0,0.0,0.0,0.0,0.0,0.0,0.0,0.0,0.0,0.0,0.0,0.0,0.0,0.0,0.0,0.0,0.0,0.0,0.0,0.0,0.0,0.598205626011,-9.64974308014,0.225552946329,0.0,0.0,0.0,0.0,0.0,0.0,0.0,0.0,0.0
1760889600,177375,1644542407113349438,1,0.0,0.0,0.0,0.0,0.0,0.0,0.0,0.0,0.0,0.0,0.0,0.0,0.0,0.0,0.0,0.0,0.0,0.0,0.0,0.0,0.0,0.0,0.0,0.0,0.0,0.598205626011,-9.62032318115,0.225552946329,0.0,0.0,0.0,0.0,0.0,0.0,0.0,0.0,0.0
1762819600,177376,1644542407115363359,1,0.0,0.0,0.0,0.0,0.0,0.0,0.0,0.0,0.0,0.0,0.0,0.0,0.0,0.0,0.0,0.0,0.0,0.0,0.0,0.0,0.0,0.0,0.0,0.0,0.0,0.637432217598,-9.64974308014,0.196132987738,0.0,0.0,0.0,0.0,0.0,0.0,0.0,0.0,0.0
1764755500,177377,1644542407117377043,1,0.0,0.0,0.0,0.0,0.0,0.0,0.0,0.0,0.0,0.0,0.0,0.0,0.0,0.0,0.0,0.0,0.0,0.0,0.0,0.0,0.0,0.0,0.0,0.0,0.0,0.598205626011,-9.61051654816,0.225552946329,0.0,0.0,0.0,0.0,0.0,0.0,0.0,0.0,0.0
1766590200,177378,1644542407119390965,1,0.0,0.0,0.0,0.0,0.0,0.0,0.0,0.0,0.0,0.0,0.0,0.0,0.0,0.0,0.0,0.0,0.0,0.0,0.0,0.0,0.0,0.0,0.0,0.0,0.0,0.57859236002,-9.66935634613,0.166713044047,0.0,0.0,0.0,0.0,0.0,0.0,0.0,0.0,0.0
1768621300,177379,1644542407121406794,1,0.0,0.0,0.0,0.0,0.0,0.0,0.0,0.0,0.0,0.0,0.0,0.0,0.0,0.0,0.0,0.0,0.0,0.0,0.0,0.0,0.0,0.0,0.0,0.0,0.0,0.627625584602,-9.62032318115,0.196132987738,0.0,0.0,0.0,0.0,0.0,0.0,0.0,0.0,0.0
1770590200,177380,1644542407123420715,1,0.0,0.0,0.0,0.0,0.0,0.0,0.0,0.0,0.0,0.0,0.0,0.0,0.0,0.0,0.0,0.0,0.0,0.0,0.0,0.0,0.0,0.0,0.0,0.0,0.0,0.627625584602,-9.62032318115,0.176519691944,0.0,0.0,0.0,0.0,0.0,0.0,0.0,0.0,0.0
1772682900,177381,1644542407125436544,1,0.0,0.0,0.0,0.0,0.0,0.0,0.0,0.0,0.0,0.0,0.0,0.0,0.0,0.0,0.0,0.0,0.0,0.0,0.0,0.0,0.0,0.0,0.0,0.0,0.0,0.598205626011,-9.62032318115,0.176519691944,0.0,0.0,0.0,0.0,0.0,0.0,0.0,0.0,0.0
1774562500,177382,1644542407127450466,1,0.0,0.0,0.0,0.0,0.0,0.0,0.0,0.0,0.0,0.0,0.0,0.0,0.0,0.0,0.0,0.0,0.0,0.0,0.0,0.0,0.0,0.0,0.0,0.0,0.0,0.57859236002,-9.61051654816,0.166713044047,0.0,0.0,0.0,0.0,0.0,0.0,0.0,0.0,0.0
1776597400,177383,1644542407129464388,1,0.0,0.0,0.0,0.0,0.0,0.0,0.0,0.0,0.0,0.0,0.0,0.0,0.0,0.0,0.0,0.0,0.0,0.0,0.0,0.0,0.0,0.0,0.0,0.0,0.0,0.558979034424,-9.58109664917,0.245166242123,0.0,0.0,0.0,0.0,0.0,0.0,0.0,0.0,0.0
1778750900,177384,1644542407131478310,1,0.0,0.0,0.0,0.0,0.0,0.0,0.0,0.0,0.0,0.0,0.0,0.0,0.0,0.0,0.0,0.0,0.0,0.0,0.0,0.0,0.0,0.0,0.0,0.0,0.0,0.598205626011,-9.62032318115,0.225552946329,0.0,0.0,0.0,0.0,0.0,0.0,0.0,0.0,0.0
