%time,field.header.seq,field.header.stamp,field.header.frame_id,field.orientation.x,field.orientation.y,field.orientation.z,field.orientation.w,field.orientation_covariance0,field.orientation_covariance1,field.orientation_covariance2,field.orientation_covariance3,field.orientation_covariance4,field.orientation_covariance5,field.orientation_covariance6,field.orientation_covariance7,field.orientation_covariance8,field.angular_velocity.x,field.angular_velocity.y,field.angular_velocity.z,field.angular_velocity_covariance0,field.angular_velocity_covariance1,field.angular_velocity_covariance2,field.angular_velocity_covariance3,field.angular_velocity_covariance4,field.angular_velocity_covariance5,field.angular_velocity_covariance6,field.angular_velocity_covariance7,field.angular_velocity_covariance8,field.linear_acceleration.x,field.linear_acceleration.y,field.linear_acceleration.z,field.linear_acceleration_covariance0,field.linear_acceleration_covariance1,field.linear_acceleration_covariance2,field.linear_acceleration_covariance3,field.linear_acceleration_covariance4,field.linear_acceleration_covariance5,field.linear_acceleration_covariance6,field.linear_acceleration_covariance7,field.linear_acceleration_covariance8
400,93328,1644542237823688030,1,0.0,0.0,0.0,0.0,0.0,0.0,0.0,0.0,0.0,0.0,0.0,0.0,0.0,0.0,0.0,0.0,0.0,0.0,0.0,0.0,0.0,0.0,0.0,0.0,0.0,0.0294199492782,-9.62032318115,0.294199496508,0.0,0.0,0.0,0.0,0.0,0.0,0.0,0.0,0.0
1951400,93329,1644542237825701714,1,0.0,0.0,0.0,0.0,0.0,0.0,0.0,0.0,0.0,0.0,0.0,0.0,0.0,0.0,0.0,0.0,0.0,0.0,0.0,0.0,0.0,0.0,0.0,0.0,0.0,0.0686465501785,-9.66935634613,0.294199496508,0.0,0.0,0.0,0.0,0.0,0.0,0.0,0.0,0.0
3942900,93330,1644542237827717543,1,0.0,0.0,0.0,0.0,0.0,0.0,0.0,0.0,0.0,0.0,0.0,0.0,0.0,0.0,0.0,0.0,0.0,0.0,0.0,0.0,0.0,0.0,0.0,0.0,0.0,0.0392265990376,-9.62032318115,0.264779537916,0.0,0.0,0.0,0.0,0.0,0.0,0.0,0.0,0.0
5999800,93331,1644542237829731226,1,0.0,0.0,0.0,0.0,0.0,0.0,0.0,0.0,0.0,0.0,0.0,0.0,0.0,0.0,0.0,0.0,0.0,0.0,0.0,0.0,0.0,0.0,0.0,0.0,0.0,0.0294199492782,-9.67916297913,0.274586200714,0.0,0.0,0.0,0.0,0.0,0.0,0.0,0.0,0.0
8129200,93332,1644542237831763029,1,0.0,0.0,0.0,0.0,0.0,0.0,0.0,0.0,0.0,0.0,0.0,0.0,0.0,0.0,0.0,0.0,0.0,0.0,0.0,0.0,0.0,0.0,0.0,0.0,0.0,0.0294199492782,-9.62032318115,0.313812792301,0.0,0.0,0.0,0.0,0.0,0.0,0.0,0.0,0.0
10078100,93333,1644542237833760738,1,0.0,0.0,0.0,0.0,0.0,0.0,0.0,0.0,0.0,0.0,0.0,0.0,0.0,0.0,0.0,0.0,0.0,0.0,0.0,0.0,0.0,0.0,0.0,0.0,0.0,0.0686465501785,-9.64974308014,0.294199496508,0.0,0.0,0.0,0.0,0.0,0.0,0.0,0.0,0.0
11934900,93334,1644542237835774422,1,0.0,0.0,0.0,0.0,0.0,0.0,0.0,0.0,0.0,0.0,0.0,0.0,0.0,0.0,0.0,0.0,0.0,0.0,0.0,0.0,0.0,0.0,0.0,0.0,0.0,0.0294199492782,-9.64974308014,0.166713044047,0.0,0.0,0.0,0.0,0.0,0.0,0.0,0.0,0.0
13800300,93335,1644542237837788105,1,0.0,0.0,0.0,0.0,0.0,0.0,0.0,0.0,0.0,0.0,0.0,0.0,0.0,0.0,0.0,0.0,0.0,0.0,0.0,0.0,0.0,0.0,0.0,0.0,0.0,0.0294199492782,-9.67916297913,0.176519691944,0.0,0.0,0.0,0.0,0.0,0.0,0.0,0.0,0.0
15861600,93336,1644542237839801788,1,0.0,0.0,0.0,0.0,0.0,0.0,0.0,0.0,0.0,0.0,0.0,0.0,0.0,0.0,0.0,0.0,0.0,0.0,0.0,0.0,0.0,0.0,0.0,0.0,0.0,0.0392265990376,-9.64974308014,0.225552946329,0.0,0.0,0.0,0.0,0.0,0.0,0.0,0.0,0.0
17868400,93337,1644542237841815710,1,0.0,0.0,0.0,0.0,0.0,0.0,0.0,0.0,0.0,0.0,0.0,0.0,0.0,0.0,0.0,0.0,0.0,0.0,0.0,0.0,0.0,0.0,0.0,0.0,0.0,0.0294199492782,-9.64974308014,0.264779537916,0.0,0.0,0.0,0.0,0.0,0.0,0.0,0.0,0.0
19897600,93338,1644542237843831301,1,0.0,0.0,0.0,0.0,0.0,0.0,0.0,0.0,0.0,0.0,0.0,0.0,0.0,0.0,0.0,0.0,0.0,0.0,0.0,0.0,0.0,0.0,0.0,0.0,0.0,0.0686465501785,-9.62032318115,0.264779537916,0.0,0.0,0.0,0.0,0.0,0.0,0.0,0.0,0.0
21870200,93339,1644542237845844984,1,0.0,0.0,0.0,0.0,0.0,0.0,0.0,0.0,0.0,0.0,0.0,0.0,0.0,0.0,0.0,0.0,0.0,0.0,0.0,0.0,0.0,0.0,0.0,0.0,0.0,0.0392265990376,-9.61051654816,0.274586200714,0.0,0.0,0.0,0.0,0.0,0.0,0.0,0.0,0.0
23890400,93340,1644542237847860813,1,0.0,0.0,0.0,0.0,0.0,0.0,0.0,0.0,0.0,0.0,0.0,0.0,0.0,0.0,0.0,0.0,0.0,0.0,0.0,0.0,0.0,0.0,0.0,0.0,0.0,0.0392265990376,-9.64974308014,0.225552946329,0.0,0.0,0.0,0.0,0.0,0.0,0.0,0.0,0.0
25996900,93341,1644542237849874496,1,0.0,0.0,0.0,0.0,0.0,0.0,0.0,0.0,0.0,0.0,0.0,0.0,0.0,0.0,0.0,0.0,0.0,0.0,0.0,0.0,0.0,0.0,0.0,0.0,0.0,0.0686465501785,-9.62032318115,0.294199496508,0.0,0.0,0.0,0.0,0.0,0.0,0.0,0.0,0.0
30246700,93343,1644542237853904009,1,0.0,0.0,0.0,0.0,0.0,0.0,0.0,0.0,0.0,0.0,0.0,0.0,0.0,0.0,0.0,0.0,0.0,0.0,0.0,0.0,0.0,0.0,0.0,0.0,0.0,0.0686465501785,-9.66935634613,0.313812792301,0.0,0.0,0.0,0.0,0.0,0.0,0.0,0.0,0.0
32243100,93344,1644542237855917692,1,0.0,0.0,0.0,0.0,0.0,0.0,0.0,0.0,0.0,0.0,0.0,0.0,0.0,0.0,0.0,0.0,0.0,0.0,0.0,0.0,0.0,0.0,0.0,0.0,0.0,0.0294199492782,-9.70858287811,0.294199496508,0.0,0.0,0.0,0.0,0.0,0.0,0.0,0.0,0.0
741362700,93696,1644542238564903975,1,0.0,0.0,0.0,0.0,0.0,0.0,0.0,0.0,0.0,0.0,0.0,0.0,0.0,0.0,0.0,0.0,0.0,0.0,0.0,0.0,0.0,0.0,0.0,0.0,0.0,-0.0392265990376,-8.80637168884,0.12748645246,0.0,0.0,0.0,0.0,0.0,0.0,0.0,0.0,0.0
743300100,93697,1644542238566917658,1,0.0,0.0,0.0,0.0,0.0,0.0,0.0,0.0,0.0,0.0,0.0,0.0,0.0,0.0,0.0,0.0,0.0,0.0,0.0,0.0,0.0,0.0,0.0,0.0,0.0,-0.912018418312,-9.17902374268,1.5886772871,0.0,0.0,0.0,0.0,0.0,0.0,0.0,0.0,0.0
745304700,93698,1644542238568931341,1,0.0,0.0,0.0,0.0,0.0,0.0,0.0,0.0,0.0,0.0,0.0,0.0,0.0,0.0,0.0,0.0,0.0,0.0,0.0,0.0,0.0,0.0,0.0,0.0,0.0,-0.38245934248,-10.797121048,1.33370435238,0.0,0.0,0.0,0.0,0.0,0.0,0.0,0.0,0.0
747272500,93699,1644542238570947170,1,0.0,0.0,0.0,0.0,0.0,0.0,0.0,0.0,0.0,0.0,0.0,0.0,0.0,0.0,0.0,0.0,0.0,0.0,0.0,0.0,0.0,0.0,0.0,0.0,0.0,-0.0784531980753,-8.62004470825,0.176519691944,0.0,0.0,0.0,0.0,0.0,0.0,0.0,0.0,0.0
749329900,93700,1644542238572960854,1,0.0,0.0,0.0,0.0,0.0,0.0,0.0,0.0,0.0,0.0,0.0,0.0,0.0,0.0,0.0,0.0,0.0,0.0,0.0,0.0,0.0,0.0,0.0,0.0,0.0,-1.922103405,-9.70858287811,2.20649623871,0.0,0.0,0.0,0.0,0.0,0.0,0.0,0.0,0.0
751351600,93701,1644542238574974537,1,0.0,0.0,0.0,0.0,0.0,0.0,0.0,0.0,0.0,0.0,0.0,0.0,0.0,0.0,0.0,0.0,0.0,0.0,0.0,0.0,0.0,0.0,0.0,0.0,0.0,-0.549172401428,-9.53206348419,0.529559075832,0.0,0.0,0.0,0.0,0.0,0.0,0.0,0.0,0.0
753228500,93702,1644542238576990128,1,0.0,0.0,0.0,0.0,0.0,0.0,0.0,0.0,0.0,0.0,0.0,0.0,0.0,0.0,0.0,0.0,0.0,0.0,0.0,0.0,0.0,0.0,0.0,0.0,0.0,0.0,-9.98316955566,1.09834480286,0.0,0.0,0.0,0.0,0.0,0.0,0.0,0.0,0.0
755396600,93703,1644542238579003811,1,0.0,0.0,0.0,0.0,0.0,0.0,0.0,0.0,0.0,0.0,0.0,0.0,0.0,0.0,0.0,0.0,0.0,0.0,0.0,0.0,0.0,0.0,0.0,0.0,0.0,-0.627625584602,-9.48303031921,1.16699135303,0.0,0.0,0.0,0.0,0.0,0.0,0.0,0.0,0.0
757138600,93704,1644542238581017733,1,0.0,0.0,0.0,0.0,0.0,0.0,0.0,0.0,0.0,0.0,0.0,0.0,0.0,0.0,0.0,0.0,0.0,0.0,0.0,0.0,0.0,0.0,0.0,0.0,0.0,-0.245166242123,-10.2381420135,1.50041747093,0.0,0.0,0.0,0.0,0.0,0.0,0.0,0.0,0.0
759220800,93705,1644542238583031416,1,0.0,0.0,0.0,0.0,0.0,0.0,0.0,0.0,0.0,0.0,0.0,0.0,0.0,0.0,0.0,0.0,0.0,0.0,0.0,0.0,0.0,0.0,0.0,0.0,0.0,-0.313812792301,-9.67916297913,2.02997660637,0.0,0.0,0.0,0.0,0.0,0.0,0.0,0.0,0.0
761194900,93706,1644542238585047245,1,0.0,0.0,0.0,0.0,0.0,0.0,0.0,0.0,0.0,0.0,0.0,0.0,0.0,0.0,0.0,0.0,0.0,0.0,0.0,0.0,0.0,0.0,0.0,0.0,0.0,1.48080408573,-9.02211761475,0.774725317955,0.0,0.0,0.0,0.0,0.0,0.0,0.0,0.0,0.0
763264100,93707,1644542238587061167,1,0.0,0.0,0.0,0.0,0.0,0.0,0.0,0.0,0.0,0.0,0.0,0.0,0.0,0.0,0.0,0.0,0.0,0.0,0.0,0.0,0.0,0.0,0.0,0.0,0.0,1.54945063591,-9.31631755829,0.833565235138,0.0,0.0,0.0,0.0,0.0,0.0,0.0,0.0,0.0
765232700,93708,1644542238589074850,1,0.0,0.0,0.0,0.0,0.0,0.0,0.0,0.0,0.0,0.0,0.0,0.0,0.0,0.0,0.0,0.0,0.0,0.0,0.0,0.0,0.0,0.0,0.0,0.0,0.0,1.78481030464,-10.2675619125,1.40235090256,0.0,0.0,0.0,0.0,0.0,0.0,0.0,0.0,0.0
767117700,93709,1644542238591088772,1,0.0,0.0,0.0,0.0,0.0,0.0,0.0,0.0,0.0,0.0,0.0,0.0,0.0,0.0,0.0,0.0,0.0,0.0,0.0,0.0,0.0,0.0,0.0,0.0,0.0,0.833565235138,-8.70830535889,2.47127580643,0.0,0.0,0.0,0.0,0.0,0.0,0.0,0.0,0.0
769151200,93710,1644542238593104839,1,0.0,0.0,0.0,0.0,0.0,0.0,0.0,0.0,0.0,0.0,0.0,0.0,0.0,0.0,0.0,0.0,0.0,0.0,0.0,0.0,0.0,0.0,0.0,0.0,0.0,3.12832117081,-9.88510322571,1.52983736992,0.0,0.0,0.0,0.0,0.0,0.0,0.0,0.0,0.0
771452300,93711,1644542238595118761,1,0.0,0.0,0.0,0.0,0.0,0.0,0.0,0.0,0.0,0.0,0.0,0.0,0.0,0.0,0.0,0.0,0.0,0.0,0.0,0.0,0.0,0.0,0.0,0.0,0.0,2.33398270607,-9.78703689575,1.60829055309,0.0,0.0,0.0,0.0,0.0,0.0,0.0,0.0,0.0
773568900,93712,1644542238597132206,1,0.0,0.0,0.0,0.0,0.0,0.0,0.0,0.0,0.0,0.0,0.0,0.0,0.0,0.0,0.0,0.0,0.0,0.0,0.0,0.0,0.0,0.0,0.0,0.0,0.0,2.99102807045,-9.71838951111,1.97113656998,0.0,0.0,0.0,0.0,0.0,0.0,0.0,0.0,0.0
775528500,93713,1644542238599146128,1,0.0,0.0,0.0,0.0,0.0,0.0,0.0,0.0,0.0,0.0,0.0,0.0,0.0,0.0,0.0,0.0,0.0,0.0,0.0,0.0,0.0,0.0,0.0,0.0,0.0,2.78508853912,-9.34573745728,1.60829055309,0.0,0.0,0.0,0.0,0.0,0.0,0.0,0.0,0.0
777467200,93714,1644542238601159811,1,0.0,0.0,0.0,0.0,0.0,0.0,0.0,0.0,0.0,0.0,0.0,0.0,0.0,0.0,0.0,0.0,0.0,0.0,0.0,0.0,0.0,0.0,0.0,0.0,0.0,2.55953550339,-9.56148338318,1.75539028645,0.0,0.0,0.0,0.0,0.0,0.0,0.0,0.0,0.0
779439000,93715,1644542238603173733,1,0.0,0.0,0.0,0.0,0.0,0.0,0.0,0.0,0.0,0.0,0.0,0.0,0.0,0.0,0.0,0.0,0.0,0.0,0.0,0.0,0.0,0.0,0.0,0.0,0.0,1.9024900198,-10.0420093536,2.17707633972,0.0,0.0,0.0,0.0,0.0,0.0,0.0,0.0,0.0
781450000,93716,1644542238605189800,1,0.0,0.0,0.0,0.0,0.0,0.0,0.0,0.0,0.0,0.0,0.0,0.0,0.0,0.0,0.0,0.0,0.0,0.0,0.0,0.0,0.0,0.0,0.0,0.0,0.0,1.84365010262,-8.53178501129,2.09862303734,0.0,0.0,0.0,0.0,0.0,0.0,0.0,0.0,0.0
783363200,93717,1644542238607203484,1,0.0,0.0,0.0,0.0,0.0,0.0,0.0,0.0,0.0,0.0,0.0,0.0,0.0,0.0,0.0,0.0,0.0,0.0,0.0,0.0,0.0,0.0,0.0,0.0,0.0,1.78481030464,-9.58109664917,1.70635700226,0.0,0.0,0.0,0.0,0.0,0.0,0.0,0.0,0.0
785403400,93718,1644542238609217167,1,0.0,0.0,0.0,0.0,0.0,0.0,0.0,0.0,0.0,0.0,0.0,0.0,0.0,0.0,0.0,0.0,0.0,0.0,0.0,0.0,0.0,0.0,0.0,0.0,0.0,0.804145276546,-9.35554409027,1.97113656998,0.0,0.0,0.0,0.0,0.0,0.0,0.0,0.0,0.0
787417900,93719,1644542238611231089,1,0.0,0.0,0.0,0.0,0.0,0.0,0.0,0.0,0.0,0.0,0.0,0.0,0.0,0.0,0.0,0.0,0.0,0.0,0.0,0.0,0.0,0.0,0.0,0.0,0.0,0.912018418312,-10.3950490952,2.55953550339,0.0,0.0,0.0,0.0,0.0,0.0,0.0,0.0,0.0
789412500,93720,1644542238613244772,1,0.0,0.0,0.0,0.0,0.0,0.0,0.0,0.0,0.0,0.0,0.0,0.0,0.0,0.0,0.0,0.0,0.0,0.0,0.0,0.0,0.0,0.0,0.0,0.0,0.0,-0.00980664975941,-8.62004470825,2.20649623871,0.0,0.0,0.0,0.0,0.0,0.0,0.0,0.0,0.0
791514600,93721,1644542238615260839,1,0.0,0.0,0.0,0.0,0.0,0.0,0.0,0.0,0.0,0.0,0.0,0.0,0.0,0.0,0.0,0.0,0.0,0.0,0.0,0.0,0.0,0.0,0.0,0.0,0.0,0.725692093372,-10.2087221146,2.06920313835,0.0,0.0,0.0,0.0,0.0,0.0,0.0,0.0,0.0
793429400,93722,1644542238617272615,1,0.0,0.0,0.0,0.0,0.0,0.0,0.0,0.0,0.0,0.0,0.0,0.0,0.0,0.0,0.0,0.0,0.0,0.0,0.0,0.0,0.0,0.0,0.0,0.0,0.0,-1.04931151867,-9.1299905777,2.33398270607,0.0,0.0,0.0,0.0,0.0,0.0,0.0,0.0,0.0
795421400,93723,1644542238619288445,1,0.0,0.0,0.0,0.0,0.0,0.0,0.0,0.0,0.0,0.0,0.0,0.0,0.0,0.0,0.0,0.0,0.0,0.0,0.0,0.0,0.0,0.0,0.0,0.0,0.0,-0.294199496508,-9.8949098587,2.41243577003,0.0,0.0,0.0,0.0,0.0,0.0,0.0,0.0,0.0
797446300,93724,1644542238621302128,1,0.0,0.0,0.0,0.0,0.0,0.0,0.0,0.0,0.0,0.0,0.0,0.0,0.0,0.0,0.0,0.0,0.0,0.0,0.0,0.0,0.0,0.0,0.0,0.0,0.0,-1.55925726891,-8.8946313858,2.49088907242,0.0,0.0,0.0,0.0,0.0,0.0,0.0,0.0,0.0
799428600,93725,1644542238623316050,1,0.0,0.0,0.0,0.0,0.0,0.0,0.0,0.0,0.0,0.0,0.0,0.0,0.0,0.0,0.0,0.0,0.0,0.0,0.0,0.0,0.0,0.0,0.0,0.0,0.0,-1.01008486748,-10.0125894547,2.64779543877,0.0,0.0,0.0,0.0,0.0,0.0,0.0,0.0,0.0
801516600,93726,1644542238625329733,1,0.0,0.0,0.0,0.0,0.0,0.0,0.0,0.0,0.0,0.0,0.0,0.0,0.0,0.0,0.0,0.0,0.0,0.0,0.0,0.0,0.0,0.0,0.0,0.0,0.0,-1.2650578022,-9.94394302368,2.33398270607,0.0,0.0,0.0,0.0,0.0,0.0,0.0,0.0,0.0
803504600,93727,1644542238627345800,1,0.0,0.0,0.0,0.0,0.0,0.0,0.0,0.0,0.0,0.0,0.0,0.0,0.0,0.0,0.0,0.0,0.0,0.0,0.0,0.0,0.0,0.0,0.0,0.0,0.0,-2.11823630333,-8.75733852386,2.5399222374,0.0,0.0,0.0,0.0,0.0,0.0,0.0,0.0,0.0
805474800,93728,1644542238629359722,1,0.0,0.0,0.0,0.0,0.0,0.0,0.0,0.0,0.0,0.0,0.0,0.0,0.0,0.0,0.0,0.0,0.0,0.0,0.0,0.0,0.0,0.0,0.0,0.0,0.0,-1.70635700226,-11.0422878265,2.97141480446,0.0,0.0,0.0,0.0,0.0,0.0,0.0,0.0,0.0
807708300,93729,1644542238631373405,1,0.0,0.0,0.0,0.0,0.0,0.0,0.0,0.0,0.0,0.0,0.0,0.0,0.0,0.0,0.0,0.0,0.0,0.0,0.0,0.0,0.0,0.0,0.0,0.0,0.0,-2.62818217278,-7.8943529129,2.31436944008,0.0,0.0,0.0,0.0,0.0,0.0,0.0,0.0,0.0
809719900,93730,1644542238633387566,1,0.0,0.0,0.0,0.0,0.0,0.0,0.0,0.0,0.0,0.0,0.0,0.0,0.0,0.0,0.0,0.0,0.0,0.0,0.0,0.0,0.0,0.0,0.0,0.0,0.0,-1.9024900198,-9.86548995972,2.55953550339,0.0,0.0,0.0,0.0,0.0,0.0,0.0,0.0,0.0
811812200,93731,1644542238635403395,1,0.0,0.0,0.0,0.0,0.0,0.0,0.0,0.0,0.0,0.0,0.0,0.0,0.0,0.0,0.0,0.0,0.0,0.0,0.0,0.0,0.0,0.0,0.0,0.0,0.0,-3.10870790482,-9.49283695221,2.2359161377,0.0,0.0,0.0,0.0,0.0,0.0,0.0,0.0,0.0
813827200,93732,1644542238637417555,1,0.0,0.0,0.0,0.0,0.0,0.0,0.0,0.0,0.0,0.0,0.0,0.0,0.0,0.0,0.0,0.0,0.0,0.0,0.0,0.0,0.0,0.0,0.0,0.0,0.0,-2.60856890678,-9.56148338318,1.67693710327,0.0,0.0,0.0,0.0,0.0,0.0,0.0,0.0,0.0
815724700,93733,1644542238639431477,1,0.0,0.0,0.0,0.0,0.0,0.0,0.0,0.0,0.0,0.0,0.0,0.0,0.0,0.0,0.0,0.0,0.0,0.0,0.0,0.0,0.0,0.0,0.0,0.0,0.0,-3.21658110619,-9.25747776031,1.48080408573,0.0,0.0,0.0,0.0,0.0,0.0,0.0,0.0,0.0
817699100,93734,1644542238641447544,1,0.0,0.0,0.0,0.0,0.0,0.0,0.0,0.0,0.0,0.0,0.0,0.0,0.0,0.0,0.0,0.0,0.0,0.0,0.0,0.0,0.0,0.0,0.0,0.0,0.0,-3.26561427116,-9.62032318115,1.34351098537,0.0,0.0,0.0,0.0,0.0,0.0,0.0,0.0,0.0
820426300,93735,1644542238643461466,1,0.0,0.0,0.0,0.0,0.0,0.0,0.0,0.0,0.0,0.0,0.0,0.0,0.0,0.0,0.0,0.0,0.0,0.0,0.0,0.0,0.0,0.0,0.0,0.0,0.0,-3.76575350761,-9.25747776031,0.961051702499,0.0,0.0,0.0,0.0,0.0,0.0,0.0,0.0,0.0
821758900,93736,1644542238645475626,1,0.0,0.0,0.0,0.0,0.0,0.0,0.0,0.0,0.0,0.0,0.0,0.0,0.0,0.0,0.0,0.0,0.0,0.0,0.0,0.0,0.0,0.0,0.0,0.0,0.0,-3.90304660797,-9.75761604309,0.872791826725,0.0,0.0,0.0,0.0,0.0,0.0,0.0,0.0,0.0
823873200,93737,1644542238647489548,1,0.0,0.0,0.0,0.0,0.0,0.0,0.0,0.0,0.0,0.0,0.0,0.0,0.0,0.0,0.0,0.0,0.0,0.0,0.0,0.0,0.0,0.0,0.0,0.0,0.0,-3.51078057289,-9.88510322571,0.843371868134,0.0,0.0,0.0,0.0,0.0,0.0,0.0,0.0,0.0
825701100,93738,1644542238649503469,1,0.0,0.0,0.0,0.0,0.0,0.0,0.0,0.0,0.0,0.0,0.0,0.0,0.0,0.0,0.0,0.0,0.0,0.0,0.0,0.0,0.0,0.0,0.0,0.0,0.0,-3.01064157486,-9.06134414673,0.176519691944,0.0,0.0,0.0,0.0,0.0,0.0,0.0,0.0,0.0
827751800,93739,1644542238651517630,1,0.0,0.0,0.0,0.0,0.0,0.0,0.0,0.0,0.0,0.0,0.0,0.0,0.0,0.0,0.0,0.0,0.0,0.0,0.0,0.0,0.0,0.0,0.0,0.0,0.0,-3.94227313995,-9.1299905777,0.549172401428,0.0,0.0,0.0,0.0,0.0,0.0,0.0,0.0,0.0
829701500,93740,1644542238653531551,1,0.0,0.0,0.0,0.0,0.0,0.0,0.0,0.0,0.0,0.0,0.0,0.0,0.0,0.0,0.0,0.0,0.0,0.0,0.0,0.0,0.0,0.0,0.0,0.0,0.0,-3.24600100517,-9.98316955566,0.470719188452,0.0,0.0,0.0,0.0,0.0,0.0,0.0,0.0,0.0
831750700,93741,1644542238655545712,1,0.0,0.0,0.0,0.0,0.0,0.0,0.0,0.0,0.0,0.0,0.0,0.0,0.0,0.0,0.0,0.0,0.0,0.0,0.0,0.0,0.0,0.0,0.0,0.0,0.0,-3.19696784019,-9.39477062225,-0.196132987738,0.0,0.0,0.0,0.0,0.0,0.0,0.0,0.0,0.0
833703400,93742,1644542238657559633,1,0.0,0.0,0.0,0.0,0.0,0.0,0.0,0.0,0.0,0.0,0.0,0.0,0.0,0.0,0.0,0.0,0.0,0.0,0.0,0.0,0.0,0.0,0.0,0.0,0.0,-2.8831551075,-9.99297618866,-7.04117441177,0.0,0.0,0.0,0.0,0.0,0.0,0.0,0.0,0.0
835693500,93743,1644542238659573555,1,0.0,0.0,0.0,0.0,0.0,0.0,0.0,0.0,0.0,0.0,0.0,0.0,0.0,0.0,0.0,0.0,0.0,0.0,0.0,0.0,0.0,0.0,0.0,0.0,0.0,-6.76658821106,-7.39421415329,-5.30539751053,0.0,0.0,0.0,0.0,0.0,0.0,0.0,0.0,0.0
837742600,93744,1644542238661587715,1,0.0,0.0,0.0,0.0,0.0,0.0,0.0,0.0,0.0,0.0,0.0,0.0,0.0,0.0,0.0,0.0,0.0,0.0,0.0,0.0,0.0,0.0,0.0,0.0,0.0,-3.37348747253,-4.53067207336,-3.09890127182,0.0,0.0,0.0,0.0,0.0,0.0,0.0,0.0,0.0
839730700,93745,1644542238663603544,1,0.0,0.0,0.0,0.0,0.0,0.0,0.0,0.0,0.0,0.0,0.0,0.0,0.0,0.0,0.0,0.0,0.0,0.0,0.0,0.0,0.0,0.0,0.0,0.0,0.0,-2.34378933907,-9.7478094101,2.04958987236,0.0,0.0,0.0,0.0,0.0,0.0,0.0,0.0,0.0
841982000,93746,1644542238665617704,1,0.0,0.0,0.0,0.0,0.0,0.0,0.0,0.0,0.0,0.0,0.0,0.0,0.0,0.0,0.0,0.0,0.0,0.0,0.0,0.0,0.0,0.0,0.0,0.0,0.0,-0.362846046686,-13.6214361191,8.08067893982,0.0,0.0,0.0,0.0,0.0,0.0,0.0,0.0,0.0
843976900,93747,1644542238667631626,1,0.0,0.0,0.0,0.0,0.0,0.0,0.0,0.0,0.0,0.0,0.0,0.0,0.0,0.0,0.0,0.0,0.0,0.0,0.0,0.0,0.0,0.0,0.0,0.0,0.0,-0.598205626011,-8.35526561737,1.05911815166,0.0,0.0,0.0,0.0,0.0,0.0,0.0,0.0,0.0
845976800,93748,1644542238669647694,1,0.0,0.0,0.0,0.0,0.0,0.0,0.0,0.0,0.0,0.0,0.0,0.0,0.0,0.0,0.0,0.0,0.0,0.0,0.0,0.0,0.0,0.0,0.0,0.0,0.0,-1.75539028645,-8.30623245239,1.45138418674,0.0,0.0,0.0,0.0,0.0,0.0,0.0,0.0,0.0
847938600,93749,1644542238671661615,1,0.0,0.0,0.0,0.0,0.0,0.0,0.0,0.0,0.0,0.0,0.0,0.0,0.0,0.0,0.0,0.0,0.0,0.0,0.0,0.0,0.0,0.0,0.0,0.0,0.0,-2.57914876938,-11.7385597229,1.48080408573,0.0,0.0,0.0,0.0,0.0,0.0,0.0,0.0,0.0
850056300,93750,1644542238673673630,1,0.0,0.0,0.0,0.0,0.0,0.0,0.0,0.0,0.0,0.0,0.0,0.0,0.0,0.0,0.0,0.0,0.0,0.0,0.0,0.0,0.0,0.0,0.0,0.0,0.0,-1.01008486748,-13.2880105972,-7.9826130867,0.0,0.0,0.0,0.0,0.0,0.0,0.0,0.0,0.0
851962000,93751,1644542238675687790,1,0.0,0.0,0.0,0.0,0.0,0.0,0.0,0.0,0.0,0.0,0.0,0.0,0.0,0.0,0.0,0.0,0.0,0.0,0.0,0.0,0.0,0.0,0.0,0.0,0.0,-4.17763280869,-4.78564500809,-10.6107950211,0.0,0.0,0.0,0.0,0.0,0.0,0.0,0.0,0.0
853947500,93752,1644542238677701712,1,0.0,0.0,0.0,0.0,0.0,0.0,0.0,0.0,0.0,0.0,0.0,0.0,0.0,0.0,0.0,0.0,0.0,0.0,0.0,0.0,0.0,0.0,0.0,0.0,0.0,-3.99130654335,-7.83551311493,-3.81478667259,0.0,0.0,0.0,0.0,0.0,0.0,0.0,0.0,0.0
855920400,93753,1644542238679717779,1,0.0,0.0,0.0,0.0,0.0,0.0,0.0,0.0,0.0,0.0,0.0,0.0,0.0,0.0,0.0,0.0,0.0,0.0,0.0,0.0,0.0,0.0,0.0,0.0,0.0,-2.04958987236,-11.7385597229,-4.12859964371,0.0,0.0,0.0,0.0,0.0,0.0,0.0,0.0,0.0
857973200,93754,1644542238681731701,1,0.0,0.0,0.0,0.0,0.0,0.0,0.0,0.0,0.0,0.0,0.0,0.0,0.0,0.0,0.0,0.0,0.0,0.0,0.0,0.0,0.0,0.0,0.0,0.0,0.0,-1.54945063591,-6.90388154984,-0.735498726368,0.0,0.0,0.0,0.0,0.0,0.0,0.0,0.0,0.0
859978000,93755,1644542238683747768,1,0.0,0.0,0.0,0.0,0.0,0.0,0.0,0.0,0.0,0.0,0.0,0.0,0.0,0.0,0.0,0.0,0.0,0.0,0.0,0.0,0.0,0.0,0.0,0.0,0.0,0.362846046686,-7.72764015198,-1.37293100357,0.0,0.0,0.0,0.0,0.0,0.0,0.0,0.0,0.0
861992300,93756,1644542238685761690,1,0.0,0.0,0.0,0.0,0.0,0.0,0.0,0.0,0.0,0.0,0.0,0.0,0.0,0.0,0.0,0.0,0.0,0.0,0.0,0.0,0.0,0.0,0.0,0.0,0.0,-0.529559075832,-11.522813797,0.245166242123,0.0,0.0,0.0,0.0,0.0,0.0,0.0,0.0,0.0
863944600,93757,1644542238687775850,1,0.0,0.0,0.0,0.0,0.0,0.0,0.0,0.0,0.0,0.0,0.0,0.0,0.0,0.0,0.0,0.0,0.0,0.0,0.0,0.0,0.0,0.0,0.0,0.0,0.0,0.12748645246,-9.78703689575,-0.166713044047,0.0,0.0,0.0,0.0,0.0,0.0,0.0,0.0,0.0
865933000,93758,1644542238689789772,1,0.0,0.0,0.0,0.0,0.0,0.0,0.0,0.0,0.0,0.0,0.0,0.0,0.0,0.0,0.0,0.0,0.0,0.0,0.0,0.0,0.0,0.0,0.0,0.0,0.0,1.24544453621,-7.49228048325,-0.343232750893,0.0,0.0,0.0,0.0,0.0,0.0,0.0,0.0,0.0
868108200,93759,1644542238691805840,1,0.0,0.0,0.0,0.0,0.0,0.0,0.0,0.0,0.0,0.0,0.0,0.0,0.0,0.0,0.0,0.0,0.0,0.0,0.0,0.0,0.0,0.0,0.0,0.0,0.0,0.313812792301,-10.73828125,0.637432217598,0.0,0.0,0.0,0.0,0.0,0.0,0.0,0.0,0.0
870022400,93760,1644542238693819761,1,0.0,0.0,0.0,0.0,0.0,0.0,0.0,0.0,0.0,0.0,0.0,0.0,0.0,0.0,0.0,0.0,0.0,0.0,0.0,0.0,0.0,0.0,0.0,0.0,0.0,0.470719188452,-10.6107950211,0.470719188452,0.0,0.0,0.0,0.0,0.0,0.0,0.0,0.0,0.0
872004100,93761,1644542238695835829,1,0.0,0.0,0.0,0.0,0.0,0.0,0.0,0.0,0.0,0.0,0.0,0.0,0.0,0.0,0.0,0.0,0.0,0.0,0.0,0.0,0.0,0.0,0.0,0.0,0.0,0.490332484245,-8.42391204834,0.0980664938688,0.0,0.0,0.0,0.0,0.0,0.0,0.0,0.0,0.0
873951300,93762,1644542238697849751,1,0.0,0.0,0.0,0.0,0.0,0.0,0.0,0.0,0.0,0.0,0.0,0.0,0.0,0.0,0.0,0.0,0.0,0.0,0.0,0.0,0.0,0.0,0.0,0.0,0.0,0.598205626011,-9.42419052124,0.166713044047,0.0,0.0,0.0,0.0,0.0,0.0,0.0,0.0,0.0
875951800,93763,1644542238699863672,1,0.0,0.0,0.0,0.0,0.0,0.0,0.0,0.0,0.0,0.0,0.0,0.0,0.0,0.0,0.0,0.0,0.0,0.0,0.0,0.0,0.0,0.0,0.0,0.0,0.0,0.245166242123,-10.5421485901,0.470719188452,0.0,0.0,0.0,0.0,0.0,0.0,0.0,0.0,0.0
878225600,93764,1644542238701877832,1,0.0,0.0,0.0,0.0,0.0,0.0,0.0,0.0,0.0,0.0,0.0,0.0,0.0,0.0,0.0,0.0,0.0,0.0,0.0,0.0,0.0,0.0,0.0,0.0,0.0,0.921825051308,-9.7478094101,0.774725317955,0.0,0.0,0.0,0.0,0.0,0.0,0.0,0.0,0.0
880153500,93765,1644542238703891754,1,0.0,0.0,0.0,0.0,0.0,0.0,0.0,0.0,0.0,0.0,0.0,0.0,0.0,0.0,0.0,0.0,0.0,0.0,0.0,0.0,0.0,0.0,0.0,0.0,0.0,2.04958987236,-10.0420093536,3.71672034264,0.0,0.0,0.0,0.0,0.0,0.0,0.0,0.0,0.0
882222200,93766,1644542238705908060,1,0.0,0.0,0.0,0.0,0.0,0.0,0.0,0.0,0.0,0.0,0.0,0.0,0.0,0.0,0.0,0.0,0.0,0.0,0.0,0.0,0.0,0.0,0.0,0.0,0.0,1.84365010262,-10.2185287476,3.09890127182,0.0,0.0,0.0,0.0,0.0,0.0,0.0,0.0,0.0
884223500,93767,1644542238707921982,1,0.0,0.0,0.0,0.0,0.0,0.0,0.0,0.0,0.0,0.0,0.0,0.0,0.0,0.0,0.0,0.0,0.0,0.0,0.0,0.0,0.0,0.0,0.0,0.0,0.0,2.05939650536,-9.80665016174,1.01008486748,0.0,0.0,0.0,0.0,0.0,0.0,0.0,0.0,0.0
886259800,93768,1644542238709933758,1,0.0,0.0,0.0,0.0,0.0,0.0,0.0,0.0,0.0,0.0,0.0,0.0,0.0,0.0,0.0,0.0,0.0,0.0,0.0,0.0,0.0,0.0,0.0,0.0,0.0,1.67693710327,-8.12971305847,-2.33398270607,0.0,0.0,0.0,0.0,0.0,0.0,0.0,0.0,0.0
888276500,93769,1644542238711950064,1,0.0,0.0,0.0,0.0,0.0,0.0,0.0,0.0,0.0,0.0,0.0,0.0,0.0,0.0,0.0,0.0,0.0,0.0,0.0,0.0,0.0,0.0,0.0,0.0,0.0,1.70635700226,-9.49283695221,-1.08853816986,0.0,0.0,0.0,0.0,0.0,0.0,0.0,0.0,0.0
890504800,93770,1644542238713963985,1,0.0,0.0,0.0,0.0,0.0,0.0,0.0,0.0,0.0,0.0,0.0,0.0,0.0,0.0,0.0,0.0,0.0,0.0,0.0,0.0,0.0,0.0,0.0,0.0,0.0,1.97113656998,-11.2188072205,2.99102807045,0.0,0.0,0.0,0.0,0.0,0.0,0.0,0.0,0.0
892257500,93771,1644542238715978146,1,0.0,0.0,0.0,0.0,0.0,0.0,0.0,0.0,0.0,0.0,0.0,0.0,0.0,0.0,0.0,0.0,0.0,0.0,0.0,0.0,0.0,0.0,0.0,0.0,0.0,2.19668960571,-8.53178501129,1.55925726891,0.0,0.0,0.0,0.0,0.0,0.0,0.0,0.0,0.0
894186000,93772,1644542238717991829,1,0.0,0.0,0.0,0.0,0.0,0.0,0.0,0.0,0.0,0.0,0.0,0.0,0.0,0.0,0.0,0.0,0.0,0.0,0.0,0.0,0.0,0.0,0.0,0.0,0.0,2.00055646896,-10.3656291962,0.294199496508,0.0,0.0,0.0,0.0,0.0,0.0,0.0,0.0,0.0
896203600,93773,1644542238720008135,1,0.0,0.0,0.0,0.0,0.0,0.0,0.0,0.0,0.0,0.0,0.0,0.0,0.0,0.0,0.0,0.0,0.0,0.0,0.0,0.0,0.0,0.0,0.0,0.0,0.0,1.8926833868,-10.5323419571,0.196132987738,0.0,0.0,0.0,0.0,0.0,0.0,0.0,0.0,0.0
898203100,93774,1644542238722019911,1,0.0,0.0,0.0,0.0,0.0,0.0,0.0,0.0,0.0,0.0,0.0,0.0,0.0,0.0,0.0,0.0,0.0,0.0,0.0,0.0,0.0,0.0,0.0,0.0,0.0,2.12804293633,-8.99269771576,-0.549172401428,0.0,0.0,0.0,0.0,0.0,0.0,0.0,0.0,0.0
900522200,93775,1644542238724036217,1,0.0,0.0,0.0,0.0,0.0,0.0,0.0,0.0,0.0,0.0,0.0,0.0,0.0,0.0,0.0,0.0,0.0,0.0,0.0,0.0,0.0,0.0,0.0,0.0,0.0,2.04958987236,-9.17902374268,0.402072638273,0.0,0.0,0.0,0.0,0.0,0.0,0.0,0.0,0.0
902162500,93776,1644542238726050138,1,0.0,0.0,0.0,0.0,0.0,0.0,0.0,0.0,0.0,0.0,0.0,0.0,0.0,0.0,0.0,0.0,0.0,0.0,0.0,0.0,0.0,0.0,0.0,0.0,0.0,1.73577702045,-11.1697740555,0.921825051308,0.0,0.0,0.0,0.0,0.0,0.0,0.0,0.0,0.0
904176200,93777,1644542238728064299,1,0.0,0.0,0.0,0.0,0.0,0.0,0.0,0.0,0.0,0.0,0.0,0.0,0.0,0.0,0.0,0.0,0.0,0.0,0.0,0.0,0.0,0.0,0.0,0.0,0.0,0.843371868134,-9.83607006073,0.666852176189,0.0,0.0,0.0,0.0,0.0,0.0,0.0,0.0,0.0
906193000,93778,1644542238730076075,1,0.0,0.0,0.0,0.0,0.0,0.0,0.0,0.0,0.0,0.0,0.0,0.0,0.0,0.0,0.0,0.0,0.0,0.0,0.0,0.0,0.0,0.0,0.0,0.0,0.0,-0.0980664938688,-8.38468551636,-1.20621788502,0.0,0.0,0.0,0.0,0.0,0.0,0.0,0.0,0.0
908266100,93779,1644542238732089996,1,0.0,0.0,0.0,0.0,0.0,0.0,0.0,0.0,0.0,0.0,0.0,0.0,0.0,0.0,0.0,0.0,0.0,0.0,0.0,0.0,0.0,0.0,0.0,0.0,0.0,0.0,-10.0322027206,-0.549172401428,0.0,0.0,0.0,0.0,0.0,0.0,0.0,0.0,0.0
910572600,93780,1644542238734106302,1,0.0,0.0,0.0,0.0,0.0,0.0,0.0,0.0,0.0,0.0,0.0,0.0,0.0,0.0,0.0,0.0,0.0,0.0,0.0,0.0,0.0,0.0,0.0,0.0,0.0,-0.343232750893,-10.708861351,0.882598459721,0.0,0.0,0.0,0.0,0.0,0.0,0.0,0.0,0.0
912463400,93781,1644542238736120224,1,0.0,0.0,0.0,0.0,0.0,0.0,0.0,0.0,0.0,0.0,0.0,0.0,0.0,0.0,0.0,0.0,0.0,0.0,0.0,0.0,0.0,0.0,0.0,0.0,0.0,-1.08853816986,-8.48275184631,-1.01989161968,0.0,0.0,0.0,0.0,0.0,0.0,0.0,0.0,0.0
914589400,93782,1644542238738134384,1,0.0,0.0,0.0,0.0,0.0,0.0,0.0,0.0,0.0,0.0,0.0,0.0,0.0,0.0,0.0,0.0,0.0,0.0,0.0,0.0,0.0,0.0,0.0,0.0,0.0,-0.921825051308,-9.61051654816,-0.725692093372,0.0,0.0,0.0,0.0,0.0,0.0,0.0,0.0,0.0
916463500,93783,1644542238740148306,1,0.0,0.0,0.0,0.0,0.0,0.0,0.0,0.0,0.0,0.0,0.0,0.0,0.0,0.0,0.0,0.0,0.0,0.0,0.0,0.0,0.0,0.0,0.0,0.0,0.0,-0.343232750893,-9.94394302368,0.451105892658,0.0,0.0,0.0,0.0,0.0,0.0,0.0,0.0,0.0
918596300,93784,1644542238742164373,1,0.0,0.0,0.0,0.0,0.0,0.0,0.0,0.0,0.0,0.0,0.0,0.0,0.0,0.0,0.0,0.0,0.0,0.0,0.0,0.0,0.0,0.0,0.0,0.0,0.0,0.627625584602,-9.25747776031,0.725692093372,0.0,0.0,0.0,0.0,0.0,0.0,0.0,0.0,0.0
920531000,93785,1644542238744178295,1,0.0,0.0,0.0,0.0,0.0,0.0,0.0,0.0,0.0,0.0,0.0,0.0,0.0,0.0,0.0,0.0,0.0,0.0,0.0,0.0,0.0,0.0,0.0,0.0,0.0,1.09834480286,-9.53206348419,1.01989161968,0.0,0.0,0.0,0.0,0.0,0.0,0.0,0.0,0.0
922579500,93786,1644542238746192455,1,0.0,0.0,0.0,0.0,0.0,0.0,0.0,0.0,0.0,0.0,0.0,0.0,0.0,0.0,0.0,0.0,0.0,0.0,0.0,0.0,0.0,0.0,0.0,0.0,0.0,1.78481030464,-10.5323419571,1.01989161968,0.0,0.0,0.0,0.0,0.0,0.0,0.0,0.0,0.0
924432300,93787,1644542238748206377,1,0.0,0.0,0.0,0.0,0.0,0.0,0.0,0.0,0.0,0.0,0.0,0.0,0.0,0.0,0.0,0.0,0.0,0.0,0.0,0.0,0.0,0.0,0.0,0.0,0.0,1.81423020363,-8.95347118378,0.137293100357,0.0,0.0,0.0,0.0,0.0,0.0,0.0,0.0,0.0
926566700,93788,1644542238750222445,1,0.0,0.0,0.0,0.0,0.0,0.0,0.0,0.0,0.0,0.0,0.0,0.0,0.0,0.0,0.0,0.0,0.0,0.0,0.0,0.0,0.0,0.0,0.0,0.0,0.0,2.36340260506,-9.53206348419,0.686465501785,0.0,0.0,0.0,0.0,0.0,0.0,0.0,0.0,0.0
928444500,93789,1644542238752236366,1,0.0,0.0,0.0,0.0,0.0,0.0,0.0,0.0,0.0,0.0,0.0,0.0,0.0,0.0,0.0,0.0,0.0,0.0,0.0,0.0,0.0,0.0,0.0,0.0,0.0,2.28494930267,-9.99297618866,0.735498726368,0.0,0.0,0.0,0.0,0.0,0.0,0.0,0.0,0.0
930493000,93790,1644542238754248381,1,0.0,0.0,0.0,0.0,0.0,0.0,0.0,0.0,0.0,0.0,0.0,0.0,0.0,0.0,0.0,0.0,0.0,0.0,0.0,0.0,0.0,0.0,0.0,0.0,0.0,1.13757133484,-9.7478094101,-0.764918684959,0.0,0.0,0.0,0.0,0.0,0.0,0.0,0.0,0.0
932519000,93791,1644542238756262541,1,0.0,0.0,0.0,0.0,0.0,0.0,0.0,0.0,0.0,0.0,0.0,0.0,0.0,0.0,0.0,0.0,0.0,0.0,0.0,0.0,0.0,0.0,0.0,0.0,0.0,-0.0784531980753,-9.49283695221,-0.813951909542,0.0,0.0,0.0,0.0,0.0,0.0,0.0,0.0,0.0
934444200,93792,1644542238758276463,1,0.0,0.0,0.0,0.0,0.0,0.0,0.0,0.0,0.0,0.0,0.0,0.0,0.0,0.0,0.0,0.0,0.0,0.0,0.0,0.0,0.0,0.0,0.0,0.0,0.0,-1.12776470184,-9.53206348419,-0.921825051308,0.0,0.0,0.0,0.0,0.0,0.0,0.0,0.0,0.0
936579800,93793,1644542238760290384,1,0.0,0.0,0.0,0.0,0.0,0.0,0.0,0.0,0.0,0.0,0.0,0.0,0.0,0.0,0.0,0.0,0.0,0.0,0.0,0.0,0.0,0.0,0.0,0.0,0.0,-0.725692093372,-9.81645679474,0.225552946329,0.0,0.0,0.0,0.0,0.0,0.0,0.0,0.0,0.0
938480000,93794,1644542238762304544,1,0.0,0.0,0.0,0.0,0.0,0.0,0.0,0.0,0.0,0.0,0.0,0.0,0.0,0.0,0.0,0.0,0.0,0.0,0.0,0.0,0.0,0.0,0.0,0.0,0.0,-1.54945063591,-9.34573745728,-0.137293100357,0.0,0.0,0.0,0.0,0.0,0.0,0.0,0.0,0.0
940570200,93795,1644542238764318466,1,0.0,0.0,0.0,0.0,0.0,0.0,0.0,0.0,0.0,0.0,0.0,0.0,0.0,0.0,0.0,0.0,0.0,0.0,0.0,0.0,0.0,0.0,0.0,0.0,0.0,-2.12804293633,-8.85540485382,-0.38245934248,0.0,0.0,0.0,0.0,0.0,0.0,0.0,0.0,0.0
942535300,93796,1644542238766334534,1,0.0,0.0,0.0,0.0,0.0,0.0,0.0,0.0,0.0,0.0,0.0,0.0,0.0,0.0,0.0,0.0,0.0,0.0,0.0,0.0,0.0,0.0,0.0,0.0,0.0,-1.17679798603,-10.5323419571,1.12776470184,0.0,0.0,0.0,0.0,0.0,0.0,0.0,0.0,0.0
944444000,93797,1644542238768348455,1,0.0,0.0,0.0,0.0,0.0,0.0,0.0,0.0,0.0,0.0,0.0,0.0,0.0,0.0,0.0,0.0,0.0,0.0,0.0,0.0,0.0,0.0,0.0,0.0,0.0,-0.882598459721,-9.42419052124,-0.0294199492782,0.0,0.0,0.0,0.0,0.0,0.0,0.0,0.0,0.0
946464400,93798,1644542238770362616,1,0.0,0.0,0.0,0.0,0.0,0.0,0.0,0.0,0.0,0.0,0.0,0.0,0.0,0.0,0.0,0.0,0.0,0.0,0.0,0.0,0.0,0.0,0.0,0.0,0.0,-0.57859236002,-9.5222568512,-0.509945809841,0.0,0.0,0.0,0.0,0.0,0.0,0.0,0.0,0.0
948825300,93799,1644542238772376537,1,0.0,0.0,0.0,0.0,0.0,0.0,0.0,0.0,0.0,0.0,0.0,0.0,0.0,0.0,0.0,0.0,0.0,0.0,0.0,0.0,0.0,0.0,0.0,0.0,0.0,-0.343232750893,-10.3656291962,0.12748645246,0.0,0.0,0.0,0.0,0.0,0.0,0.0,0.0,0.0
950720000,93800,1644542238774390697,1,0.0,0.0,0.0,0.0,0.0,0.0,0.0,0.0,0.0,0.0,0.0,0.0,0.0,0.0,0.0,0.0,0.0,0.0,0.0,0.0,0.0,0.0,0.0,0.0,0.0,-0.774725317955,-9.17902374268,-0.558979034424,0.0,0.0,0.0,0.0,0.0,0.0,0.0,0.0,0.0
952734900,93801,1644542238776404619,1,0.0,0.0,0.0,0.0,0.0,0.0,0.0,0.0,0.0,0.0,0.0,0.0,0.0,0.0,0.0,0.0,0.0,0.0,0.0,0.0,0.0,0.0,0.0,0.0,0.0,-0.490332484245,-9.88510322571,-0.137293100357,0.0,0.0,0.0,0.0,0.0,0.0,0.0,0.0,0.0
954880100,93802,1644542238778418541,1,0.0,0.0,0.0,0.0,0.0,0.0,0.0,0.0,0.0,0.0,0.0,0.0,0.0,0.0,0.0,0.0,0.0,0.0,0.0,0.0,0.0,0.0,0.0,0.0,0.0,-0.921825051308,-9.75761604309,0.137293100357,0.0,0.0,0.0,0.0,0.0,0.0,0.0,0.0,0.0
956733100,93803,1644542238780432701,1,0.0,0.0,0.0,0.0,0.0,0.0,0.0,0.0,0.0,0.0,0.0,0.0,0.0,0.0,0.0,0.0,0.0,0.0,0.0,0.0,0.0,0.0,0.0,0.0,0.0,-1.28467106819,-9.49283695221,-0.558979034424,0.0,0.0,0.0,0.0,0.0,0.0,0.0,0.0,0.0
958728800,93804,1644542238782448769,1,0.0,0.0,0.0,0.0,0.0,0.0,0.0,0.0,0.0,0.0,0.0,0.0,0.0,0.0,0.0,0.0,0.0,0.0,0.0,0.0,0.0,0.0,0.0,0.0,0.0,-0.833565235138,-10.0420093536,0.12748645246,0.0,0.0,0.0,0.0,0.0,0.0,0.0,0.0,0.0
960683500,93805,1644542238784460783,1,0.0,0.0,0.0,0.0,0.0,0.0,0.0,0.0,0.0,0.0,0.0,0.0,0.0,0.0,0.0,0.0,0.0,0.0,0.0,0.0,0.0,0.0,0.0,0.0,0.0,-1.04931151867,-9.48303031921,-0.470719188452,0.0,0.0,0.0,0.0,0.0,0.0,0.0,0.0,0.0
962659400,93806,1644542238786476612,1,0.0,0.0,0.0,0.0,0.0,0.0,0.0,0.0,0.0,0.0,0.0,0.0,0.0,0.0,0.0,0.0,0.0,0.0,0.0,0.0,0.0,0.0,0.0,0.0,0.0,-1.05911815166,-11.1109342575,3.44213414192,0.0,0.0,0.0,0.0,0.0,0.0,0.0,0.0,0.0
964771200,93807,1644542238788490772,1,0.0,0.0,0.0,0.0,0.0,0.0,0.0,0.0,0.0,0.0,0.0,0.0,0.0,0.0,0.0,0.0,0.0,0.0,0.0,0.0,0.0,0.0,0.0,0.0,0.0,-0.872791826725,-10.0125894547,0.294199496508,0.0,0.0,0.0,0.0,0.0,0.0,0.0,0.0,0.0
966665200,93808,1644542238790502787,1,0.0,0.0,0.0,0.0,0.0,0.0,0.0,0.0,0.0,0.0,0.0,0.0,0.0,0.0,0.0,0.0,0.0,0.0,0.0,0.0,0.0,0.0,0.0,0.0,0.0,-0.921825051308,-8.72791862488,-0.313812792301,0.0,0.0,0.0,0.0,0.0,0.0,0.0,0.0,0.0
968700300,93809,1644542238792518854,1,0.0,0.0,0.0,0.0,0.0,0.0,0.0,0.0,0.0,0.0,0.0,0.0,0.0,0.0,0.0,0.0,0.0,0.0,0.0,0.0,0.0,0.0,0.0,0.0,0.0,-0.274586200714,-9.61051654816,0.912018418312,0.0,0.0,0.0,0.0,0.0,0.0,0.0,0.0,0.0
970730400,93810,1644542238794532776,1,0.0,0.0,0.0,0.0,0.0,0.0,0.0,0.0,0.0,0.0,0.0,0.0,0.0,0.0,0.0,0.0,0.0,0.0,0.0,0.0,0.0,0.0,0.0,0.0,0.0,-0.166713044047,-10.2969818115,0.696272134781,0.0,0.0,0.0,0.0,0.0,0.0,0.0,0.0,0.0
972724100,93811,1644542238796546936,1,0.0,0.0,0.0,0.0,0.0,0.0,0.0,0.0,0.0,0.0,0.0,0.0,0.0,0.0,0.0,0.0,0.0,0.0,0.0,0.0,0.0,0.0,0.0,0.0,0.0,-1.13757133484,-8.65927219391,0.0784531980753,0.0,0.0,0.0,0.0,0.0,0.0,0.0,0.0,0.0
974702700,93812,1644542238798562765,1,0.0,0.0,0.0,0.0,0.0,0.0,0.0,0.0,0.0,0.0,0.0,0.0,0.0,0.0,0.0,0.0,0.0,0.0,0.0,0.0,0.0,0.0,0.0,0.0,0.0,-0.735498726368,-9.53206348419,0.666852176189,0.0,0.0,0.0,0.0,0.0,0.0,0.0,0.0,0.0
976811000,93813,1644542238800576925,1,0.0,0.0,0.0,0.0,0.0,0.0,0.0,0.0,0.0,0.0,0.0,0.0,0.0,0.0,0.0,0.0,0.0,0.0,0.0,0.0,0.0,0.0,0.0,0.0,0.0,-0.362846046686,-9.67916297913,0.696272134781,0.0,0.0,0.0,0.0,0.0,0.0,0.0,0.0,0.0
978817200,93814,1644542238802590847,1,0.0,0.0,0.0,0.0,0.0,0.0,0.0,0.0,0.0,0.0,0.0,0.0,0.0,0.0,0.0,0.0,0.0,0.0,0.0,0.0,0.0,0.0,0.0,0.0,0.0,0.264779537916,-9.15941047668,0.961051702499,0.0,0.0,0.0,0.0,0.0,0.0,0.0,0.0,0.0
980670800,93815,1644542238804604769,1,0.0,0.0,0.0,0.0,0.0,0.0,0.0,0.0,0.0,0.0,0.0,0.0,0.0,0.0,0.0,0.0,0.0,0.0,0.0,0.0,0.0,0.0,0.0,0.0,0.0,-0.0686465501785,-9.38496398926,0.872791826725,0.0,0.0,0.0,0.0,0.0,0.0,0.0,0.0,0.0
982828800,93816,1644542238806618929,1,0.0,0.0,0.0,0.0,0.0,0.0,0.0,0.0,0.0,0.0,0.0,0.0,0.0,0.0,0.0,0.0,0.0,0.0,0.0,0.0,0.0,0.0,0.0,0.0,0.0,-0.0980664938688,-10.1400756836,1.01989161968,0.0,0.0,0.0,0.0,0.0,0.0,0.0,0.0,0.0
985062900,93817,1644542238808634758,1,0.0,0.0,0.0,0.0,0.0,0.0,0.0,0.0,0.0,0.0,0.0,0.0,0.0,0.0,0.0,0.0,0.0,0.0,0.0,0.0,0.0,0.0,0.0,0.0,0.0,0.725692093372,-9.91452312469,0.804145276546,0.0,0.0,0.0,0.0,0.0,0.0,0.0,0.0,0.0
986966400,93818,1644542238810648918,1,0.0,0.0,0.0,0.0,0.0,0.0,0.0,0.0,0.0,0.0,0.0,0.0,0.0,0.0,0.0,0.0,0.0,0.0,0.0,0.0,0.0,0.0,0.0,0.0,0.0,0.725692093372,-9.16921710968,0.402072638273,0.0,0.0,0.0,0.0,0.0,0.0,0.0,0.0,0.0
989013800,93819,1644542238812662840,1,0.0,0.0,0.0,0.0,0.0,0.0,0.0,0.0,0.0,0.0,0.0,0.0,0.0,0.0,0.0,0.0,0.0,0.0,0.0,0.0,0.0,0.0,0.0,0.0,0.0,0.225552946329,-9.99297618866,1.2552511692,0.0,0.0,0.0,0.0,0.0,0.0,0.0,0.0,0.0
991012500,93820,1644542238814677000,1,0.0,0.0,0.0,0.0,0.0,0.0,0.0,0.0,0.0,0.0,0.0,0.0,0.0,0.0,0.0,0.0,0.0,0.0,0.0,0.0,0.0,0.0,0.0,0.0,0.0,0.38245934248,-9.42419052124,1.05911815166,0.0,0.0,0.0,0.0,0.0,0.0,0.0,0.0,0.0
993067000,93821,1644542238816692829,1,0.0,0.0,0.0,0.0,0.0,0.0,0.0,0.0,0.0,0.0,0.0,0.0,0.0,0.0,0.0,0.0,0.0,0.0,0.0,0.0,0.0,0.0,0.0,0.0,0.0,1.31409108639,-9.2868976593,1.68674373627,0.0,0.0,0.0,0.0,0.0,0.0,0.0,0.0,0.0
995070900,93822,1644542238818706989,1,0.0,0.0,0.0,0.0,0.0,0.0,0.0,0.0,0.0,0.0,0.0,0.0,0.0,0.0,0.0,0.0,0.0,0.0,0.0,0.0,0.0,0.0,0.0,0.0,0.0,0.38245934248,-9.64974308014,2.8341217041,0.0,0.0,0.0,0.0,0.0,0.0,0.0,0.0,0.0
997063800,93823,1644542238820720911,1,0.0,0.0,0.0,0.0,0.0,0.0,0.0,0.0,0.0,0.0,0.0,0.0,0.0,0.0,0.0,0.0,0.0,0.0,0.0,0.0,0.0,0.0,0.0,0.0,0.0,0.12748645246,-9.8949098587,2.14765620232,0.0,0.0,0.0,0.0,0.0,0.0,0.0,0.0,0.0
999061500,93824,1644542238822735071,1,0.0,0.0,0.0,0.0,0.0,0.0,0.0,0.0,0.0,0.0,0.0,0.0,0.0,0.0,0.0,0.0,0.0,0.0,0.0,0.0,0.0,0.0,0.0,0.0,0.0,-0.264779537916,-9.66935634613,1.31409108639,0.0,0.0,0.0,0.0,0.0,0.0,0.0,0.0,0.0
1001011300,93825,1644542238824750900,1,0.0,0.0,0.0,0.0,0.0,0.0,0.0,0.0,0.0,0.0,0.0,0.0,0.0,0.0,0.0,0.0,0.0,0.0,0.0,0.0,0.0,0.0,0.0,0.0,0.0,0.0980664938688,-9.58109664917,1.16699135303,0.0,0.0,0.0,0.0,0.0,0.0,0.0,0.0,0.0
1002970400,93826,1644542238826763153,1,0.0,0.0,0.0,0.0,0.0,0.0,0.0,0.0,0.0,0.0,0.0,0.0,0.0,0.0,0.0,0.0,0.0,0.0,0.0,0.0,0.0,0.0,0.0,0.0,0.0,-0.686465501785,-9.64974308014,1.97113656998,0.0,0.0,0.0,0.0,0.0,0.0,0.0,0.0,0.0
1005016300,93827,1644542238828777075,1,0.0,0.0,0.0,0.0,0.0,0.0,0.0,0.0,0.0,0.0,0.0,0.0,0.0,0.0,0.0,0.0,0.0,0.0,0.0,0.0,0.0,0.0,0.0,0.0,0.0,-0.402072638273,-10.0125894547,0.990471601486,0.0,0.0,0.0,0.0,0.0,0.0,0.0,0.0,0.0
1006901800,93828,1644542238830790997,1,0.0,0.0,0.0,0.0,0.0,0.0,0.0,0.0,0.0,0.0,0.0,0.0,0.0,0.0,0.0,0.0,0.0,0.0,0.0,0.0,0.0,0.0,0.0,0.0,0.0,-0.421685934067,-9.53206348419,0.38245934248,0.0,0.0,0.0,0.0,0.0,0.0,0.0,0.0,0.0
1008914400,93829,1644542238832805157,1,0.0,0.0,0.0,0.0,0.0,0.0,0.0,0.0,0.0,0.0,0.0,0.0,0.0,0.0,0.0,0.0,0.0,0.0,0.0,0.0,0.0,0.0,0.0,0.0,0.0,-0.529559075832,-9.45361042023,1.33370435238,0.0,0.0,0.0,0.0,0.0,0.0,0.0,0.0,0.0
1010911600,93830,1644542238834819078,1,0.0,0.0,0.0,0.0,0.0,0.0,0.0,0.0,0.0,0.0,0.0,0.0,0.0,0.0,0.0,0.0,0.0,0.0,0.0,0.0,0.0,0.0,0.0,0.0,0.0,-0.490332484245,-9.78703689575,1.55925726891,0.0,0.0,0.0,0.0,0.0,0.0,0.0,0.0,0.0
1012973100,93831,1644542238836835146,1,0.0,0.0,0.0,0.0,0.0,0.0,0.0,0.0,0.0,0.0,0.0,0.0,0.0,0.0,0.0,0.0,0.0,0.0,0.0,0.0,0.0,0.0,0.0,0.0,0.0,0.0784531980753,-9.30651092529,1.05911815166,0.0,0.0,0.0,0.0,0.0,0.0,0.0,0.0,0.0
1014918500,93832,1644542238838849068,1,0.0,0.0,0.0,0.0,0.0,0.0,0.0,0.0,0.0,0.0,0.0,0.0,0.0,0.0,0.0,0.0,0.0,0.0,0.0,0.0,0.0,0.0,0.0,0.0,0.0,-0.245166242123,-9.70858287811,1.12776470184,0.0,0.0,0.0,0.0,0.0,0.0,0.0,0.0,0.0
1017001700,93833,1644542238840863228,1,0.0,0.0,0.0,0.0,0.0,0.0,0.0,0.0,0.0,0.0,0.0,0.0,0.0,0.0,0.0,0.0,0.0,0.0,0.0,0.0,0.0,0.0,0.0,0.0,0.0,0.0686465501785,-9.45361042023,0.725692093372,0.0,0.0,0.0,0.0,0.0,0.0,0.0,0.0,0.0
1018940000,93834,1644542238842877150,1,0.0,0.0,0.0,0.0,0.0,0.0,0.0,0.0,0.0,0.0,0.0,0.0,0.0,0.0,0.0,0.0,0.0,0.0,0.0,0.0,0.0,0.0,0.0,0.0,0.0,-0.294199496508,-9.53206348419,0.804145276546,0.0,0.0,0.0,0.0,0.0,0.0,0.0,0.0,0.0
1021180100,93835,1644542238844893217,1,0.0,0.0,0.0,0.0,0.0,0.0,0.0,0.0,0.0,0.0,0.0,0.0,0.0,0.0,0.0,0.0,0.0,0.0,0.0,0.0,0.0,0.0,0.0,0.0,0.0,0.225552946329,-9.58109664917,0.196132987738,0.0,0.0,0.0,0.0,0.0,0.0,0.0,0.0,0.0
1023218600,93836,1644542238846907139,1,0.0,0.0,0.0,0.0,0.0,0.0,0.0,0.0,0.0,0.0,0.0,0.0,0.0,0.0,0.0,0.0,0.0,0.0,0.0,0.0,0.0,0.0,0.0,0.0,0.0,0.0784531980753,-9.57129001617,0.264779537916,0.0,0.0,0.0,0.0,0.0,0.0,0.0,0.0,0.0
1025188100,93837,1644542238848919392,1,0.0,0.0,0.0,0.0,0.0,0.0,0.0,0.0,0.0,0.0,0.0,0.0,0.0,0.0,0.0,0.0,0.0,0.0,0.0,0.0,0.0,0.0,0.0,0.0,0.0,0.12748645246,-9.57129001617,0.470719188452,0.0,0.0,0.0,0.0,0.0,0.0,0.0,0.0,0.0
1027308300,93838,1644542238850935221,1,0.0,0.0,0.0,0.0,0.0,0.0,0.0,0.0,0.0,0.0,0.0,0.0,0.0,0.0,0.0,0.0,0.0,0.0,0.0,0.0,0.0,0.0,0.0,0.0,0.0,0.666852176189,-9.83607006073,0.274586200714,0.0,0.0,0.0,0.0,0.0,0.0,0.0,0.0,0.0
1029269400,93839,1644542238852949381,1,0.0,0.0,0.0,0.0,0.0,0.0,0.0,0.0,0.0,0.0,0.0,0.0,0.0,0.0,0.0,0.0,0.0,0.0,0.0,0.0,0.0,0.0,0.0,0.0,0.0,0.57859236002,-9.58109664917,0.274586200714,0.0,0.0,0.0,0.0,0.0,0.0,0.0,0.0,0.0
1031242700,93840,1644542238854963303,1,0.0,0.0,0.0,0.0,0.0,0.0,0.0,0.0,0.0,0.0,0.0,0.0,0.0,0.0,0.0,0.0,0.0,0.0,0.0,0.0,0.0,0.0,0.0,0.0,0.0,0.549172401428,-9.86548995972,0.529559075832,0.0,0.0,0.0,0.0,0.0,0.0,0.0,0.0,0.0
1033190300,93841,1644542238856977463,1,0.0,0.0,0.0,0.0,0.0,0.0,0.0,0.0,0.0,0.0,0.0,0.0,0.0,0.0,0.0,0.0,0.0,0.0,0.0,0.0,0.0,0.0,0.0,0.0,0.0,0.402072638273,-9.8949098587,0.490332484245,0.0,0.0,0.0,0.0,0.0,0.0,0.0,0.0,0.0
1035259000,93842,1644542238858993292,1,0.0,0.0,0.0,0.0,0.0,0.0,0.0,0.0,0.0,0.0,0.0,0.0,0.0,0.0,0.0,0.0,0.0,0.0,0.0,0.0,0.0,0.0,0.0,0.0,0.0,0.529559075832,-9.5222568512,0.166713044047,0.0,0.0,0.0,0.0,0.0,0.0,0.0,0.0,0.0
1037153100,93843,1644542238861007452,1,0.0,0.0,0.0,0.0,0.0,0.0,0.0,0.0,0.0,0.0,0.0,0.0,0.0,0.0,0.0,0.0,0.0,0.0,0.0,0.0,0.0,0.0,0.0,0.0,0.0,0.813951909542,-9.75761604309,0.0980664938688,0.0,0.0,0.0,0.0,0.0,0.0,0.0,0.0,0.0
1039156600,93844,1644542238863021374,1,0.0,0.0,0.0,0.0,0.0,0.0,0.0,0.0,0.0,0.0,0.0,0.0,0.0,0.0,0.0,0.0,0.0,0.0,0.0,0.0,0.0,0.0,0.0,0.0,0.0,0.509945809841,-9.71838951111,0.0784531980753,0.0,0.0,0.0,0.0,0.0,0.0,0.0,0.0,0.0
1041201600,93845,1644542238865035534,1,0.0,0.0,0.0,0.0,0.0,0.0,0.0,0.0,0.0,0.0,0.0,0.0,0.0,0.0,0.0,0.0,0.0,0.0,0.0,0.0,0.0,0.0,0.0,0.0,0.0,0.598205626011,-9.61051654816,0.0784531980753,0.0,0.0,0.0,0.0,0.0,0.0,0.0,0.0,0.0
1043204800,93846,1644542238867049456,1,0.0,0.0,0.0,0.0,0.0,0.0,0.0,0.0,0.0,0.0,0.0,0.0,0.0,0.0,0.0,0.0,0.0,0.0,0.0,0.0,0.0,0.0,0.0,0.0,0.0,0.558979034424,-9.7478094101,0.00980664975941,0.0,0.0,0.0,0.0,0.0,0.0,0.0,0.0,0.0
1045212200,93847,1644542238869065762,1,0.0,0.0,0.0,0.0,0.0,0.0,0.0,0.0,0.0,0.0,0.0,0.0,0.0,0.0,0.0,0.0,0.0,0.0,0.0,0.0,0.0,0.0,0.0,0.0,0.0,0.490332484245,-9.56148338318,0.0294199492782,0.0,0.0,0.0,0.0,0.0,0.0,0.0,0.0,0.0
1047148200,93848,1644542238871077538,1,0.0,0.0,0.0,0.0,0.0,0.0,0.0,0.0,0.0,0.0,0.0,0.0,0.0,0.0,0.0,0.0,0.0,0.0,0.0,0.0,0.0,0.0,0.0,0.0,0.0,0.813951909542,-9.75761604309,-0.0686465501785,0.0,0.0,0.0,0.0,0.0,0.0,0.0,0.0,0.0
1049308700,93849,1644542238873093843,1,0.0,0.0,0.0,0.0,0.0,0.0,0.0,0.0,0.0,0.0,0.0,0.0,0.0,0.0,0.0,0.0,0.0,0.0,0.0,0.0,0.0,0.0,0.0,0.0,0.0,0.804145276546,-9.98316955566,-0.196132987738,0.0,0.0,0.0,0.0,0.0,0.0,0.0,0.0,0.0
1051202700,93850,1644542238875107765,1,0.0,0.0,0.0,0.0,0.0,0.0,0.0,0.0,0.0,0.0,0.0,0.0,0.0,0.0,0.0,0.0,0.0,0.0,0.0,0.0,0.0,0.0,0.0,0.0,0.0,0.294199496508,-9.31631755829,-0.274586200714,0.0,0.0,0.0,0.0,0.0,0.0,0.0,0.0,0.0
1053205800,93851,1644542238877121687,1,0.0,0.0,0.0,0.0,0.0,0.0,0.0,0.0,0.0,0.0,0.0,0.0,0.0,0.0,0.0,0.0,0.0,0.0,0.0,0.0,0.0,0.0,0.0,0.0,0.0,0.470719188452,-9.39477062225,0.0294199492782,0.0,0.0,0.0,0.0,0.0,0.0,0.0,0.0,0.0
1055482500,93852,1644542238879137754,1,0.0,0.0,0.0,0.0,0.0,0.0,0.0,0.0,0.0,0.0,0.0,0.0,0.0,0.0,0.0,0.0,0.0,0.0,0.0,0.0,0.0,0.0,0.0,0.0,0.0,0.402072638273,-9.03192424774,0.0686465501785,0.0,0.0,0.0,0.0,0.0,0.0,0.0,0.0,0.0
1057518700,93853,1644542238881151915,1,0.0,0.0,0.0,0.0,0.0,0.0,0.0,0.0,0.0,0.0,0.0,0.0,0.0,0.0,0.0,0.0,0.0,0.0,0.0,0.0,0.0,0.0,0.0,0.0,0.0,0.57859236002,-10.1204624176,1.66713047028,0.0,0.0,0.0,0.0,0.0,0.0,0.0,0.0,0.0
1059429800,93854,1644542238883165836,1,0.0,0.0,0.0,0.0,0.0,0.0,0.0,0.0,0.0,0.0,0.0,0.0,0.0,0.0,0.0,0.0,0.0,0.0,0.0,0.0,0.0,0.0,0.0,0.0,0.0,0.274586200714,-9.81645679474,0.951245009899,0.0,0.0,0.0,0.0,0.0,0.0,0.0,0.0,0.0
1061412900,93855,1644542238885181904,1,0.0,0.0,0.0,0.0,0.0,0.0,0.0,0.0,0.0,0.0,0.0,0.0,0.0,0.0,0.0,0.0,0.0,0.0,0.0,0.0,0.0,0.0,0.0,0.0,0.0,0.598205626011,-8.56120491028,0.294199496508,0.0,0.0,0.0,0.0,0.0,0.0,0.0,0.0,0.0
1063529000,93856,1644542238887195826,1,0.0,0.0,0.0,0.0,0.0,0.0,0.0,0.0,0.0,0.0,0.0,0.0,0.0,0.0,0.0,0.0,0.0,0.0,0.0,0.0,0.0,0.0,0.0,0.0,0.0,0.833565235138,-10.1596889496,0.38245934248,0.0,0.0,0.0,0.0,0.0,0.0,0.0,0.0,0.0
1065481900,93857,1644542238889211893,1,0.0,0.0,0.0,0.0,0.0,0.0,0.0,0.0,0.0,0.0,0.0,0.0,0.0,0.0,0.0,0.0,0.0,0.0,0.0,0.0,0.0,0.0,0.0,0.0,0.0,0.598205626011,-10.0910425186,0.549172401428,0.0,0.0,0.0,0.0,0.0,0.0,0.0,0.0,0.0
1067510100,93858,1644542238891223907,1,0.0,0.0,0.0,0.0,0.0,0.0,0.0,0.0,0.0,0.0,0.0,0.0,0.0,0.0,0.0,0.0,0.0,0.0,0.0,0.0,0.0,0.0,0.0,0.0,0.0,0.0,-8.75733852386,-0.0980664938688,0.0,0.0,0.0,0.0,0.0,0.0,0.0,0.0,0.0
1069430500,93859,1644542238893239975,1,0.0,0.0,0.0,0.0,0.0,0.0,0.0,0.0,0.0,0.0,0.0,0.0,0.0,0.0,0.0,0.0,0.0,0.0,0.0,0.0,0.0,0.0,0.0,0.0,0.0,0.813951909542,-9.62032318115,0.196132987738,0.0,0.0,0.0,0.0,0.0,0.0,0.0,0.0,0.0
1071424000,93860,1644542238895255804,1,0.0,0.0,0.0,0.0,0.0,0.0,0.0,0.0,0.0,0.0,0.0,0.0,0.0,0.0,0.0,0.0,0.0,0.0,0.0,0.0,0.0,0.0,0.0,0.0,0.0,0.470719188452,-9.96355628967,0.421685934067,0.0,0.0,0.0,0.0,0.0,0.0,0.0,0.0,0.0
1073453800,93861,1644542238897268057,1,0.0,0.0,0.0,0.0,0.0,0.0,0.0,0.0,0.0,0.0,0.0,0.0,0.0,0.0,0.0,0.0,0.0,0.0,0.0,0.0,0.0,0.0,0.0,0.0,0.0,0.637432217598,-9.31631755829,-0.0392265990376,0.0,0.0,0.0,0.0,0.0,0.0,0.0,0.0,0.0
1075547300,93862,1644542238899283886,1,0.0,0.0,0.0,0.0,0.0,0.0,0.0,0.0,0.0,0.0,0.0,0.0,0.0,0.0,0.0,0.0,0.0,0.0,0.0,0.0,0.0,0.0,0.0,0.0,0.0,0.598205626011,-9.43399715424,0.402072638273,0.0,0.0,0.0,0.0,0.0,0.0,0.0,0.0,0.0
1077448200,93863,1644542238901299953,1,0.0,0.0,0.0,0.0,0.0,0.0,0.0,0.0,0.0,0.0,0.0,0.0,0.0,0.0,0.0,0.0,0.0,0.0,0.0,0.0,0.0,0.0,0.0,0.0,0.0,0.509945809841,-10.1106557846,0.529559075832,0.0,0.0,0.0,0.0,0.0,0.0,0.0,0.0,0.0
1079479500,93864,1644542238903313875,1,0.0,0.0,0.0,0.0,0.0,0.0,0.0,0.0,0.0,0.0,0.0,0.0,0.0,0.0,0.0,0.0,0.0,0.0,0.0,0.0,0.0,0.0,0.0,0.0,0.0,0.245166242123,-9.61051654816,0.421685934067,0.0,0.0,0.0,0.0,0.0,0.0,0.0,0.0,0.0
1081410000,93865,1644542238905328035,1,0.0,0.0,0.0,0.0,0.0,0.0,0.0,0.0,0.0,0.0,0.0,0.0,0.0,0.0,0.0,0.0,0.0,0.0,0.0,0.0,0.0,0.0,0.0,0.0,0.0,0.451105892658,-9.2868976593,0.421685934067,0.0,0.0,0.0,0.0,0.0,0.0,0.0,0.0,0.0
1083451100,93866,1644542238907344103,1,0.0,0.0,0.0,0.0,0.0,0.0,0.0,0.0,0.0,0.0,0.0,0.0,0.0,0.0,0.0,0.0,0.0,0.0,0.0,0.0,0.0,0.0,0.0,0.0,0.0,0.57859236002,-9.70858287811,0.38245934248,0.0,0.0,0.0,0.0,0.0,0.0,0.0,0.0,0.0
1085403700,93867,1644542238909358263,1,0.0,0.0,0.0,0.0,0.0,0.0,0.0,0.0,0.0,0.0,0.0,0.0,0.0,0.0,0.0,0.0,0.0,0.0,0.0,0.0,0.0,0.0,0.0,0.0,0.0,0.696272134781,-9.88510322571,0.343232750893,0.0,0.0,0.0,0.0,0.0,0.0,0.0,0.0,0.0
1087466300,93868,1644542238911374092,1,0.0,0.0,0.0,0.0,0.0,0.0,0.0,0.0,0.0,0.0,0.0,0.0,0.0,0.0,0.0,0.0,0.0,0.0,0.0,0.0,0.0,0.0,0.0,0.0,0.0,0.529559075832,-9.67916297913,0.598205626011,0.0,0.0,0.0,0.0,0.0,0.0,0.0,0.0,0.0
1089716300,93869,1644542238913388252,1,0.0,0.0,0.0,0.0,0.0,0.0,0.0,0.0,0.0,0.0,0.0,0.0,0.0,0.0,0.0,0.0,0.0,0.0,0.0,0.0,0.0,0.0,0.0,0.0,0.0,0.402072638273,-9.53206348419,0.421685934067,0.0,0.0,0.0,0.0,0.0,0.0,0.0,0.0,0.0
1091667900,93870,1644542238915402174,1,0.0,0.0,0.0,0.0,0.0,0.0,0.0,0.0,0.0,0.0,0.0,0.0,0.0,0.0,0.0,0.0,0.0,0.0,0.0,0.0,0.0,0.0,0.0,0.0,0.0,0.833565235138,-9.86548995972,0.598205626011,0.0,0.0,0.0,0.0,0.0,0.0,0.0,0.0,0.0
1093813700,93871,1644542238917418242,1,0.0,0.0,0.0,0.0,0.0,0.0,0.0,0.0,0.0,0.0,0.0,0.0,0.0,0.0,0.0,0.0,0.0,0.0,0.0,0.0,0.0,0.0,0.0,0.0,0.0,1.16699135303,-9.61051654816,0.274586200714,0.0,0.0,0.0,0.0,0.0,0.0,0.0,0.0,0.0
1096020100,93872,1644542238919432402,1,0.0,0.0,0.0,0.0,0.0,0.0,0.0,0.0,0.0,0.0,0.0,0.0,0.0,0.0,0.0,0.0,0.0,0.0,0.0,0.0,0.0,0.0,0.0,0.0,0.0,0.921825051308,-9.62032318115,0.196132987738,0.0,0.0,0.0,0.0,0.0,0.0,0.0,0.0,0.0
1097708200,93873,1644542238921448231,1,0.0,0.0,0.0,0.0,0.0,0.0,0.0,0.0,0.0,0.0,0.0,0.0,0.0,0.0,0.0,0.0,0.0,0.0,0.0,0.0,0.0,0.0,0.0,0.0,0.0,0.882598459721,-9.71838951111,0.421685934067,0.0,0.0,0.0,0.0,0.0,0.0,0.0,0.0,0.0
1099783100,93874,1644542238923462391,1,0.0,0.0,0.0,0.0,0.0,0.0,0.0,0.0,0.0,0.0,0.0,0.0,0.0,0.0,0.0,0.0,0.0,0.0,0.0,0.0,0.0,0.0,0.0,0.0,0.0,0.725692093372,-9.57129001617,0.245166242123,0.0,0.0,0.0,0.0,0.0,0.0,0.0,0.0,0.0
1101821300,93875,1644542238925476313,1,0.0,0.0,0.0,0.0,0.0,0.0,0.0,0.0,0.0,0.0,0.0,0.0,0.0,0.0,0.0,0.0,0.0,0.0,0.0,0.0,0.0,0.0,0.0,0.0,0.0,1.22583127022,-9.94394302368,0.313812792301,0.0,0.0,0.0,0.0,0.0,0.0,0.0,0.0,0.0
1103651300,93876,1644542238927492380,1,0.0,0.0,0.0,0.0,0.0,0.0,0.0,0.0,0.0,0.0,0.0,0.0,0.0,0.0,0.0,0.0,0.0,0.0,0.0,0.0,0.0,0.0,0.0,0.0,0.0,1.28467106819,-9.91452312469,0.0294199492782,0.0,0.0,0.0,0.0,0.0,0.0,0.0,0.0,0.0
1105900400,93877,1644542238929506302,1,0.0,0.0,0.0,0.0,0.0,0.0,0.0,0.0,0.0,0.0,0.0,0.0,0.0,0.0,0.0,0.0,0.0,0.0,0.0,0.0,0.0,0.0,0.0,0.0,0.0,1.01008486748,-9.86548995972,0.725692093372,0.0,0.0,0.0,0.0,0.0,0.0,0.0,0.0,0.0
1107714600,93878,1644542238931520462,1,0.0,0.0,0.0,0.0,0.0,0.0,0.0,0.0,0.0,0.0,0.0,0.0,0.0,0.0,0.0,0.0,0.0,0.0,0.0,0.0,0.0,0.0,0.0,0.0,0.0,0.549172401428,-9.62032318115,0.451105892658,0.0,0.0,0.0,0.0,0.0,0.0,0.0,0.0,0.0
1109749200,93879,1644542238933536291,1,0.0,0.0,0.0,0.0,0.0,0.0,0.0,0.0,0.0,0.0,0.0,0.0,0.0,0.0,0.0,0.0,0.0,0.0,0.0,0.0,0.0,0.0,0.0,0.0,0.0,0.470719188452,-9.39477062225,0.38245934248,0.0,0.0,0.0,0.0,0.0,0.0,0.0,0.0,0.0
1111736100,93880,1644542238935550451,1,0.0,0.0,0.0,0.0,0.0,0.0,0.0,0.0,0.0,0.0,0.0,0.0,0.0,0.0,0.0,0.0,0.0,0.0,0.0,0.0,0.0,0.0,0.0,0.0,0.0,0.529559075832,-9.58109664917,0.774725317955,0.0,0.0,0.0,0.0,0.0,0.0,0.0,0.0,0.0
1113622300,93881,1644542238937566519,1,0.0,0.0,0.0,0.0,0.0,0.0,0.0,0.0,0.0,0.0,0.0,0.0,0.0,0.0,0.0,0.0,0.0,0.0,0.0,0.0,0.0,0.0,0.0,0.0,0.0,0.490332484245,-9.35554409027,0.402072638273,0.0,0.0,0.0,0.0,0.0,0.0,0.0,0.0,0.0
1116018400,93882,1644542238939580679,1,0.0,0.0,0.0,0.0,0.0,0.0,0.0,0.0,0.0,0.0,0.0,0.0,0.0,0.0,0.0,0.0,0.0,0.0,0.0,0.0,0.0,0.0,0.0,0.0,0.0,0.313812792301,-9.64974308014,0.451105892658,0.0,0.0,0.0,0.0,0.0,0.0,0.0,0.0,0.0
1117732200,93883,1644542238941594601,1,0.0,0.0,0.0,0.0,0.0,0.0,0.0,0.0,0.0,0.0,0.0,0.0,0.0,0.0,0.0,0.0,0.0,0.0,0.0,0.0,0.0,0.0,0.0,0.0,0.0,0.196132987738,-9.7478094101,0.725692093372,0.0,0.0,0.0,0.0,0.0,0.0,0.0,0.0,0.0
1119842500,93884,1644542238943608761,1,0.0,0.0,0.0,0.0,0.0,0.0,0.0,0.0,0.0,0.0,0.0,0.0,0.0,0.0,0.0,0.0,0.0,0.0,0.0,0.0,0.0,0.0,0.0,0.0,0.0,-0.402072638273,-9.58109664917,0.470719188452,0.0,0.0,0.0,0.0,0.0,0.0,0.0,0.0,0.0
1121828300,93885,1644542238945622444,1,0.0,0.0,0.0,0.0,0.0,0.0,0.0,0.0,0.0,0.0,0.0,0.0,0.0,0.0,0.0,0.0,0.0,0.0,0.0,0.0,0.0,0.0,0.0,0.0,0.0,-0.402072638273,-9.17902374268,0.470719188452,0.0,0.0,0.0,0.0,0.0,0.0,0.0,0.0,0.0
1123936000,93886,1644542238947638750,1,0.0,0.0,0.0,0.0,0.0,0.0,0.0,0.0,0.0,0.0,0.0,0.0,0.0,0.0,0.0,0.0,0.0,0.0,0.0,0.0,0.0,0.0,0.0,0.0,0.0,-0.12748645246,-9.81645679474,0.549172401428,0.0,0.0,0.0,0.0,0.0,0.0,0.0,0.0,0.0
1126001100,93887,1644542238949652672,1,0.0,0.0,0.0,0.0,0.0,0.0,0.0,0.0,0.0,0.0,0.0,0.0,0.0,0.0,0.0,0.0,0.0,0.0,0.0,0.0,0.0,0.0,0.0,0.0,0.0,-0.38245934248,-9.7478094101,0.470719188452,0.0,0.0,0.0,0.0,0.0,0.0,0.0,0.0,0.0
1127958600,93888,1644542238951668739,1,0.0,0.0,0.0,0.0,0.0,0.0,0.0,0.0,0.0,0.0,0.0,0.0,0.0,0.0,0.0,0.0,0.0,0.0,0.0,0.0,0.0,0.0,0.0,0.0,0.0,-0.402072638273,-9.58109664917,0.725692093372,0.0,0.0,0.0,0.0,0.0,0.0,0.0,0.0,0.0
1129967700,93889,1644542238953682899,1,0.0,0.0,0.0,0.0,0.0,0.0,0.0,0.0,0.0,0.0,0.0,0.0,0.0,0.0,0.0,0.0,0.0,0.0,0.0,0.0,0.0,0.0,0.0,0.0,0.0,-0.343232750893,-9.30651092529,0.490332484245,0.0,0.0,0.0,0.0,0.0,0.0,0.0,0.0,0.0
1132072100,93890,1644542238955696821,1,0.0,0.0,0.0,0.0,0.0,0.0,0.0,0.0,0.0,0.0,0.0,0.0,0.0,0.0,0.0,0.0,0.0,0.0,0.0,0.0,0.0,0.0,0.0,0.0,0.0,-0.362846046686,-9.7478094101,0.912018418312,0.0,0.0,0.0,0.0,0.0,0.0,0.0,0.0,0.0
1134080200,93891,1644542238957712889,1,0.0,0.0,0.0,0.0,0.0,0.0,0.0,0.0,0.0,0.0,0.0,0.0,0.0,0.0,0.0,0.0,0.0,0.0,0.0,0.0,0.0,0.0,0.0,0.0,0.0,-0.176519691944,-9.62032318115,0.686465501785,0.0,0.0,0.0,0.0,0.0,0.0,0.0,0.0,0.0
1135956900,93892,1644542238959726810,1,0.0,0.0,0.0,0.0,0.0,0.0,0.0,0.0,0.0,0.0,0.0,0.0,0.0,0.0,0.0,0.0,0.0,0.0,0.0,0.0,0.0,0.0,0.0,0.0,0.0,-0.0980664938688,-9.42419052124,0.598205626011,0.0,0.0,0.0,0.0,0.0,0.0,0.0,0.0,0.0
1137911300,93893,1644542238961742878,1,0.0,0.0,0.0,0.0,0.0,0.0,0.0,0.0,0.0,0.0,0.0,0.0,0.0,0.0,0.0,0.0,0.0,0.0,0.0,0.0,0.0,0.0,0.0,0.0,0.0,-0.294199496508,-9.67916297913,0.961051702499,0.0,0.0,0.0,0.0,0.0,0.0,0.0,0.0,0.0
1139978000,93894,1644542238963756800,1,0.0,0.0,0.0,0.0,0.0,0.0,0.0,0.0,0.0,0.0,0.0,0.0,0.0,0.0,0.0,0.0,0.0,0.0,0.0,0.0,0.0,0.0,0.0,0.0,0.0,-0.343232750893,-9.39477062225,0.627625584602,0.0,0.0,0.0,0.0,0.0,0.0,0.0,0.0,0.0
1142095700,93895,1644542238965770960,1,0.0,0.0,0.0,0.0,0.0,0.0,0.0,0.0,0.0,0.0,0.0,0.0,0.0,0.0,0.0,0.0,0.0,0.0,0.0,0.0,0.0,0.0,0.0,0.0,0.0,-0.264779537916,-9.49283695221,0.666852176189,0.0,0.0,0.0,0.0,0.0,0.0,0.0,0.0,0.0
1144000500,93896,1644542238967784882,1,0.0,0.0,0.0,0.0,0.0,0.0,0.0,0.0,0.0,0.0,0.0,0.0,0.0,0.0,0.0,0.0,0.0,0.0,0.0,0.0,0.0,0.0,0.0,0.0,0.0,-0.0392265990376,-9.88510322571,0.804145276546,0.0,0.0,0.0,0.0,0.0,0.0,0.0,0.0,0.0
1146033600,93897,1644542238969800949,1,0.0,0.0,0.0,0.0,0.0,0.0,0.0,0.0,0.0,0.0,0.0,0.0,0.0,0.0,0.0,0.0,0.0,0.0,0.0,0.0,0.0,0.0,0.0,0.0,0.0,-0.294199496508,-9.80665016174,1.01008486748,0.0,0.0,0.0,0.0,0.0,0.0,0.0,0.0,0.0
1148092500,93898,1644542238971814871,1,0.0,0.0,0.0,0.0,0.0,0.0,0.0,0.0,0.0,0.0,0.0,0.0,0.0,0.0,0.0,0.0,0.0,0.0,0.0,0.0,0.0,0.0,0.0,0.0,0.0,-0.57859236002,-9.78703689575,1.01008486748,0.0,0.0,0.0,0.0,0.0,0.0,0.0,0.0,0.0
1150086800,93899,1644542238973829031,1,0.0,0.0,0.0,0.0,0.0,0.0,0.0,0.0,0.0,0.0,0.0,0.0,0.0,0.0,0.0,0.0,0.0,0.0,0.0,0.0,0.0,0.0,0.0,0.0,0.0,-0.833565235138,-9.5222568512,0.725692093372,0.0,0.0,0.0,0.0,0.0,0.0,0.0,0.0,0.0
1152390600,93900,1644542238975844860,1,0.0,0.0,0.0,0.0,0.0,0.0,0.0,0.0,0.0,0.0,0.0,0.0,0.0,0.0,0.0,0.0,0.0,0.0,0.0,0.0,0.0,0.0,0.0,0.0,0.0,-1.01989161968,-9.39477062225,0.990471601486,0.0,0.0,0.0,0.0,0.0,0.0,0.0,0.0,0.0
1154411600,93901,1644542238977859020,1,0.0,0.0,0.0,0.0,0.0,0.0,0.0,0.0,0.0,0.0,0.0,0.0,0.0,0.0,0.0,0.0,0.0,0.0,0.0,0.0,0.0,0.0,0.0,0.0,0.0,-0.166713044047,-10.5421485901,1.31409108639,0.0,0.0,0.0,0.0,0.0,0.0,0.0,0.0,0.0
1156058600,93902,1644542238979872942,1,0.0,0.0,0.0,0.0,0.0,0.0,0.0,0.0,0.0,0.0,0.0,0.0,0.0,0.0,0.0,0.0,0.0,0.0,0.0,0.0,0.0,0.0,0.0,0.0,0.0,-1.33370435238,-9.5222568512,1.04931151867,0.0,0.0,0.0,0.0,0.0,0.0,0.0,0.0,0.0
1158263800,93903,1644542238981889248,1,0.0,0.0,0.0,0.0,0.0,0.0,0.0,0.0,0.0,0.0,0.0,0.0,0.0,0.0,0.0,0.0,0.0,0.0,0.0,0.0,0.0,0.0,0.0,0.0,0.0,-0.529559075832,-9.34573745728,0.951245009899,0.0,0.0,0.0,0.0,0.0,0.0,0.0,0.0,0.0
1160295900,93904,1644542238983903408,1,0.0,0.0,0.0,0.0,0.0,0.0,0.0,0.0,0.0,0.0,0.0,0.0,0.0,0.0,0.0,0.0,0.0,0.0,0.0,0.0,0.0,0.0,0.0,0.0,0.0,-1.01008486748,-9.24767112732,0.402072638273,0.0,0.0,0.0,0.0,0.0,0.0,0.0,0.0,0.0
1162378200,93905,1644542238985917330,1,0.0,0.0,0.0,0.0,0.0,0.0,0.0,0.0,0.0,0.0,0.0,0.0,0.0,0.0,0.0,0.0,0.0,0.0,0.0,0.0,0.0,0.0,0.0,0.0,0.0,-0.774725317955,-9.88510322571,0.804145276546,0.0,0.0,0.0,0.0,0.0,0.0,0.0,0.0,0.0
1164388100,93906,1644542238987933397,1,0.0,0.0,0.0,0.0,0.0,0.0,0.0,0.0,0.0,0.0,0.0,0.0,0.0,0.0,0.0,0.0,0.0,0.0,0.0,0.0,0.0,0.0,0.0,0.0,0.0,-1.70635700226,-11.6895265579,3.47155404091,0.0,0.0,0.0,0.0,0.0,0.0,0.0,0.0,0.0
1166322700,93907,1644542238989947319,1,0.0,0.0,0.0,0.0,0.0,0.0,0.0,0.0,0.0,0.0,0.0,0.0,0.0,0.0,0.0,0.0,0.0,0.0,0.0,0.0,0.0,0.0,0.0,0.0,0.0,-1.97113656998,-9.75761604309,2.12804293633,0.0,0.0,0.0,0.0,0.0,0.0,0.0,0.0,0.0
1168187000,93908,1644542238991961479,1,0.0,0.0,0.0,0.0,0.0,0.0,0.0,0.0,0.0,0.0,0.0,0.0,0.0,0.0,0.0,0.0,0.0,0.0,0.0,0.0,0.0,0.0,0.0,0.0,0.0,-1.95152330399,-6.80581474304,1.09834480286,0.0,0.0,0.0,0.0,0.0,0.0,0.0,0.0,0.0
1170170600,93909,1644542238993977308,1,0.0,0.0,0.0,0.0,0.0,0.0,0.0,0.0,0.0,0.0,0.0,0.0,0.0,0.0,0.0,0.0,0.0,0.0,0.0,0.0,0.0,0.0,0.0,0.0,0.0,-1.20621788502,-9.86548995972,2.09862303734,0.0,0.0,0.0,0.0,0.0,0.0,0.0,0.0,0.0
1172195200,93910,1644542238995991468,1,0.0,0.0,0.0,0.0,0.0,0.0,0.0,0.0,0.0,0.0,0.0,0.0,0.0,0.0,0.0,0.0,0.0,0.0,0.0,0.0,0.0,0.0,0.0,0.0,0.0,-0.990471601486,-8.99269771576,1.60829055309,0.0,0.0,0.0,0.0,0.0,0.0,0.0,0.0,0.0
1174352600,93911,1644542238998007298,1,0.0,0.0,0.0,0.0,0.0,0.0,0.0,0.0,0.0,0.0,0.0,0.0,0.0,0.0,0.0,0.0,0.0,0.0,0.0,0.0,0.0,0.0,0.0,0.0,0.0,-0.245166242123,-9.21825122833,1.54945063591,0.0,0.0,0.0,0.0,0.0,0.0,0.0,0.0,0.0
1176296300,93912,1644542239000021458,1,0.0,0.0,0.0,0.0,0.0,0.0,0.0,0.0,0.0,0.0,0.0,0.0,0.0,0.0,0.0,0.0,0.0,0.0,0.0,0.0,0.0,0.0,0.0,0.0,0.0,-0.627625584602,-9.70858287811,1.70635700226,0.0,0.0,0.0,0.0,0.0,0.0,0.0,0.0,0.0
1178215900,93913,1644542239002037525,1,0.0,0.0,0.0,0.0,0.0,0.0,0.0,0.0,0.0,0.0,0.0,0.0,0.0,0.0,0.0,0.0,0.0,0.0,0.0,0.0,0.0,0.0,0.0,0.0,0.0,-0.402072638273,-9.66935634613,1.04931151867,0.0,0.0,0.0,0.0,0.0,0.0,0.0,0.0,0.0
1180419800,93914,1644542239004053354,1,0.0,0.0,0.0,0.0,0.0,0.0,0.0,0.0,0.0,0.0,0.0,0.0,0.0,0.0,0.0,0.0,0.0,0.0,0.0,0.0,0.0,0.0,0.0,0.0,0.0,0.0784531980753,-8.84559822083,1.05911815166,0.0,0.0,0.0,0.0,0.0,0.0,0.0,0.0,0.0
1182333100,93915,1644542239006067514,1,0.0,0.0,0.0,0.0,0.0,0.0,0.0,0.0,0.0,0.0,0.0,0.0,0.0,0.0,0.0,0.0,0.0,0.0,0.0,0.0,0.0,0.0,0.0,0.0,0.0,0.225552946329,-9.96355628967,1.28467106819,0.0,0.0,0.0,0.0,0.0,0.0,0.0,0.0,0.0
1184771600,93916,1644542239008081436,1,0.0,0.0,0.0,0.0,0.0,0.0,0.0,0.0,0.0,0.0,0.0,0.0,0.0,0.0,0.0,0.0,0.0,0.0,0.0,0.0,0.0,0.0,0.0,0.0,0.0,0.245166242123,-9.42419052124,1.22583127022,0.0,0.0,0.0,0.0,0.0,0.0,0.0,0.0,0.0
1186359300,93917,1644542239010097742,1,0.0,0.0,0.0,0.0,0.0,0.0,0.0,0.0,0.0,0.0,0.0,0.0,0.0,0.0,0.0,0.0,0.0,0.0,0.0,0.0,0.0,0.0,0.0,0.0,0.0,0.451105892658,-10.3656291962,1.60829055309,0.0,0.0,0.0,0.0,0.0,0.0,0.0,0.0,0.0
1188733300,93918,1644542239012111664,1,0.0,0.0,0.0,0.0,0.0,0.0,0.0,0.0,0.0,0.0,0.0,0.0,0.0,0.0,0.0,0.0,0.0,0.0,0.0,0.0,0.0,0.0,0.0,0.0,0.0,0.225552946329,-9.7478094101,1.2650578022,0.0,0.0,0.0,0.0,0.0,0.0,0.0,0.0,0.0
1190281700,93919,1644542239014125824,1,0.0,0.0,0.0,0.0,0.0,0.0,0.0,0.0,0.0,0.0,0.0,0.0,0.0,0.0,0.0,0.0,0.0,0.0,0.0,0.0,0.0,0.0,0.0,0.0,0.0,0.402072638273,-9.91452312469,1.48080408573,0.0,0.0,0.0,0.0,0.0,0.0,0.0,0.0,0.0
1192227300,93920,1644542239016141653,1,0.0,0.0,0.0,0.0,0.0,0.0,0.0,0.0,0.0,0.0,0.0,0.0,0.0,0.0,0.0,0.0,0.0,0.0,0.0,0.0,0.0,0.0,0.0,0.0,0.0,0.176519691944,-9.45361042023,1.48080408573,0.0,0.0,0.0,0.0,0.0,0.0,0.0,0.0,0.0
1194944700,93921,1644542239018155813,1,0.0,0.0,0.0,0.0,0.0,0.0,0.0,0.0,0.0,0.0,0.0,0.0,0.0,0.0,0.0,0.0,0.0,0.0,0.0,0.0,0.0,0.0,0.0,0.0,0.0,0.137293100357,-9.42419052124,1.52983736992,0.0,0.0,0.0,0.0,0.0,0.0,0.0,0.0,0.0
1196568900,93922,1644542239020169735,1,0.0,0.0,0.0,0.0,0.0,0.0,0.0,0.0,0.0,0.0,0.0,0.0,0.0,0.0,0.0,0.0,0.0,0.0,0.0,0.0,0.0,0.0,0.0,0.0,0.0,0.176519691944,-9.8949098587,2.09862303734,0.0,0.0,0.0,0.0,0.0,0.0,0.0,0.0,0.0
1199007700,93923,1644542239022183895,1,0.0,0.0,0.0,0.0,0.0,0.0,0.0,0.0,0.0,0.0,0.0,0.0,0.0,0.0,0.0,0.0,0.0,0.0,0.0,0.0,0.0,0.0,0.0,0.0,0.0,0.38245934248,-9.42419052124,1.60829055309,0.0,0.0,0.0,0.0,0.0,0.0,0.0,0.0,0.0
1200472900,93924,1644542239024197817,1,0.0,0.0,0.0,0.0,0.0,0.0,0.0,0.0,0.0,0.0,0.0,0.0,0.0,0.0,0.0,0.0,0.0,0.0,0.0,0.0,0.0,0.0,0.0,0.0,0.0,-0.0294199492782,-9.35554409027,1.2552511692,0.0,0.0,0.0,0.0,0.0,0.0,0.0,0.0,0.0
1202461000,93925,1644542239026213884,1,0.0,0.0,0.0,0.0,0.0,0.0,0.0,0.0,0.0,0.0,0.0,0.0,0.0,0.0,0.0,0.0,0.0,0.0,0.0,0.0,0.0,0.0,0.0,0.0,0.0,-0.313812792301,-9.25747776031,1.63771045208,0.0,0.0,0.0,0.0,0.0,0.0,0.0,0.0,0.0
1204556300,93926,1644542239028228045,1,0.0,0.0,0.0,0.0,0.0,0.0,0.0,0.0,0.0,0.0,0.0,0.0,0.0,0.0,0.0,0.0,0.0,0.0,0.0,0.0,0.0,0.0,0.0,0.0,0.0,-0.274586200714,-9.39477062225,2.04958987236,0.0,0.0,0.0,0.0,0.0,0.0,0.0,0.0,0.0
1206635500,93927,1644542239030241966,1,0.0,0.0,0.0,0.0,0.0,0.0,0.0,0.0,0.0,0.0,0.0,0.0,0.0,0.0,0.0,0.0,0.0,0.0,0.0,0.0,0.0,0.0,0.0,0.0,0.0,-0.451105892658,-9.1201839447,1.78481030464,0.0,0.0,0.0,0.0,0.0,0.0,0.0,0.0,0.0
1208490400,93928,1644542239032258034,1,0.0,0.0,0.0,0.0,0.0,0.0,0.0,0.0,0.0,0.0,0.0,0.0,0.0,0.0,0.0,0.0,0.0,0.0,0.0,0.0,0.0,0.0,0.0,0.0,0.0,-0.558979034424,-9.7478094101,1.40235090256,0.0,0.0,0.0,0.0,0.0,0.0,0.0,0.0,0.0
1210557000,93929,1644542239034271955,1,0.0,0.0,0.0,0.0,0.0,0.0,0.0,0.0,0.0,0.0,0.0,0.0,0.0,0.0,0.0,0.0,0.0,0.0,0.0,0.0,0.0,0.0,0.0,0.0,0.0,-0.313812792301,-9.5222568512,1.24544453621,0.0,0.0,0.0,0.0,0.0,0.0,0.0,0.0,0.0
1212951400,93930,1644542239036288023,1,0.0,0.0,0.0,0.0,0.0,0.0,0.0,0.0,0.0,0.0,0.0,0.0,0.0,0.0,0.0,0.0,0.0,0.0,0.0,0.0,0.0,0.0,0.0,0.0,0.0,0.666852176189,-10.83634758,0.833565235138,0.0,0.0,0.0,0.0,0.0,0.0,0.0,0.0,0.0
1215016600,93931,1644542239038300037,1,0.0,0.0,0.0,0.0,0.0,0.0,0.0,0.0,0.0,0.0,0.0,0.0,0.0,0.0,0.0,0.0,0.0,0.0,0.0,0.0,0.0,0.0,0.0,0.0,0.0,0.176519691944,-10.1596889496,-0.166713044047,0.0,0.0,0.0,0.0,0.0,0.0,0.0,0.0,0.0
1216746100,93932,1644542239040316105,1,0.0,0.0,0.0,0.0,0.0,0.0,0.0,0.0,0.0,0.0,0.0,0.0,0.0,0.0,0.0,0.0,0.0,0.0,0.0,0.0,0.0,0.0,0.0,0.0,0.0,-0.274586200714,-9.67916297913,0.57859236002,0.0,0.0,0.0,0.0,0.0,0.0,0.0,0.0,0.0
1218976900,93933,1644542239042330027,1,0.0,0.0,0.0,0.0,0.0,0.0,0.0,0.0,0.0,0.0,0.0,0.0,0.0,0.0,0.0,0.0,0.0,0.0,0.0,0.0,0.0,0.0,0.0,0.0,0.0,-0.696272134781,-9.58109664917,0.813951909542,0.0,0.0,0.0,0.0,0.0,0.0,0.0,0.0,0.0
1220608300,93934,1644542239044344187,1,0.0,0.0,0.0,0.0,0.0,0.0,0.0,0.0,0.0,0.0,0.0,0.0,0.0,0.0,0.0,0.0,0.0,0.0,0.0,0.0,0.0,0.0,0.0,0.0,0.0,-1.01008486748,-9.62032318115,1.01008486748,0.0,0.0,0.0,0.0,0.0,0.0,0.0,0.0,0.0
1222519700,93935,1644542239046360016,1,0.0,0.0,0.0,0.0,0.0,0.0,0.0,0.0,0.0,0.0,0.0,0.0,0.0,0.0,0.0,0.0,0.0,0.0,0.0,0.0,0.0,0.0,0.0,0.0,0.0,-1.13757133484,-9.38496398926,1.08853816986,0.0,0.0,0.0,0.0,0.0,0.0,0.0,0.0,0.0
1224484400,93936,1644542239048374176,1,0.0,0.0,0.0,0.0,0.0,0.0,0.0,0.0,0.0,0.0,0.0,0.0,0.0,0.0,0.0,0.0,0.0,0.0,0.0,0.0,0.0,0.0,0.0,0.0,0.0,-1.17679798603,-9.67916297913,0.764918684959,0.0,0.0,0.0,0.0,0.0,0.0,0.0,0.0,0.0
1226394400,93937,1644542239050388098,1,0.0,0.0,0.0,0.0,0.0,0.0,0.0,0.0,0.0,0.0,0.0,0.0,0.0,0.0,0.0,0.0,0.0,0.0,0.0,0.0,0.0,0.0,0.0,0.0,0.0,-1.01008486748,-9.62032318115,0.598205626011,0.0,0.0,0.0,0.0,0.0,0.0,0.0,0.0,0.0
1228841400,93938,1644542239052404404,1,0.0,0.0,0.0,0.0,0.0,0.0,0.0,0.0,0.0,0.0,0.0,0.0,0.0,0.0,0.0,0.0,0.0,0.0,0.0,0.0,0.0,0.0,0.0,0.0,0.0,-1.09834480286,-9.67916297913,0.0392265990376,0.0,0.0,0.0,0.0,0.0,0.0,0.0,0.0,0.0
1230745400,93939,1644542239054418564,1,0.0,0.0,0.0,0.0,0.0,0.0,0.0,0.0,0.0,0.0,0.0,0.0,0.0,0.0,0.0,0.0,0.0,0.0,0.0,0.0,0.0,0.0,0.0,0.0,0.0,-1.20621788502,-9.53206348419,0.549172401428,0.0,0.0,0.0,0.0,0.0,0.0,0.0,0.0,0.0
1232682200,93940,1644542239056432486,1,0.0,0.0,0.0,0.0,0.0,0.0,0.0,0.0,0.0,0.0,0.0,0.0,0.0,0.0,0.0,0.0,0.0,0.0,0.0,0.0,0.0,0.0,0.0,0.0,0.0,-1.52983736992,-9.20844459534,0.294199496508,0.0,0.0,0.0,0.0,0.0,0.0,0.0,0.0,0.0
1234640700,93941,1644542239058448553,1,0.0,0.0,0.0,0.0,0.0,0.0,0.0,0.0,0.0,0.0,0.0,0.0,0.0,0.0,0.0,0.0,0.0,0.0,0.0,0.0,0.0,0.0,0.0,0.0,0.0,-1.5886772871,-9.67916297913,0.490332484245,0.0,0.0,0.0,0.0,0.0,0.0,0.0,0.0,0.0
1236696300,93942,1644542239060462475,1,0.0,0.0,0.0,0.0,0.0,0.0,0.0,0.0,0.0,0.0,0.0,0.0,0.0,0.0,0.0,0.0,0.0,0.0,0.0,0.0,0.0,0.0,0.0,0.0,0.0,-1.39254426956,-9.57129001617,0.470719188452,0.0,0.0,0.0,0.0,0.0,0.0,0.0,0.0,0.0
1238778800,93943,1644542239062476635,1,0.0,0.0,0.0,0.0,0.0,0.0,0.0,0.0,0.0,0.0,0.0,0.0,0.0,0.0,0.0,0.0,0.0,0.0,0.0,0.0,0.0,0.0,0.0,0.0,0.0,-1.50041747093,-9.81645679474,0.402072638273,0.0,0.0,0.0,0.0,0.0,0.0,0.0,0.0,0.0
1241022800,93944,1644542239064492464,1,0.0,0.0,0.0,0.0,0.0,0.0,0.0,0.0,0.0,0.0,0.0,0.0,0.0,0.0,0.0,0.0,0.0,0.0,0.0,0.0,0.0,0.0,0.0,0.0,0.0,-1.45138418674,-9.56148338318,0.196132987738,0.0,0.0,0.0,0.0,0.0,0.0,0.0,0.0,0.0
1242705800,93945,1644542239066506624,1,0.0,0.0,0.0,0.0,0.0,0.0,0.0,0.0,0.0,0.0,0.0,0.0,0.0,0.0,0.0,0.0,0.0,0.0,0.0,0.0,0.0,0.0,0.0,0.0,0.0,-1.01989161968,-9.7478094101,0.0294199492782,0.0,0.0,0.0,0.0,0.0,0.0,0.0,0.0,0.0
1244690100,93946,1644542239068520546,1,0.0,0.0,0.0,0.0,0.0,0.0,0.0,0.0,0.0,0.0,0.0,0.0,0.0,0.0,0.0,0.0,0.0,0.0,0.0,0.0,0.0,0.0,0.0,0.0,0.0,-0.813951909542,-9.80665016174,0.0,0.0,0.0,0.0,0.0,0.0,0.0,0.0,0.0,0.0
1246679900,93947,1644542239070536613,1,0.0,0.0,0.0,0.0,0.0,0.0,0.0,0.0,0.0,0.0,0.0,0.0,0.0,0.0,0.0,0.0,0.0,0.0,0.0,0.0,0.0,0.0,0.0,0.0,0.0,-1.17679798603,-9.81645679474,0.245166242123,0.0,0.0,0.0,0.0,0.0,0.0,0.0,0.0,0.0
1248824200,93948,1644542239072550774,1,0.0,0.0,0.0,0.0,0.0,0.0,0.0,0.0,0.0,0.0,0.0,0.0,0.0,0.0,0.0,0.0,0.0,0.0,0.0,0.0,0.0,0.0,0.0,0.0,0.0,-1.42196416855,-9.17902374268,0.490332484245,0.0,0.0,0.0,0.0,0.0,0.0,0.0,0.0,0.0
1250815800,93949,1644542239074566603,1,0.0,0.0,0.0,0.0,0.0,0.0,0.0,0.0,0.0,0.0,0.0,0.0,0.0,0.0,0.0,0.0,0.0,0.0,0.0,0.0,0.0,0.0,0.0,0.0,0.0,-0.951245009899,-9.81645679474,0.402072638273,0.0,0.0,0.0,0.0,0.0,0.0,0.0,0.0,0.0
1252810100,93950,1644542239076580763,1,0.0,0.0,0.0,0.0,0.0,0.0,0.0,0.0,0.0,0.0,0.0,0.0,0.0,0.0,0.0,0.0,0.0,0.0,0.0,0.0,0.0,0.0,0.0,0.0,0.0,-1.01008486748,-10.0910425186,0.264779537916,0.0,0.0,0.0,0.0,0.0,0.0,0.0,0.0,0.0
1255255400,93951,1644542239078594685,1,0.0,0.0,0.0,0.0,0.0,0.0,0.0,0.0,0.0,0.0,0.0,0.0,0.0,0.0,0.0,0.0,0.0,0.0,0.0,0.0,0.0,0.0,0.0,0.0,0.0,-1.63771045208,-9.24767112732,0.264779537916,0.0,0.0,0.0,0.0,0.0,0.0,0.0,0.0,0.0
1256710500,93952,1644542239080610752,1,0.0,0.0,0.0,0.0,0.0,0.0,0.0,0.0,0.0,0.0,0.0,0.0,0.0,0.0,0.0,0.0,0.0,0.0,0.0,0.0,0.0,0.0,0.0,0.0,0.0,-1.47099745274,-9.57129001617,0.274586200714,0.0,0.0,0.0,0.0,0.0,0.0,0.0,0.0,0.0
1259164800,93953,1644542239082624674,1,0.0,0.0,0.0,0.0,0.0,0.0,0.0,0.0,0.0,0.0,0.0,0.0,0.0,0.0,0.0,0.0,0.0,0.0,0.0,0.0,0.0,0.0,0.0,0.0,0.0,-0.882598459721,-9.86548995972,0.0686465501785,0.0,0.0,0.0,0.0,0.0,0.0,0.0,0.0,0.0
1260985000,93954,1644542239084638834,1,0.0,0.0,0.0,0.0,0.0,0.0,0.0,0.0,0.0,0.0,0.0,0.0,0.0,0.0,0.0,0.0,0.0,0.0,0.0,0.0,0.0,0.0,0.0,0.0,0.0,-1.45138418674,-9.96355628967,0.0294199492782,0.0,0.0,0.0,0.0,0.0,0.0,0.0,0.0,0.0
1263082100,93955,1644542239086652756,1,0.0,0.0,0.0,0.0,0.0,0.0,0.0,0.0,0.0,0.0,0.0,0.0,0.0,0.0,0.0,0.0,0.0,0.0,0.0,0.0,0.0,0.0,0.0,0.0,0.0,-2.12804293633,-8.98289108276,-0.0294199492782,0.0,0.0,0.0,0.0,0.0,0.0,0.0,0.0,0.0
1264986400,93956,1644542239088666916,1,0.0,0.0,0.0,0.0,0.0,0.0,0.0,0.0,0.0,0.0,0.0,0.0,0.0,0.0,0.0,0.0,0.0,0.0,0.0,0.0,0.0,0.0,0.0,0.0,0.0,-1.73577702045,-9.1201839447,-0.176519691944,0.0,0.0,0.0,0.0,0.0,0.0,0.0,0.0,0.0
1266937900,93957,1644542239090680838,1,0.0,0.0,0.0,0.0,0.0,0.0,0.0,0.0,0.0,0.0,0.0,0.0,0.0,0.0,0.0,0.0,0.0,0.0,0.0,0.0,0.0,0.0,0.0,0.0,0.0,-1.09834480286,-10.0125894547,-0.274586200714,0.0,0.0,0.0,0.0,0.0,0.0,0.0,0.0,0.0
1269144400,93958,1644542239092696905,1,0.0,0.0,0.0,0.0,0.0,0.0,0.0,0.0,0.0,0.0,0.0,0.0,0.0,0.0,0.0,0.0,0.0,0.0,0.0,0.0,0.0,0.0,0.0,0.0,0.0,-1.17679798603,-9.83607006073,-0.264779537916,0.0,0.0,0.0,0.0,0.0,0.0,0.0,0.0,0.0
1271068100,93959,1644542239094711065,1,0.0,0.0,0.0,0.0,0.0,0.0,0.0,0.0,0.0,0.0,0.0,0.0,0.0,0.0,0.0,0.0,0.0,0.0,0.0,0.0,0.0,0.0,0.0,0.0,0.0,-1.61809718609,-9.38496398926,-0.00980664975941,0.0,0.0,0.0,0.0,0.0,0.0,0.0,0.0,0.0
1272863900,93960,1644542239096727133,1,0.0,0.0,0.0,0.0,0.0,0.0,0.0,0.0,0.0,0.0,0.0,0.0,0.0,0.0,0.0,0.0,0.0,0.0,0.0,0.0,0.0,0.0,0.0,0.0,0.0,-1.47099745274,-9.20844459534,-0.0686465501785,0.0,0.0,0.0,0.0,0.0,0.0,0.0,0.0,0.0
1274912100,93961,1644542239098741293,1,0.0,0.0,0.0,0.0,0.0,0.0,0.0,0.0,0.0,0.0,0.0,0.0,0.0,0.0,0.0,0.0,0.0,0.0,0.0,0.0,0.0,0.0,0.0,0.0,0.0,-1.01989161968,-9.78703689575,-0.0980664938688,0.0,0.0,0.0,0.0,0.0,0.0,0.0,0.0,0.0
1277529500,93962,1644542239100757360,1,0.0,0.0,0.0,0.0,0.0,0.0,0.0,0.0,0.0,0.0,0.0,0.0,0.0,0.0,0.0,0.0,0.0,0.0,0.0,0.0,0.0,0.0,0.0,0.0,0.0,-1.2650578022,-10.1891088486,-0.225552946329,0.0,0.0,0.0,0.0,0.0,0.0,0.0,0.0,0.0
1279135400,93963,1644542239102771282,1,0.0,0.0,0.0,0.0,0.0,0.0,0.0,0.0,0.0,0.0,0.0,0.0,0.0,0.0,0.0,0.0,0.0,0.0,0.0,0.0,0.0,0.0,0.0,0.0,0.0,-1.67693710327,-9.24767112732,-0.0784531980753,0.0,0.0,0.0,0.0,0.0,0.0,0.0,0.0,0.0
1281132100,93964,1644542239104785442,1,0.0,0.0,0.0,0.0,0.0,0.0,0.0,0.0,0.0,0.0,0.0,0.0,0.0,0.0,0.0,0.0,0.0,0.0,0.0,0.0,0.0,0.0,0.0,0.0,0.0,-1.50041747093,-9.42419052124,-0.137293100357,0.0,0.0,0.0,0.0,0.0,0.0,0.0,0.0,0.0
1283040600,93965,1644542239106801271,1,0.0,0.0,0.0,0.0,0.0,0.0,0.0,0.0,0.0,0.0,0.0,0.0,0.0,0.0,0.0,0.0,0.0,0.0,0.0,0.0,0.0,0.0,0.0,0.0,0.0,-1.12776470184,-9.70858287811,-0.00980664975941,0.0,0.0,0.0,0.0,0.0,0.0,0.0,0.0,0.0
1284990100,93966,1644542239108815432,1,0.0,0.0,0.0,0.0,0.0,0.0,0.0,0.0,0.0,0.0,0.0,0.0,0.0,0.0,0.0,0.0,0.0,0.0,0.0,0.0,0.0,0.0,0.0,0.0,0.0,-1.05911815166,-9.83607006073,-0.0784531980753,0.0,0.0,0.0,0.0,0.0,0.0,0.0,0.0,0.0
1286933500,93967,1644542239110831261,1,0.0,0.0,0.0,0.0,0.0,0.0,0.0,0.0,0.0,0.0,0.0,0.0,0.0,0.0,0.0,0.0,0.0,0.0,0.0,0.0,0.0,0.0,0.0,0.0,0.0,-1.33370435238,-9.91452312469,-0.0686465501785,0.0,0.0,0.0,0.0,0.0,0.0,0.0,0.0,0.0
1289088300,93968,1644542239112845421,1,0.0,0.0,0.0,0.0,0.0,0.0,0.0,0.0,0.0,0.0,0.0,0.0,0.0,0.0,0.0,0.0,0.0,0.0,0.0,0.0,0.0,0.0,0.0,0.0,0.0,-1.97113656998,-9.57129001617,-0.313812792301,0.0,0.0,0.0,0.0,0.0,0.0,0.0,0.0,0.0
1290985500,93969,1644542239114859343,1,0.0,0.0,0.0,0.0,0.0,0.0,0.0,0.0,0.0,0.0,0.0,0.0,0.0,0.0,0.0,0.0,0.0,0.0,0.0,0.0,0.0,0.0,0.0,0.0,0.0,-1.83384346962,-8.98289108276,-0.804145276546,0.0,0.0,0.0,0.0,0.0,0.0,0.0,0.0,0.0
1293118700,93970,1644542239116875410,1,0.0,0.0,0.0,0.0,0.0,0.0,0.0,0.0,0.0,0.0,0.0,0.0,0.0,0.0,0.0,0.0,0.0,0.0,0.0,0.0,0.0,0.0,0.0,0.0,0.0,-1.5886772871,-10.2087221146,1.45138418674,0.0,0.0,0.0,0.0,0.0,0.0,0.0,0.0,0.0
1294936700,93971,1644542239118891716,1,0.0,0.0,0.0,0.0,0.0,0.0,0.0,0.0,0.0,0.0,0.0,0.0,0.0,0.0,0.0,0.0,0.0,0.0,0.0,0.0,0.0,0.0,0.0,0.0,0.0,-2.04958987236,-9.34573745728,0.666852176189,0.0,0.0,0.0,0.0,0.0,0.0,0.0,0.0,0.0
1297185400,93972,1644542239120905399,1,0.0,0.0,0.0,0.0,0.0,0.0,0.0,0.0,0.0,0.0,0.0,0.0,0.0,0.0,0.0,0.0,0.0,0.0,0.0,0.0,0.0,0.0,0.0,0.0,0.0,-1.73577702045,-9.16921710968,0.598205626011,0.0,0.0,0.0,0.0,0.0,0.0,0.0,0.0,0.0
1299174800,93973,1644542239122919559,1,0.0,0.0,0.0,0.0,0.0,0.0,0.0,0.0,0.0,0.0,0.0,0.0,0.0,0.0,0.0,0.0,0.0,0.0,0.0,0.0,0.0,0.0,0.0,0.0,0.0,-1.33370435238,-9.64974308014,0.558979034424,0.0,0.0,0.0,0.0,0.0,0.0,0.0,0.0,0.0
1301473800,93974,1644542239124935865,1,0.0,0.0,0.0,0.0,0.0,0.0,0.0,0.0,0.0,0.0,0.0,0.0,0.0,0.0,0.0,0.0,0.0,0.0,0.0,0.0,0.0,0.0,0.0,0.0,0.0,-1.05911815166,-9.45361042023,0.313812792301,0.0,0.0,0.0,0.0,0.0,0.0,0.0,0.0,0.0
1303227700,93975,1644542239126949787,1,0.0,0.0,0.0,0.0,0.0,0.0,0.0,0.0,0.0,0.0,0.0,0.0,0.0,0.0,0.0,0.0,0.0,0.0,0.0,0.0,0.0,0.0,0.0,0.0,0.0,-0.343232750893,-9.75761604309,0.225552946329,0.0,0.0,0.0,0.0,0.0,0.0,0.0,0.0,0.0
1305207700,93976,1644542239128963947,1,0.0,0.0,0.0,0.0,0.0,0.0,0.0,0.0,0.0,0.0,0.0,0.0,0.0,0.0,0.0,0.0,0.0,0.0,0.0,0.0,0.0,0.0,0.0,0.0,0.0,-0.666852176189,-10.0322027206,0.0294199492782,0.0,0.0,0.0,0.0,0.0,0.0,0.0,0.0,0.0
1307265600,93977,1644542239130979776,1,0.0,0.0,0.0,0.0,0.0,0.0,0.0,0.0,0.0,0.0,0.0,0.0,0.0,0.0,0.0,0.0,0.0,0.0,0.0,0.0,0.0,0.0,0.0,0.0,0.0,-0.274586200714,-9.49283695221,0.196132987738,0.0,0.0,0.0,0.0,0.0,0.0,0.0,0.0,0.0
1309322700,93978,1644542239132993937,1,0.0,0.0,0.0,0.0,0.0,0.0,0.0,0.0,0.0,0.0,0.0,0.0,0.0,0.0,0.0,0.0,0.0,0.0,0.0,0.0,0.0,0.0,0.0,0.0,0.0,-0.764918684959,-9.94394302368,0.0294199492782,0.0,0.0,0.0,0.0,0.0,0.0,0.0,0.0,0.0
1311564600,93979,1644542239135007858,1,0.0,0.0,0.0,0.0,0.0,0.0,0.0,0.0,0.0,0.0,0.0,0.0,0.0,0.0,0.0,0.0,0.0,0.0,0.0,0.0,0.0,0.0,0.0,0.0,0.0,-0.490332484245,-9.2868976593,0.196132987738,0.0,0.0,0.0,0.0,0.0,0.0,0.0,0.0,0.0
1313395700,93980,1644542239137023926,1,0.0,0.0,0.0,0.0,0.0,0.0,0.0,0.0,0.0,0.0,0.0,0.0,0.0,0.0,0.0,0.0,0.0,0.0,0.0,0.0,0.0,0.0,0.0,0.0,0.0,-0.764918684959,-9.86548995972,0.490332484245,0.0,0.0,0.0,0.0,0.0,0.0,0.0,0.0,0.0
1315180300,93981,1644542239139037848,1,0.0,0.0,0.0,0.0,0.0,0.0,0.0,0.0,0.0,0.0,0.0,0.0,0.0,0.0,0.0,0.0,0.0,0.0,0.0,0.0,0.0,0.0,0.0,0.0,0.0,-0.421685934067,-9.81645679474,0.57859236002,0.0,0.0,0.0,0.0,0.0,0.0,0.0,0.0,0.0
1317326900,93982,1644542239141053915,1,0.0,0.0,0.0,0.0,0.0,0.0,0.0,0.0,0.0,0.0,0.0,0.0,0.0,0.0,0.0,0.0,0.0,0.0,0.0,0.0,0.0,0.0,0.0,0.0,0.0,-0.558979034424,-9.45361042023,0.38245934248,0.0,0.0,0.0,0.0,0.0,0.0,0.0,0.0,0.0
1319253900,93983,1644542239143068075,1,0.0,0.0,0.0,0.0,0.0,0.0,0.0,0.0,0.0,0.0,0.0,0.0,0.0,0.0,0.0,0.0,0.0,0.0,0.0,0.0,0.0,0.0,0.0,0.0,0.0,-0.961051702499,-9.75761604309,0.313812792301,0.0,0.0,0.0,0.0,0.0,0.0,0.0,0.0,0.0
1321525600,93984,1644542239145083904,1,0.0,0.0,0.0,0.0,0.0,0.0,0.0,0.0,0.0,0.0,0.0,0.0,0.0,0.0,0.0,0.0,0.0,0.0,0.0,0.0,0.0,0.0,0.0,0.0,0.0,-0.509945809841,-9.49283695221,0.813951909542,0.0,0.0,0.0,0.0,0.0,0.0,0.0,0.0,0.0
1323325000,93985,1644542239147098064,1,0.0,0.0,0.0,0.0,0.0,0.0,0.0,0.0,0.0,0.0,0.0,0.0,0.0,0.0,0.0,0.0,0.0,0.0,0.0,0.0,0.0,0.0,0.0,0.0,0.0,-0.558979034424,-9.53206348419,0.313812792301,0.0,0.0,0.0,0.0,0.0,0.0,0.0,0.0,0.0
1325313100,93986,1644542239149111986,1,0.0,0.0,0.0,0.0,0.0,0.0,0.0,0.0,0.0,0.0,0.0,0.0,0.0,0.0,0.0,0.0,0.0,0.0,0.0,0.0,0.0,0.0,0.0,0.0,0.0,-0.774725317955,-9.66935634613,0.735498726368,0.0,0.0,0.0,0.0,0.0,0.0,0.0,0.0,0.0
1327185400,93987,1644542239151128292,1,0.0,0.0,0.0,0.0,0.0,0.0,0.0,0.0,0.0,0.0,0.0,0.0,0.0,0.0,0.0,0.0,0.0,0.0,0.0,0.0,0.0,0.0,0.0,0.0,0.0,-0.313812792301,-9.71838951111,0.735498726368,0.0,0.0,0.0,0.0,0.0,0.0,0.0,0.0,0.0
1329219100,93988,1644542239153142452,1,0.0,0.0,0.0,0.0,0.0,0.0,0.0,0.0,0.0,0.0,0.0,0.0,0.0,0.0,0.0,0.0,0.0,0.0,0.0,0.0,0.0,0.0,0.0,0.0,0.0,-0.38245934248,-9.61051654816,0.529559075832,0.0,0.0,0.0,0.0,0.0,0.0,0.0,0.0,0.0
1331649600,93989,1644542239155156136,1,0.0,0.0,0.0,0.0,0.0,0.0,0.0,0.0,0.0,0.0,0.0,0.0,0.0,0.0,0.0,0.0,0.0,0.0,0.0,0.0,0.0,0.0,0.0,0.0,0.0,-0.402072638273,-9.34573745728,1.01008486748,0.0,0.0,0.0,0.0,0.0,0.0,0.0,0.0,0.0
1333614600,93990,1644542239157172441,1,0.0,0.0,0.0,0.0,0.0,0.0,0.0,0.0,0.0,0.0,0.0,0.0,0.0,0.0,0.0,0.0,0.0,0.0,0.0,0.0,0.0,0.0,0.0,0.0,0.0,-0.686465501785,-9.88510322571,0.990471601486,0.0,0.0,0.0,0.0,0.0,0.0,0.0,0.0,0.0
1335443000,93991,1644542239159186363,1,0.0,0.0,0.0,0.0,0.0,0.0,0.0,0.0,0.0,0.0,0.0,0.0,0.0,0.0,0.0,0.0,0.0,0.0,0.0,0.0,0.0,0.0,0.0,0.0,0.0,-0.402072638273,-9.53206348419,1.01989161968,0.0,0.0,0.0,0.0,0.0,0.0,0.0,0.0,0.0
1337437900,93992,1644542239161202431,1,0.0,0.0,0.0,0.0,0.0,0.0,0.0,0.0,0.0,0.0,0.0,0.0,0.0,0.0,0.0,0.0,0.0,0.0,0.0,0.0,0.0,0.0,0.0,0.0,0.0,-0.490332484245,-9.62032318115,0.833565235138,0.0,0.0,0.0,0.0,0.0,0.0,0.0,0.0,0.0
1339568300,93993,1644542239163216591,1,0.0,0.0,0.0,0.0,0.0,0.0,0.0,0.0,0.0,0.0,0.0,0.0,0.0,0.0,0.0,0.0,0.0,0.0,0.0,0.0,0.0,0.0,0.0,0.0,0.0,-0.529559075832,-9.71838951111,1.20621788502,0.0,0.0,0.0,0.0,0.0,0.0,0.0,0.0,0.0
1341539900,93994,1644542239165232420,1,0.0,0.0,0.0,0.0,0.0,0.0,0.0,0.0,0.0,0.0,0.0,0.0,0.0,0.0,0.0,0.0,0.0,0.0,0.0,0.0,0.0,0.0,0.0,0.0,0.0,0.0686465501785,-9.25747776031,0.598205626011,0.0,0.0,0.0,0.0,0.0,0.0,0.0,0.0,0.0
1343598000,93995,1644542239167246580,1,0.0,0.0,0.0,0.0,0.0,0.0,0.0,0.0,0.0,0.0,0.0,0.0,0.0,0.0,0.0,0.0,0.0,0.0,0.0,0.0,0.0,0.0,0.0,0.0,0.0,-1.01989161968,-9.58109664917,1.24544453621,0.0,0.0,0.0,0.0,0.0,0.0,0.0,0.0,0.0
1345512900,93996,1644542239169260502,1,0.0,0.0,0.0,0.0,0.0,0.0,0.0,0.0,0.0,0.0,0.0,0.0,0.0,0.0,0.0,0.0,0.0,0.0,0.0,0.0,0.0,0.0,0.0,0.0,0.0,0.0,-10.2675619125,1.40235090256,0.0,0.0,0.0,0.0,0.0,0.0,0.0,0.0,0.0
1347448800,93997,1644542239171274662,1,0.0,0.0,0.0,0.0,0.0,0.0,0.0,0.0,0.0,0.0,0.0,0.0,0.0,0.0,0.0,0.0,0.0,0.0,0.0,0.0,0.0,0.0,0.0,0.0,0.0,-0.451105892658,-9.25747776031,1.09834480286,0.0,0.0,0.0,0.0,0.0,0.0,0.0,0.0,0.0
1349416800,93998,1644542239173290491,1,0.0,0.0,0.0,0.0,0.0,0.0,0.0,0.0,0.0,0.0,0.0,0.0,0.0,0.0,0.0,0.0,0.0,0.0,0.0,0.0,0.0,0.0,0.0,0.0,0.0,-0.509945809841,-9.64974308014,1.13757133484,0.0,0.0,0.0,0.0,0.0,0.0,0.0,0.0,0.0
1351468500,93999,1644542239175304651,1,0.0,0.0,0.0,0.0,0.0,0.0,0.0,0.0,0.0,0.0,0.0,0.0,0.0,0.0,0.0,0.0,0.0,0.0,0.0,0.0,0.0,0.0,0.0,0.0,0.0,-0.12748645246,-9.43399715424,1.08853816986,0.0,0.0,0.0,0.0,0.0,0.0,0.0,0.0,0.0
1353540500,94000,1644542239177318811,1,0.0,0.0,0.0,0.0,0.0,0.0,0.0,0.0,0.0,0.0,0.0,0.0,0.0,0.0,0.0,0.0,0.0,0.0,0.0,0.0,0.0,0.0,0.0,0.0,0.0,-0.38245934248,-9.71838951111,1.28467106819,0.0,0.0,0.0,0.0,0.0,0.0,0.0,0.0,0.0
1355572000,94001,1644542239179334641,1,0.0,0.0,0.0,0.0,0.0,0.0,0.0,0.0,0.0,0.0,0.0,0.0,0.0,0.0,0.0,0.0,0.0,0.0,0.0,0.0,0.0,0.0,0.0,0.0,0.0,-0.529559075832,-9.25747776031,0.833565235138,0.0,0.0,0.0,0.0,0.0,0.0,0.0,0.0,0.0
1357552000,94002,1644542239181348801,1,0.0,0.0,0.0,0.0,0.0,0.0,0.0,0.0,0.0,0.0,0.0,0.0,0.0,0.0,0.0,0.0,0.0,0.0,0.0,0.0,0.0,0.0,0.0,0.0,0.0,-0.666852176189,-9.83607006073,1.12776470184,0.0,0.0,0.0,0.0,0.0,0.0,0.0,0.0,0.0
1359494800,94003,1644542239183362722,1,0.0,0.0,0.0,0.0,0.0,0.0,0.0,0.0,0.0,0.0,0.0,0.0,0.0,0.0,0.0,0.0,0.0,0.0,0.0,0.0,0.0,0.0,0.0,0.0,0.0,-0.951245009899,-9.57129001617,1.47099745274,0.0,0.0,0.0,0.0,0.0,0.0,0.0,0.0,0.0
1361526800,94004,1644542239185378790,1,0.0,0.0,0.0,0.0,0.0,0.0,0.0,0.0,0.0,0.0,0.0,0.0,0.0,0.0,0.0,0.0,0.0,0.0,0.0,0.0,0.0,0.0,0.0,0.0,0.0,-0.38245934248,-9.38496398926,0.176519691944,0.0,0.0,0.0,0.0,0.0,0.0,0.0,0.0,0.0
1363428800,94005,1644542239187392712,1,0.0,0.0,0.0,0.0,0.0,0.0,0.0,0.0,0.0,0.0,0.0,0.0,0.0,0.0,0.0,0.0,0.0,0.0,0.0,0.0,0.0,0.0,0.0,0.0,0.0,-1.42196416855,-9.8949098587,1.2650578022,0.0,0.0,0.0,0.0,0.0,0.0,0.0,0.0,0.0
1365487500,94006,1644542239189406872,1,0.0,0.0,0.0,0.0,0.0,0.0,0.0,0.0,0.0,0.0,0.0,0.0,0.0,0.0,0.0,0.0,0.0,0.0,0.0,0.0,0.0,0.0,0.0,0.0,0.0,-0.529559075832,-9.49283695221,0.872791826725,0.0,0.0,0.0,0.0,0.0,0.0,0.0,0.0,0.0
1367695600,94007,1644542239191423178,1,0.0,0.0,0.0,0.0,0.0,0.0,0.0,0.0,0.0,0.0,0.0,0.0,0.0,0.0,0.0,0.0,0.0,0.0,0.0,0.0,0.0,0.0,0.0,0.0,0.0,-1.08853816986,-9.5222568512,0.951245009899,0.0,0.0,0.0,0.0,0.0,0.0,0.0,0.0,0.0
1369632000,94008,1644542239193437099,1,0.0,0.0,0.0,0.0,0.0,0.0,0.0,0.0,0.0,0.0,0.0,0.0,0.0,0.0,0.0,0.0,0.0,0.0,0.0,0.0,0.0,0.0,0.0,0.0,0.0,-1.08853816986,-9.42419052124,0.402072638273,0.0,0.0,0.0,0.0,0.0,0.0,0.0,0.0,0.0
1371661400,94009,1644542239195451260,1,0.0,0.0,0.0,0.0,0.0,0.0,0.0,0.0,0.0,0.0,0.0,0.0,0.0,0.0,0.0,0.0,0.0,0.0,0.0,0.0,0.0,0.0,0.0,0.0,0.0,-1.34351098537,-9.91452312469,1.01008486748,0.0,0.0,0.0,0.0,0.0,0.0,0.0,0.0,0.0
1373690500,94010,1644542239197467089,1,0.0,0.0,0.0,0.0,0.0,0.0,0.0,0.0,0.0,0.0,0.0,0.0,0.0,0.0,0.0,0.0,0.0,0.0,0.0,0.0,0.0,0.0,0.0,0.0,0.0,-1.04931151867,-9.31631755829,0.294199496508,0.0,0.0,0.0,0.0,0.0,0.0,0.0,0.0,0.0
1375737100,94011,1644542239199481249,1,0.0,0.0,0.0,0.0,0.0,0.0,0.0,0.0,0.0,0.0,0.0,0.0,0.0,0.0,0.0,0.0,0.0,0.0,0.0,0.0,0.0,0.0,0.0,0.0,0.0,-1.81423020363,-9.62032318115,0.666852176189,0.0,0.0,0.0,0.0,0.0,0.0,0.0,0.0,0.0
1377771700,94012,1644542239201497316,1,0.0,0.0,0.0,0.0,0.0,0.0,0.0,0.0,0.0,0.0,0.0,0.0,0.0,0.0,0.0,0.0,0.0,0.0,0.0,0.0,0.0,0.0,0.0,0.0,0.0,-1.28467106819,-9.83607006073,0.637432217598,0.0,0.0,0.0,0.0,0.0,0.0,0.0,0.0,0.0
1379835900,94013,1644542239203511238,1,0.0,0.0,0.0,0.0,0.0,0.0,0.0,0.0,0.0,0.0,0.0,0.0,0.0,0.0,0.0,0.0,0.0,0.0,0.0,0.0,0.0,0.0,0.0,0.0,0.0,-1.50041747093,-9.5222568512,0.558979034424,0.0,0.0,0.0,0.0,0.0,0.0,0.0,0.0,0.0
1381701500,94014,1644542239205525398,1,0.0,0.0,0.0,0.0,0.0,0.0,0.0,0.0,0.0,0.0,0.0,0.0,0.0,0.0,0.0,0.0,0.0,0.0,0.0,0.0,0.0,0.0,0.0,0.0,0.0,-1.28467106819,-9.42419052124,0.12748645246,0.0,0.0,0.0,0.0,0.0,0.0,0.0,0.0,0.0
1383819600,94015,1644542239207541227,1,0.0,0.0,0.0,0.0,0.0,0.0,0.0,0.0,0.0,0.0,0.0,0.0,0.0,0.0,0.0,0.0,0.0,0.0,0.0,0.0,0.0,0.0,0.0,0.0,0.0,-1.33370435238,-9.81645679474,0.225552946329,0.0,0.0,0.0,0.0,0.0,0.0,0.0,0.0,0.0
1385825500,94016,1644542239209553480,1,0.0,0.0,0.0,0.0,0.0,0.0,0.0,0.0,0.0,0.0,0.0,0.0,0.0,0.0,0.0,0.0,0.0,0.0,0.0,0.0,0.0,0.0,0.0,0.0,0.0,-1.39254426956,-9.56148338318,0.0294199492782,0.0,0.0,0.0,0.0,0.0,0.0,0.0,0.0,0.0
1387835800,94017,1644542239211569548,1,0.0,0.0,0.0,0.0,0.0,0.0,0.0,0.0,0.0,0.0,0.0,0.0,0.0,0.0,0.0,0.0,0.0,0.0,0.0,0.0,0.0,0.0,0.0,0.0,0.0,-1.2650578022,-9.49283695221,-0.12748645246,0.0,0.0,0.0,0.0,0.0,0.0,0.0,0.0,0.0
1389852800,94018,1644542239213583469,1,0.0,0.0,0.0,0.0,0.0,0.0,0.0,0.0,0.0,0.0,0.0,0.0,0.0,0.0,0.0,0.0,0.0,0.0,0.0,0.0,0.0,0.0,0.0,0.0,0.0,-1.95152330399,-9.70858287811,-1.16699135303,0.0,0.0,0.0,0.0,0.0,0.0,0.0,0.0,0.0
1391821800,94019,1644542239215597630,1,0.0,0.0,0.0,0.0,0.0,0.0,0.0,0.0,0.0,0.0,0.0,0.0,0.0,0.0,0.0,0.0,0.0,0.0,0.0,0.0,0.0,0.0,0.0,0.0,0.0,-2.47127580643,-9.64974308014,-2.20649623871,0.0,0.0,0.0,0.0,0.0,0.0,0.0,0.0,0.0
1393673400,94020,1644542239217613459,1,0.0,0.0,0.0,0.0,0.0,0.0,0.0,0.0,0.0,0.0,0.0,0.0,0.0,0.0,0.0,0.0,0.0,0.0,0.0,0.0,0.0,0.0,0.0,0.0,0.0,-2.2359161377,-9.7478094101,-0.451105892658,0.0,0.0,0.0,0.0,0.0,0.0,0.0,0.0,0.0
1395756700,94021,1644542239219629526,1,0.0,0.0,0.0,0.0,0.0,0.0,0.0,0.0,0.0,0.0,0.0,0.0,0.0,0.0,0.0,0.0,0.0,0.0,0.0,0.0,0.0,0.0,0.0,0.0,0.0,-1.75539028645,-9.94394302368,1.13757133484,0.0,0.0,0.0,0.0,0.0,0.0,0.0,0.0,0.0
1397719900,94022,1644542239221643686,1,0.0,0.0,0.0,0.0,0.0,0.0,0.0,0.0,0.0,0.0,0.0,0.0,0.0,0.0,0.0,0.0,0.0,0.0,0.0,0.0,0.0,0.0,0.0,0.0,0.0,-1.45138418674,-9.57129001617,0.774725317955,0.0,0.0,0.0,0.0,0.0,0.0,0.0,0.0,0.0
1400216700,94023,1644542239223657608,1,0.0,0.0,0.0,0.0,0.0,0.0,0.0,0.0,0.0,0.0,0.0,0.0,0.0,0.0,0.0,0.0,0.0,0.0,0.0,0.0,0.0,0.0,0.0,0.0,0.0,-1.24544453621,-9.86548995972,0.921825051308,0.0,0.0,0.0,0.0,0.0,0.0,0.0,0.0,0.0
1401929700,94024,1644542239225673914,1,0.0,0.0,0.0,0.0,0.0,0.0,0.0,0.0,0.0,0.0,0.0,0.0,0.0,0.0,0.0,0.0,0.0,0.0,0.0,0.0,0.0,0.0,0.0,0.0,0.0,-1.42196416855,-9.81645679474,0.0392265990376,0.0,0.0,0.0,0.0,0.0,0.0,0.0,0.0,0.0
1404122200,94025,1644542239227687836,1,0.0,0.0,0.0,0.0,0.0,0.0,0.0,0.0,0.0,0.0,0.0,0.0,0.0,0.0,0.0,0.0,0.0,0.0,0.0,0.0,0.0,0.0,0.0,0.0,0.0,-1.17679798603,-9.71838951111,0.0,0.0,0.0,0.0,0.0,0.0,0.0,0.0,0.0,0.0
1406776200,94026,1644542239229703903,1,0.0,0.0,0.0,0.0,0.0,0.0,0.0,0.0,0.0,0.0,0.0,0.0,0.0,0.0,0.0,0.0,0.0,0.0,0.0,0.0,0.0,0.0,0.0,0.0,0.0,-0.951245009899,-9.71838951111,0.558979034424,0.0,0.0,0.0,0.0,0.0,0.0,0.0,0.0,0.0
1408000300,94027,1644542239231718063,1,0.0,0.0,0.0,0.0,0.0,0.0,0.0,0.0,0.0,0.0,0.0,0.0,0.0,0.0,0.0,0.0,0.0,0.0,0.0,0.0,0.0,0.0,0.0,0.0,0.0,-0.686465501785,-9.48303031921,0.558979034424,0.0,0.0,0.0,0.0,0.0,0.0,0.0,0.0,0.0
1410163400,94028,1644542239233731985,1,0.0,0.0,0.0,0.0,0.0,0.0,0.0,0.0,0.0,0.0,0.0,0.0,0.0,0.0,0.0,0.0,0.0,0.0,0.0,0.0,0.0,0.0,0.0,0.0,0.0,-0.912018418312,-9.62032318115,0.421685934067,0.0,0.0,0.0,0.0,0.0,0.0,0.0,0.0,0.0
1411974000,94029,1644542239235748053,1,0.0,0.0,0.0,0.0,0.0,0.0,0.0,0.0,0.0,0.0,0.0,0.0,0.0,0.0,0.0,0.0,0.0,0.0,0.0,0.0,0.0,0.0,0.0,0.0,0.0,-0.912018418312,-9.45361042023,0.176519691944,0.0,0.0,0.0,0.0,0.0,0.0,0.0,0.0,0.0
1414013000,94030,1644542239237761974,1,0.0,0.0,0.0,0.0,0.0,0.0,0.0,0.0,0.0,0.0,0.0,0.0,0.0,0.0,0.0,0.0,0.0,0.0,0.0,0.0,0.0,0.0,0.0,0.0,0.0,-0.451105892658,-9.80665016174,1.01008486748,0.0,0.0,0.0,0.0,0.0,0.0,0.0,0.0,0.0
1415955500,94031,1644542239239776134,1,0.0,0.0,0.0,0.0,0.0,0.0,0.0,0.0,0.0,0.0,0.0,0.0,0.0,0.0,0.0,0.0,0.0,0.0,0.0,0.0,0.0,0.0,0.0,0.0,0.0,-0.882598459721,-9.7478094101,0.509945809841,0.0,0.0,0.0,0.0,0.0,0.0,0.0,0.0,0.0
1418063800,94032,1644542239241792202,1,0.0,0.0,0.0,0.0,0.0,0.0,0.0,0.0,0.0,0.0,0.0,0.0,0.0,0.0,0.0,0.0,0.0,0.0,0.0,0.0,0.0,0.0,0.0,0.0,0.0,-0.833565235138,-9.48303031921,0.725692093372,0.0,0.0,0.0,0.0,0.0,0.0,0.0,0.0,0.0
1420234500,94033,1644542239243806124,1,0.0,0.0,0.0,0.0,0.0,0.0,0.0,0.0,0.0,0.0,0.0,0.0,0.0,0.0,0.0,0.0,0.0,0.0,0.0,0.0,0.0,0.0,0.0,0.0,0.0,-1.13757133484,-10.2675619125,0.961051702499,0.0,0.0,0.0,0.0,0.0,0.0,0.0,0.0,0.0
1422156900,94034,1644542239245820284,1,0.0,0.0,0.0,0.0,0.0,0.0,0.0,0.0,0.0,0.0,0.0,0.0,0.0,0.0,0.0,0.0,0.0,0.0,0.0,0.0,0.0,0.0,0.0,0.0,0.0,-0.637432217598,-9.58109664917,0.872791826725,0.0,0.0,0.0,0.0,0.0,0.0,0.0,0.0,0.0
1423992300,94035,1644542239247836113,1,0.0,0.0,0.0,0.0,0.0,0.0,0.0,0.0,0.0,0.0,0.0,0.0,0.0,0.0,0.0,0.0,0.0,0.0,0.0,0.0,0.0,0.0,0.0,0.0,0.0,-1.12776470184,-9.62032318115,0.529559075832,0.0,0.0,0.0,0.0,0.0,0.0,0.0,0.0,0.0
1425979000,94036,1644542239249850273,1,0.0,0.0,0.0,0.0,0.0,0.0,0.0,0.0,0.0,0.0,0.0,0.0,0.0,0.0,0.0,0.0,0.0,0.0,0.0,0.0,0.0,0.0,0.0,0.0,0.0,-1.37293100357,-9.7478094101,0.764918684959,0.0,0.0,0.0,0.0,0.0,0.0,0.0,0.0,0.0
1427973800,94037,1644542239251864195,1,0.0,0.0,0.0,0.0,0.0,0.0,0.0,0.0,0.0,0.0,0.0,0.0,0.0,0.0,0.0,0.0,0.0,0.0,0.0,0.0,0.0,0.0,0.0,0.0,0.0,-2.06920313835,-10.2185287476,1.81423020363,0.0,0.0,0.0,0.0,0.0,0.0,0.0,0.0,0.0
1429916600,94038,1644542239253880262,1,0.0,0.0,0.0,0.0,0.0,0.0,0.0,0.0,0.0,0.0,0.0,0.0,0.0,0.0,0.0,0.0,0.0,0.0,0.0,0.0,0.0,0.0,0.0,0.0,0.0,-0.961051702499,-9.94394302368,0.549172401428,0.0,0.0,0.0,0.0,0.0,0.0,0.0,0.0,0.0
1431937200,94039,1644542239255894423,1,0.0,0.0,0.0,0.0,0.0,0.0,0.0,0.0,0.0,0.0,0.0,0.0,0.0,0.0,0.0,0.0,0.0,0.0,0.0,0.0,0.0,0.0,0.0,0.0,0.0,-2.25552940369,-9.42419052124,0.912018418312,0.0,0.0,0.0,0.0,0.0,0.0,0.0,0.0,0.0
1433981200,94040,1644542239257908344,1,0.0,0.0,0.0,0.0,0.0,0.0,0.0,0.0,0.0,0.0,0.0,0.0,0.0,0.0,0.0,0.0,0.0,0.0,0.0,0.0,0.0,0.0,0.0,0.0,0.0,-0.696272134781,-9.15941047668,0.0784531980753,0.0,0.0,0.0,0.0,0.0,0.0,0.0,0.0,0.0
1436620800,94041,1644542239259922504,1,0.0,0.0,0.0,0.0,0.0,0.0,0.0,0.0,0.0,0.0,0.0,0.0,0.0,0.0,0.0,0.0,0.0,0.0,0.0,0.0,0.0,0.0,0.0,0.0,0.0,-1.16699135303,-9.80665016174,0.666852176189,0.0,0.0,0.0,0.0,0.0,0.0,0.0,0.0,0.0
1438228400,94042,1644542239261938572,1,0.0,0.0,0.0,0.0,0.0,0.0,0.0,0.0,0.0,0.0,0.0,0.0,0.0,0.0,0.0,0.0,0.0,0.0,0.0,0.0,0.0,0.0,0.0,0.0,0.0,-0.804145276546,-9.53206348419,0.264779537916,0.0,0.0,0.0,0.0,0.0,0.0,0.0,0.0,0.0
1440228500,94043,1644542239263952732,1,0.0,0.0,0.0,0.0,0.0,0.0,0.0,0.0,0.0,0.0,0.0,0.0,0.0,0.0,0.0,0.0,0.0,0.0,0.0,0.0,0.0,0.0,0.0,0.0,0.0,-1.09834480286,-9.67916297913,0.833565235138,0.0,0.0,0.0,0.0,0.0,0.0,0.0,0.0,0.0
1442183500,94044,1644542239265966892,1,0.0,0.0,0.0,0.0,0.0,0.0,0.0,0.0,0.0,0.0,0.0,0.0,0.0,0.0,0.0,0.0,0.0,0.0,0.0,0.0,0.0,0.0,0.0,0.0,0.0,-1.01008486748,-9.71838951111,0.470719188452,0.0,0.0,0.0,0.0,0.0,0.0,0.0,0.0,0.0
1444220300,94045,1644542239267982721,1,0.0,0.0,0.0,0.0,0.0,0.0,0.0,0.0,0.0,0.0,0.0,0.0,0.0,0.0,0.0,0.0,0.0,0.0,0.0,0.0,0.0,0.0,0.0,0.0,0.0,-1.09834480286,-9.30651092529,0.509945809841,0.0,0.0,0.0,0.0,0.0,0.0,0.0,0.0,0.0
1446283300,94046,1644542239269996881,1,0.0,0.0,0.0,0.0,0.0,0.0,0.0,0.0,0.0,0.0,0.0,0.0,0.0,0.0,0.0,0.0,0.0,0.0,0.0,0.0,0.0,0.0,0.0,0.0,0.0,-0.362846046686,-9.56148338318,0.196132987738,0.0,0.0,0.0,0.0,0.0,0.0,0.0,0.0,0.0
1448213800,94047,1644542239272010803,1,0.0,0.0,0.0,0.0,0.0,0.0,0.0,0.0,0.0,0.0,0.0,0.0,0.0,0.0,0.0,0.0,0.0,0.0,0.0,0.0,0.0,0.0,0.0,0.0,0.0,-1.01008486748,-9.43399715424,0.38245934248,0.0,0.0,0.0,0.0,0.0,0.0,0.0,0.0,0.0
1450202400,94048,1644542239274026871,1,0.0,0.0,0.0,0.0,0.0,0.0,0.0,0.0,0.0,0.0,0.0,0.0,0.0,0.0,0.0,0.0,0.0,0.0,0.0,0.0,0.0,0.0,0.0,0.0,0.0,-0.725692093372,-9.78703689575,0.627625584602,0.0,0.0,0.0,0.0,0.0,0.0,0.0,0.0,0.0
1452245700,94049,1644542239276041031,1,0.0,0.0,0.0,0.0,0.0,0.0,0.0,0.0,0.0,0.0,0.0,0.0,0.0,0.0,0.0,0.0,0.0,0.0,0.0,0.0,0.0,0.0,0.0,0.0,0.0,-0.12748645246,-9.38496398926,0.362846046686,0.0,0.0,0.0,0.0,0.0,0.0,0.0,0.0,0.0
1454246800,94050,1644542239278056860,1,0.0,0.0,0.0,0.0,0.0,0.0,0.0,0.0,0.0,0.0,0.0,0.0,0.0,0.0,0.0,0.0,0.0,0.0,0.0,0.0,0.0,0.0,0.0,0.0,0.0,-0.843371868134,-9.71838951111,0.735498726368,0.0,0.0,0.0,0.0,0.0,0.0,0.0,0.0,0.0
1456199200,94051,1644542239280071020,1,0.0,0.0,0.0,0.0,0.0,0.0,0.0,0.0,0.0,0.0,0.0,0.0,0.0,0.0,0.0,0.0,0.0,0.0,0.0,0.0,0.0,0.0,0.0,0.0,0.0,-0.196132987738,-9.56148338318,0.402072638273,0.0,0.0,0.0,0.0,0.0,0.0,0.0,0.0,0.0
1458361500,94052,1644542239282084942,1,0.0,0.0,0.0,0.0,0.0,0.0,0.0,0.0,0.0,0.0,0.0,0.0,0.0,0.0,0.0,0.0,0.0,0.0,0.0,0.0,0.0,0.0,0.0,0.0,0.0,-0.402072638273,-9.78703689575,0.598205626011,0.0,0.0,0.0,0.0,0.0,0.0,0.0,0.0,0.0
1460289000,94053,1644542239284101009,1,0.0,0.0,0.0,0.0,0.0,0.0,0.0,0.0,0.0,0.0,0.0,0.0,0.0,0.0,0.0,0.0,0.0,0.0,0.0,0.0,0.0,0.0,0.0,0.0,0.0,0.38245934248,-9.39477062225,0.0784531980753,0.0,0.0,0.0,0.0,0.0,0.0,0.0,0.0,0.0
1462194300,94054,1644542239286115170,1,0.0,0.0,0.0,0.0,0.0,0.0,0.0,0.0,0.0,0.0,0.0,0.0,0.0,0.0,0.0,0.0,0.0,0.0,0.0,0.0,0.0,0.0,0.0,0.0,0.0,-0.294199496508,-9.75761604309,0.509945809841,0.0,0.0,0.0,0.0,0.0,0.0,0.0,0.0,0.0
1464641200,94055,1644542239288129091,1,0.0,0.0,0.0,0.0,0.0,0.0,0.0,0.0,0.0,0.0,0.0,0.0,0.0,0.0,0.0,0.0,0.0,0.0,0.0,0.0,0.0,0.0,0.0,0.0,0.0,-0.264779537916,-9.86548995972,0.558979034424,0.0,0.0,0.0,0.0,0.0,0.0,0.0,0.0,0.0
1466707400,94056,1644542239290145159,1,0.0,0.0,0.0,0.0,0.0,0.0,0.0,0.0,0.0,0.0,0.0,0.0,0.0,0.0,0.0,0.0,0.0,0.0,0.0,0.0,0.0,0.0,0.0,0.0,0.0,-0.0686465501785,-9.38496398926,0.490332484245,0.0,0.0,0.0,0.0,0.0,0.0,0.0,0.0,0.0
1468688000,94057,1644542239292159319,1,0.0,0.0,0.0,0.0,0.0,0.0,0.0,0.0,0.0,0.0,0.0,0.0,0.0,0.0,0.0,0.0,0.0,0.0,0.0,0.0,0.0,0.0,0.0,0.0,0.0,-0.166713044047,-9.86548995972,0.872791826725,0.0,0.0,0.0,0.0,0.0,0.0,0.0,0.0,0.0
1470722100,94058,1644542239294173241,1,0.0,0.0,0.0,0.0,0.0,0.0,0.0,0.0,0.0,0.0,0.0,0.0,0.0,0.0,0.0,0.0,0.0,0.0,0.0,0.0,0.0,0.0,0.0,0.0,0.0,-0.0980664938688,-9.57129001617,0.470719188452,0.0,0.0,0.0,0.0,0.0,0.0,0.0,0.0,0.0
1472424700,94059,1644542239296187401,1,0.0,0.0,0.0,0.0,0.0,0.0,0.0,0.0,0.0,0.0,0.0,0.0,0.0,0.0,0.0,0.0,0.0,0.0,0.0,0.0,0.0,0.0,0.0,0.0,0.0,-0.0784531980753,-9.58109664917,0.627625584602,0.0,0.0,0.0,0.0,0.0,0.0,0.0,0.0,0.0
1474433800,94060,1644542239298203468,1,0.0,0.0,0.0,0.0,0.0,0.0,0.0,0.0,0.0,0.0,0.0,0.0,0.0,0.0,0.0,0.0,0.0,0.0,0.0,0.0,0.0,0.0,0.0,0.0,0.0,-0.0784531980753,-9.7478094101,0.696272134781,0.0,0.0,0.0,0.0,0.0,0.0,0.0,0.0,0.0
1476485000,94061,1644542239300219536,1,0.0,0.0,0.0,0.0,0.0,0.0,0.0,0.0,0.0,0.0,0.0,0.0,0.0,0.0,0.0,0.0,0.0,0.0,0.0,0.0,0.0,0.0,0.0,0.0,0.0,0.245166242123,-9.53206348419,0.735498726368,0.0,0.0,0.0,0.0,0.0,0.0,0.0,0.0,0.0
1478582600,94062,1644542239302233696,1,0.0,0.0,0.0,0.0,0.0,0.0,0.0,0.0,0.0,0.0,0.0,0.0,0.0,0.0,0.0,0.0,0.0,0.0,0.0,0.0,0.0,0.0,0.0,0.0,0.0,-0.0686465501785,-9.64974308014,1.09834480286,0.0,0.0,0.0,0.0,0.0,0.0,0.0,0.0,0.0
1480428300,94063,1644542239304249525,1,0.0,0.0,0.0,0.0,0.0,0.0,0.0,0.0,0.0,0.0,0.0,0.0,0.0,0.0,0.0,0.0,0.0,0.0,0.0,0.0,0.0,0.0,0.0,0.0,0.0,0.0686465501785,-9.5222568512,1.09834480286,0.0,0.0,0.0,0.0,0.0,0.0,0.0,0.0,0.0
1482588300,94064,1644542239306261778,1,0.0,0.0,0.0,0.0,0.0,0.0,0.0,0.0,0.0,0.0,0.0,0.0,0.0,0.0,0.0,0.0,0.0,0.0,0.0,0.0,0.0,0.0,0.0,0.0,0.0,0.0,-9.57129001617,0.725692093372,0.0,0.0,0.0,0.0,0.0,0.0,0.0,0.0,0.0
1484463700,94065,1644542239308277607,1,0.0,0.0,0.0,0.0,0.0,0.0,0.0,0.0,0.0,0.0,0.0,0.0,0.0,0.0,0.0,0.0,0.0,0.0,0.0,0.0,0.0,0.0,0.0,0.0,0.0,0.0784531980753,-9.24767112732,0.627625584602,0.0,0.0,0.0,0.0,0.0,0.0,0.0,0.0,0.0
1486542800,94066,1644542239310291767,1,0.0,0.0,0.0,0.0,0.0,0.0,0.0,0.0,0.0,0.0,0.0,0.0,0.0,0.0,0.0,0.0,0.0,0.0,0.0,0.0,0.0,0.0,0.0,0.0,0.0,-0.696272134781,-10.2871751785,1.45138418674,0.0,0.0,0.0,0.0,0.0,0.0,0.0,0.0,0.0
1488602600,94067,1644542239312307835,1,0.0,0.0,0.0,0.0,0.0,0.0,0.0,0.0,0.0,0.0,0.0,0.0,0.0,0.0,0.0,0.0,0.0,0.0,0.0,0.0,0.0,0.0,0.0,0.0,0.0,0.598205626011,-9.02211761475,0.686465501785,0.0,0.0,0.0,0.0,0.0,0.0,0.0,0.0,0.0
1490464000,94068,1644542239314321756,1,0.0,0.0,0.0,0.0,0.0,0.0,0.0,0.0,0.0,0.0,0.0,0.0,0.0,0.0,0.0,0.0,0.0,0.0,0.0,0.0,0.0,0.0,0.0,0.0,0.0,-0.509945809841,-9.70858287811,1.01008486748,0.0,0.0,0.0,0.0,0.0,0.0,0.0,0.0,0.0
1492472000,94069,1644542239316335917,1,0.0,0.0,0.0,0.0,0.0,0.0,0.0,0.0,0.0,0.0,0.0,0.0,0.0,0.0,0.0,0.0,0.0,0.0,0.0,0.0,0.0,0.0,0.0,0.0,0.0,-0.343232750893,-9.86548995972,0.951245009899,0.0,0.0,0.0,0.0,0.0,0.0,0.0,0.0,0.0
1494586500,94070,1644542239318349838,1,0.0,0.0,0.0,0.0,0.0,0.0,0.0,0.0,0.0,0.0,0.0,0.0,0.0,0.0,0.0,0.0,0.0,0.0,0.0,0.0,0.0,0.0,0.0,0.0,0.0,-0.0392265990376,-9.58109664917,0.774725317955,0.0,0.0,0.0,0.0,0.0,0.0,0.0,0.0,0.0
1496705900,94071,1644542239320365906,1,0.0,0.0,0.0,0.0,0.0,0.0,0.0,0.0,0.0,0.0,0.0,0.0,0.0,0.0,0.0,0.0,0.0,0.0,0.0,0.0,0.0,0.0,0.0,0.0,0.0,-0.0980664938688,-9.71838951111,0.470719188452,0.0,0.0,0.0,0.0,0.0,0.0,0.0,0.0,0.0
1498555800,94072,1644542239322381973,1,0.0,0.0,0.0,0.0,0.0,0.0,0.0,0.0,0.0,0.0,0.0,0.0,0.0,0.0,0.0,0.0,0.0,0.0,0.0,0.0,0.0,0.0,0.0,0.0,0.0,0.402072638273,-9.39477062225,0.343232750893,0.0,0.0,0.0,0.0,0.0,0.0,0.0,0.0,0.0
1500503300,94073,1644542239324395895,1,0.0,0.0,0.0,0.0,0.0,0.0,0.0,0.0,0.0,0.0,0.0,0.0,0.0,0.0,0.0,0.0,0.0,0.0,0.0,0.0,0.0,0.0,0.0,0.0,0.0,-0.176519691944,-10.2381420135,0.637432217598,0.0,0.0,0.0,0.0,0.0,0.0,0.0,0.0,0.0
1502523000,94074,1644542239326410055,1,0.0,0.0,0.0,0.0,0.0,0.0,0.0,0.0,0.0,0.0,0.0,0.0,0.0,0.0,0.0,0.0,0.0,0.0,0.0,0.0,0.0,0.0,0.0,0.0,0.0,-0.137293100357,-9.30651092529,0.529559075832,0.0,0.0,0.0,0.0,0.0,0.0,0.0,0.0,0.0
1504432600,94075,1644542239328423977,1,0.0,0.0,0.0,0.0,0.0,0.0,0.0,0.0,0.0,0.0,0.0,0.0,0.0,0.0,0.0,0.0,0.0,0.0,0.0,0.0,0.0,0.0,0.0,0.0,0.0,-0.549172401428,-10.1204624176,0.12748645246,0.0,0.0,0.0,0.0,0.0,0.0,0.0,0.0,0.0
1506653900,94076,1644542239330438137,1,0.0,0.0,0.0,0.0,0.0,0.0,0.0,0.0,0.0,0.0,0.0,0.0,0.0,0.0,0.0,0.0,0.0,0.0,0.0,0.0,0.0,0.0,0.0,0.0,0.0,-0.38245934248,-8.78675842285,-2.06920313835,0.0,0.0,0.0,0.0,0.0,0.0,0.0,0.0,0.0
1508801300,94077,1644542239332454443,1,0.0,0.0,0.0,0.0,0.0,0.0,0.0,0.0,0.0,0.0,0.0,0.0,0.0,0.0,0.0,0.0,0.0,0.0,0.0,0.0,0.0,0.0,0.0,0.0,0.0,-0.882598459721,-10.3656291962,1.2650578022,0.0,0.0,0.0,0.0,0.0,0.0,0.0,0.0,0.0
1510747700,94078,1644542239334468365,1,0.0,0.0,0.0,0.0,0.0,0.0,0.0,0.0,0.0,0.0,0.0,0.0,0.0,0.0,0.0,0.0,0.0,0.0,0.0,0.0,0.0,0.0,0.0,0.0,0.0,-0.57859236002,-9.30651092529,0.529559075832,0.0,0.0,0.0,0.0,0.0,0.0,0.0,0.0,0.0
1512681700,94079,1644542239336484432,1,0.0,0.0,0.0,0.0,0.0,0.0,0.0,0.0,0.0,0.0,0.0,0.0,0.0,0.0,0.0,0.0,0.0,0.0,0.0,0.0,0.0,0.0,0.0,0.0,0.0,-0.990471601486,-9.94394302368,0.764918684959,0.0,0.0,0.0,0.0,0.0,0.0,0.0,0.0,0.0
1514814700,94080,1644542239338498592,1,0.0,0.0,0.0,0.0,0.0,0.0,0.0,0.0,0.0,0.0,0.0,0.0,0.0,0.0,0.0,0.0,0.0,0.0,0.0,0.0,0.0,0.0,0.0,0.0,0.0,-0.961051702499,-9.39477062225,0.0294199492782,0.0,0.0,0.0,0.0,0.0,0.0,0.0,0.0,0.0
1516770700,94081,1644542239340514421,1,0.0,0.0,0.0,0.0,0.0,0.0,0.0,0.0,0.0,0.0,0.0,0.0,0.0,0.0,0.0,0.0,0.0,0.0,0.0,0.0,0.0,0.0,0.0,0.0,0.0,-1.50041747093,-9.80665016174,0.764918684959,0.0,0.0,0.0,0.0,0.0,0.0,0.0,0.0,0.0
1518698200,94082,1644542239342528582,1,0.0,0.0,0.0,0.0,0.0,0.0,0.0,0.0,0.0,0.0,0.0,0.0,0.0,0.0,0.0,0.0,0.0,0.0,0.0,0.0,0.0,0.0,0.0,0.0,0.0,-1.13757133484,-9.75761604309,0.637432217598,0.0,0.0,0.0,0.0,0.0,0.0,0.0,0.0,0.0
1520713400,94083,1644542239344544649,1,0.0,0.0,0.0,0.0,0.0,0.0,0.0,0.0,0.0,0.0,0.0,0.0,0.0,0.0,0.0,0.0,0.0,0.0,0.0,0.0,0.0,0.0,0.0,0.0,0.0,-0.725692093372,-9.57129001617,0.0784531980753,0.0,0.0,0.0,0.0,0.0,0.0,0.0,0.0,0.0
1522812200,94084,1644542239346556664,1,0.0,0.0,0.0,0.0,0.0,0.0,0.0,0.0,0.0,0.0,0.0,0.0,0.0,0.0,0.0,0.0,0.0,0.0,0.0,0.0,0.0,0.0,0.0,0.0,0.0,-0.490332484245,-9.5222568512,-0.166713044047,0.0,0.0,0.0,0.0,0.0,0.0,0.0,0.0,0.0
1524617300,94085,1644542239348572731,1,0.0,0.0,0.0,0.0,0.0,0.0,0.0,0.0,0.0,0.0,0.0,0.0,0.0,0.0,0.0,0.0,0.0,0.0,0.0,0.0,0.0,0.0,0.0,0.0,0.0,-0.529559075832,-9.31631755829,0.362846046686,0.0,0.0,0.0,0.0,0.0,0.0,0.0,0.0,0.0
1527149300,94086,1644542239350588799,1,0.0,0.0,0.0,0.0,0.0,0.0,0.0,0.0,0.0,0.0,0.0,0.0,0.0,0.0,0.0,0.0,0.0,0.0,0.0,0.0,0.0,0.0,0.0,0.0,0.0,-0.637432217598,-9.67916297913,0.294199496508,0.0,0.0,0.0,0.0,0.0,0.0,0.0,0.0,0.0
1528828600,94087,1644542239352602720,1,0.0,0.0,0.0,0.0,0.0,0.0,0.0,0.0,0.0,0.0,0.0,0.0,0.0,0.0,0.0,0.0,0.0,0.0,0.0,0.0,0.0,0.0,0.0,0.0,0.0,-0.696272134781,-9.62032318115,0.166713044047,0.0,0.0,0.0,0.0,0.0,0.0,0.0,0.0,0.0
1530737800,94088,1644542239354616880,1,0.0,0.0,0.0,0.0,0.0,0.0,0.0,0.0,0.0,0.0,0.0,0.0,0.0,0.0,0.0,0.0,0.0,0.0,0.0,0.0,0.0,0.0,0.0,0.0,0.0,-0.637432217598,-9.70858287811,0.402072638273,0.0,0.0,0.0,0.0,0.0,0.0,0.0,0.0,0.0
1532731000,94089,1644542239356630802,1,0.0,0.0,0.0,0.0,0.0,0.0,0.0,0.0,0.0,0.0,0.0,0.0,0.0,0.0,0.0,0.0,0.0,0.0,0.0,0.0,0.0,0.0,0.0,0.0,0.0,-0.637432217598,-9.67916297913,0.696272134781,0.0,0.0,0.0,0.0,0.0,0.0,0.0,0.0,0.0
1534748100,94090,1644542239358646870,1,0.0,0.0,0.0,0.0,0.0,0.0,0.0,0.0,0.0,0.0,0.0,0.0,0.0,0.0,0.0,0.0,0.0,0.0,0.0,0.0,0.0,0.0,0.0,0.0,0.0,-0.558979034424,-9.56148338318,0.509945809841,0.0,0.0,0.0,0.0,0.0,0.0,0.0,0.0,0.0
1536968000,94091,1644542239360661030,1,0.0,0.0,0.0,0.0,0.0,0.0,0.0,0.0,0.0,0.0,0.0,0.0,0.0,0.0,0.0,0.0,0.0,0.0,0.0,0.0,0.0,0.0,0.0,0.0,0.0,-0.421685934067,-9.58109664917,0.0392265990376,0.0,0.0,0.0,0.0,0.0,0.0,0.0,0.0,0.0
1538654800,94092,1644542239362674952,1,0.0,0.0,0.0,0.0,0.0,0.0,0.0,0.0,0.0,0.0,0.0,0.0,0.0,0.0,0.0,0.0,0.0,0.0,0.0,0.0,0.0,0.0,0.0,0.0,0.0,-0.529559075832,-9.70858287811,0.0392265990376,0.0,0.0,0.0,0.0,0.0,0.0,0.0,0.0,0.0
1541039500,94093,1644542239364689112,1,0.0,0.0,0.0,0.0,0.0,0.0,0.0,0.0,0.0,0.0,0.0,0.0,0.0,0.0,0.0,0.0,0.0,0.0,0.0,0.0,0.0,0.0,0.0,0.0,0.0,-0.196132987738,-9.67916297913,0.166713044047,0.0,0.0,0.0,0.0,0.0,0.0,0.0,0.0,0.0
1542961000,94094,1644542239366703033,1,0.0,0.0,0.0,0.0,0.0,0.0,0.0,0.0,0.0,0.0,0.0,0.0,0.0,0.0,0.0,0.0,0.0,0.0,0.0,0.0,0.0,0.0,0.0,0.0,0.0,-0.362846046686,-9.58109664917,-0.0294199492782,0.0,0.0,0.0,0.0,0.0,0.0,0.0,0.0,0.0
1544932700,94095,1644542239368719339,1,0.0,0.0,0.0,0.0,0.0,0.0,0.0,0.0,0.0,0.0,0.0,0.0,0.0,0.0,0.0,0.0,0.0,0.0,0.0,0.0,0.0,0.0,0.0,0.0,0.0,-0.529559075832,-9.7478094101,0.313812792301,0.0,0.0,0.0,0.0,0.0,0.0,0.0,0.0,0.0
1546973600,94096,1644542239370733261,1,0.0,0.0,0.0,0.0,0.0,0.0,0.0,0.0,0.0,0.0,0.0,0.0,0.0,0.0,0.0,0.0,0.0,0.0,0.0,0.0,0.0,0.0,0.0,0.0,0.0,-0.196132987738,-9.53206348419,0.451105892658,0.0,0.0,0.0,0.0,0.0,0.0,0.0,0.0,0.0
1548936100,94097,1644542239372749329,1,0.0,0.0,0.0,0.0,0.0,0.0,0.0,0.0,0.0,0.0,0.0,0.0,0.0,0.0,0.0,0.0,0.0,0.0,0.0,0.0,0.0,0.0,0.0,0.0,0.0,0.421685934067,-9.80665016174,0.421685934067,0.0,0.0,0.0,0.0,0.0,0.0,0.0,0.0,0.0
1551103700,94098,1644542239374765396,1,0.0,0.0,0.0,0.0,0.0,0.0,0.0,0.0,0.0,0.0,0.0,0.0,0.0,0.0,0.0,0.0,0.0,0.0,0.0,0.0,0.0,0.0,0.0,0.0,0.0,0.343232750893,-9.67916297913,0.0784531980753,0.0,0.0,0.0,0.0,0.0,0.0,0.0,0.0,0.0
1553099200,94099,1644542239376779556,1,0.0,0.0,0.0,0.0,0.0,0.0,0.0,0.0,0.0,0.0,0.0,0.0,0.0,0.0,0.0,0.0,0.0,0.0,0.0,0.0,0.0,0.0,0.0,0.0,0.0,0.294199496508,-9.5222568512,0.470719188452,0.0,0.0,0.0,0.0,0.0,0.0,0.0,0.0,0.0
1555070400,94100,1644542239378793478,1,0.0,0.0,0.0,0.0,0.0,0.0,0.0,0.0,0.0,0.0,0.0,0.0,0.0,0.0,0.0,0.0,0.0,0.0,0.0,0.0,0.0,0.0,0.0,0.0,0.0,0.509945809841,-9.7478094101,0.627625584602,0.0,0.0,0.0,0.0,0.0,0.0,0.0,0.0,0.0
1557124300,94101,1644542239380809546,1,0.0,0.0,0.0,0.0,0.0,0.0,0.0,0.0,0.0,0.0,0.0,0.0,0.0,0.0,0.0,0.0,0.0,0.0,0.0,0.0,0.0,0.0,0.0,0.0,0.0,0.598205626011,-9.61051654816,0.176519691944,0.0,0.0,0.0,0.0,0.0,0.0,0.0,0.0,0.0
1559101100,94102,1644542239382823467,1,0.0,0.0,0.0,0.0,0.0,0.0,0.0,0.0,0.0,0.0,0.0,0.0,0.0,0.0,0.0,0.0,0.0,0.0,0.0,0.0,0.0,0.0,0.0,0.0,0.0,0.313812792301,-9.70858287811,0.362846046686,0.0,0.0,0.0,0.0,0.0,0.0,0.0,0.0,0.0
1561069100,94103,1644542239384837627,1,0.0,0.0,0.0,0.0,0.0,0.0,0.0,0.0,0.0,0.0,0.0,0.0,0.0,0.0,0.0,0.0,0.0,0.0,0.0,0.0,0.0,0.0,0.0,0.0,0.0,0.686465501785,-9.64974308014,-0.00980664975941,0.0,0.0,0.0,0.0,0.0,0.0,0.0,0.0,0.0
1562875300,94104,1644542239386851788,1,0.0,0.0,0.0,0.0,0.0,0.0,0.0,0.0,0.0,0.0,0.0,0.0,0.0,0.0,0.0,0.0,0.0,0.0,0.0,0.0,0.0,0.0,0.0,0.0,0.0,0.951245009899,-9.81645679474,0.0686465501785,0.0,0.0,0.0,0.0,0.0,0.0,0.0,0.0,0.0
1565100500,94105,1644542239388865709,1,0.0,0.0,0.0,0.0,0.0,0.0,0.0,0.0,0.0,0.0,0.0,0.0,0.0,0.0,0.0,0.0,0.0,0.0,0.0,0.0,0.0,0.0,0.0,0.0,0.0,0.735498726368,-9.49283695221,-0.00980664975941,0.0,0.0,0.0,0.0,0.0,0.0,0.0,0.0,0.0
1566935100,94106,1644542239390881777,1,0.0,0.0,0.0,0.0,0.0,0.0,0.0,0.0,0.0,0.0,0.0,0.0,0.0,0.0,0.0,0.0,0.0,0.0,0.0,0.0,0.0,0.0,0.0,0.0,0.0,0.843371868134,-9.53206348419,0.313812792301,0.0,0.0,0.0,0.0,0.0,0.0,0.0,0.0,0.0
1568896000,94107,1644542239392895699,1,0.0,0.0,0.0,0.0,0.0,0.0,0.0,0.0,0.0,0.0,0.0,0.0,0.0,0.0,0.0,0.0,0.0,0.0,0.0,0.0,0.0,0.0,0.0,0.0,0.0,1.13757133484,-9.58109664917,0.274586200714,0.0,0.0,0.0,0.0,0.0,0.0,0.0,0.0,0.0
1570941700,94108,1644542239394911766,1,0.0,0.0,0.0,0.0,0.0,0.0,0.0,0.0,0.0,0.0,0.0,0.0,0.0,0.0,0.0,0.0,0.0,0.0,0.0,0.0,0.0,0.0,0.0,0.0,0.0,0.725692093372,-9.83607006073,0.843371868134,0.0,0.0,0.0,0.0,0.0,0.0,0.0,0.0,0.0
1572965800,94109,1644542239396925926,1,0.0,0.0,0.0,0.0,0.0,0.0,0.0,0.0,0.0,0.0,0.0,0.0,0.0,0.0,0.0,0.0,0.0,0.0,0.0,0.0,0.0,0.0,0.0,0.0,0.0,0.490332484245,-9.57129001617,0.843371868134,0.0,0.0,0.0,0.0,0.0,0.0,0.0,0.0,0.0
1575245500,94110,1644542239398939848,1,0.0,0.0,0.0,0.0,0.0,0.0,0.0,0.0,0.0,0.0,0.0,0.0,0.0,0.0,0.0,0.0,0.0,0.0,0.0,0.0,0.0,0.0,0.0,0.0,0.0,0.57859236002,-9.66935634613,0.274586200714,0.0,0.0,0.0,0.0,0.0,0.0,0.0,0.0,0.0
1577232300,94111,1644542239400954008,1,0.0,0.0,0.0,0.0,0.0,0.0,0.0,0.0,0.0,0.0,0.0,0.0,0.0,0.0,0.0,0.0,0.0,0.0,0.0,0.0,0.0,0.0,0.0,0.0,0.0,0.274586200714,-9.7478094101,0.774725317955,0.0,0.0,0.0,0.0,0.0,0.0,0.0,0.0,0.0
1579203000,94112,1644542239402970314,1,0.0,0.0,0.0,0.0,0.0,0.0,0.0,0.0,0.0,0.0,0.0,0.0,0.0,0.0,0.0,0.0,0.0,0.0,0.0,0.0,0.0,0.0,0.0,0.0,0.0,0.362846046686,-9.39477062225,0.637432217598,0.0,0.0,0.0,0.0,0.0,0.0,0.0,0.0,0.0
1581226400,94113,1644542239404984236,1,0.0,0.0,0.0,0.0,0.0,0.0,0.0,0.0,0.0,0.0,0.0,0.0,0.0,0.0,0.0,0.0,0.0,0.0,0.0,0.0,0.0,0.0,0.0,0.0,0.0,0.470719188452,-9.78703689575,1.01008486748,0.0,0.0,0.0,0.0,0.0,0.0,0.0,0.0,0.0
1583322400,94114,1644542239406998396,1,0.0,0.0,0.0,0.0,0.0,0.0,0.0,0.0,0.0,0.0,0.0,0.0,0.0,0.0,0.0,0.0,0.0,0.0,0.0,0.0,0.0,0.0,0.0,0.0,0.0,0.362846046686,-9.48303031921,0.696272134781,0.0,0.0,0.0,0.0,0.0,0.0,0.0,0.0,0.0
1585303800,94115,1644542239409012318,1,0.0,0.0,0.0,0.0,0.0,0.0,0.0,0.0,0.0,0.0,0.0,0.0,0.0,0.0,0.0,0.0,0.0,0.0,0.0,0.0,0.0,0.0,0.0,0.0,0.0,0.274586200714,-9.53206348419,0.470719188452,0.0,0.0,0.0,0.0,0.0,0.0,0.0,0.0,0.0
1587184900,94116,1644542239411026478,1,0.0,0.0,0.0,0.0,0.0,0.0,0.0,0.0,0.0,0.0,0.0,0.0,0.0,0.0,0.0,0.0,0.0,0.0,0.0,0.0,0.0,0.0,0.0,0.0,0.0,0.0294199492782,-9.86548995972,0.813951909542,0.0,0.0,0.0,0.0,0.0,0.0,0.0,0.0,0.0
1589252700,94117,1644542239413042545,1,0.0,0.0,0.0,0.0,0.0,0.0,0.0,0.0,0.0,0.0,0.0,0.0,0.0,0.0,0.0,0.0,0.0,0.0,0.0,0.0,0.0,0.0,0.0,0.0,0.0,0.0,-9.80665016174,1.13757133484,0.0,0.0,0.0,0.0,0.0,0.0,0.0,0.0,0.0
1591266200,94118,1644542239415058374,1,0.0,0.0,0.0,0.0,0.0,0.0,0.0,0.0,0.0,0.0,0.0,0.0,0.0,0.0,0.0,0.0,0.0,0.0,0.0,0.0,0.0,0.0,0.0,0.0,0.0,0.225552946329,-9.42419052124,0.598205626011,0.0,0.0,0.0,0.0,0.0,0.0,0.0,0.0,0.0
1593200900,94119,1644542239417070627,1,0.0,0.0,0.0,0.0,0.0,0.0,0.0,0.0,0.0,0.0,0.0,0.0,0.0,0.0,0.0,0.0,0.0,0.0,0.0,0.0,0.0,0.0,0.0,0.0,0.0,-0.470719188452,-9.80665016174,1.12776470184,0.0,0.0,0.0,0.0,0.0,0.0,0.0,0.0,0.0
1595204100,94120,1644542239419086695,1,0.0,0.0,0.0,0.0,0.0,0.0,0.0,0.0,0.0,0.0,0.0,0.0,0.0,0.0,0.0,0.0,0.0,0.0,0.0,0.0,0.0,0.0,0.0,0.0,0.0,-0.0784531980753,-9.62032318115,0.921825051308,0.0,0.0,0.0,0.0,0.0,0.0,0.0,0.0,0.0
1597262700,94121,1644542239421100616,1,0.0,0.0,0.0,0.0,0.0,0.0,0.0,0.0,0.0,0.0,0.0,0.0,0.0,0.0,0.0,0.0,0.0,0.0,0.0,0.0,0.0,0.0,0.0,0.0,0.0,-0.343232750893,-9.35554409027,1.33370435238,0.0,0.0,0.0,0.0,0.0,0.0,0.0,0.0,0.0
1599168700,94122,1644542239423114777,1,0.0,0.0,0.0,0.0,0.0,0.0,0.0,0.0,0.0,0.0,0.0,0.0,0.0,0.0,0.0,0.0,0.0,0.0,0.0,0.0,0.0,0.0,0.0,0.0,0.0,-0.529559075832,-9.70858287811,2.00055646896,0.0,0.0,0.0,0.0,0.0,0.0,0.0,0.0,0.0
1601189300,94123,1644542239425128698,1,0.0,0.0,0.0,0.0,0.0,0.0,0.0,0.0,0.0,0.0,0.0,0.0,0.0,0.0,0.0,0.0,0.0,0.0,0.0,0.0,0.0,0.0,0.0,0.0,0.0,-0.637432217598,-9.56148338318,1.42196416855,0.0,0.0,0.0,0.0,0.0,0.0,0.0,0.0,0.0
1603187700,94124,1644542239427144766,1,0.0,0.0,0.0,0.0,0.0,0.0,0.0,0.0,0.0,0.0,0.0,0.0,0.0,0.0,0.0,0.0,0.0,0.0,0.0,0.0,0.0,0.0,0.0,0.0,0.0,-0.686465501785,-9.20844459534,0.735498726368,0.0,0.0,0.0,0.0,0.0,0.0,0.0,0.0,0.0
1605205700,94125,1644542239429158926,1,0.0,0.0,0.0,0.0,0.0,0.0,0.0,0.0,0.0,0.0,0.0,0.0,0.0,0.0,0.0,0.0,0.0,0.0,0.0,0.0,0.0,0.0,0.0,0.0,0.0,-0.696272134781,-9.71838951111,0.598205626011,0.0,0.0,0.0,0.0,0.0,0.0,0.0,0.0,0.0
1607175900,94126,1644542239431172848,1,0.0,0.0,0.0,0.0,0.0,0.0,0.0,0.0,0.0,0.0,0.0,0.0,0.0,0.0,0.0,0.0,0.0,0.0,0.0,0.0,0.0,0.0,0.0,0.0,0.0,-0.264779537916,-9.02211761475,0.882598459721,0.0,0.0,0.0,0.0,0.0,0.0,0.0,0.0,0.0
1609196700,94127,1644542239433187008,1,0.0,0.0,0.0,0.0,0.0,0.0,0.0,0.0,0.0,0.0,0.0,0.0,0.0,0.0,0.0,0.0,0.0,0.0,0.0,0.0,0.0,0.0,0.0,0.0,0.0,-0.137293100357,-7.9826130867,-0.343232750893,0.0,0.0,0.0,0.0,0.0,0.0,0.0,0.0,0.0
1611553900,94128,1644542239435203075,1,0.0,0.0,0.0,0.0,0.0,0.0,0.0,0.0,0.0,0.0,0.0,0.0,0.0,0.0,0.0,0.0,0.0,0.0,0.0,0.0,0.0,0.0,0.0,0.0,0.0,0.294199496508,-12.4348316193,-0.0784531980753,0.0,0.0,0.0,0.0,0.0,0.0,0.0,0.0,0.0
1613584000,94129,1644542239437216997,1,0.0,0.0,0.0,0.0,0.0,0.0,0.0,0.0,0.0,0.0,0.0,0.0,0.0,0.0,0.0,0.0,0.0,0.0,0.0,0.0,0.0,0.0,0.0,0.0,0.0,-0.0686465501785,-13.0624570847,-4.12859964371,0.0,0.0,0.0,0.0,0.0,0.0,0.0,0.0,0.0
1615573200,94130,1644542239439233065,1,0.0,0.0,0.0,0.0,0.0,0.0,0.0,0.0,0.0,0.0,0.0,0.0,0.0,0.0,0.0,0.0,0.0,0.0,0.0,0.0,0.0,0.0,0.0,0.0,0.0,-2.17707633972,-7.75706005096,0.725692093372,0.0,0.0,0.0,0.0,0.0,0.0,0.0,0.0,0.0
1617449600,94131,1644542239441245079,1,0.0,0.0,0.0,0.0,0.0,0.0,0.0,0.0,0.0,0.0,0.0,0.0,0.0,0.0,0.0,0.0,0.0,0.0,0.0,0.0,0.0,0.0,0.0,0.0,0.0,-1.31409108639,-9.45361042023,-0.343232750893,0.0,0.0,0.0,0.0,0.0,0.0,0.0,0.0,0.0
1619564900,94132,1644542239443261147,1,0.0,0.0,0.0,0.0,0.0,0.0,0.0,0.0,0.0,0.0,0.0,0.0,0.0,0.0,0.0,0.0,0.0,0.0,0.0,0.0,0.0,0.0,0.0,0.0,0.0,-1.83384346962,-7.62957334518,-1.60829055309,0.0,0.0,0.0,0.0,0.0,0.0,0.0,0.0,0.0
1621596300,94133,1644542239445275307,1,0.0,0.0,0.0,0.0,0.0,0.0,0.0,0.0,0.0,0.0,0.0,0.0,0.0,0.0,0.0,0.0,0.0,0.0,0.0,0.0,0.0,0.0,0.0,0.0,0.0,-1.83384346962,-8.88482475281,-2.25552940369,0.0,0.0,0.0,0.0,0.0,0.0,0.0,0.0,0.0
1623562200,94134,1644542239447291374,1,0.0,0.0,0.0,0.0,0.0,0.0,0.0,0.0,0.0,0.0,0.0,0.0,0.0,0.0,0.0,0.0,0.0,0.0,0.0,0.0,0.0,0.0,0.0,0.0,0.0,-1.54945063591,-8.56120491028,-1.45138418674,0.0,0.0,0.0,0.0,0.0,0.0,0.0,0.0,0.0
1625464700,94135,1644542239449305534,1,0.0,0.0,0.0,0.0,0.0,0.0,0.0,0.0,0.0,0.0,0.0,0.0,0.0,0.0,0.0,0.0,0.0,0.0,0.0,0.0,0.0,0.0,0.0,0.0,0.0,-1.04931151867,-9.43399715424,-1.5886772871,0.0,0.0,0.0,0.0,0.0,0.0,0.0,0.0,0.0
1627454900,94136,1644542239451321602,1,0.0,0.0,0.0,0.0,0.0,0.0,0.0,0.0,0.0,0.0,0.0,0.0,0.0,0.0,0.0,0.0,0.0,0.0,0.0,0.0,0.0,0.0,0.0,0.0,0.0,-0.804145276546,-8.80637168884,-1.47099745274,0.0,0.0,0.0,0.0,0.0,0.0,0.0,0.0,0.0
1629451500,94137,1644542239453335524,1,0.0,0.0,0.0,0.0,0.0,0.0,0.0,0.0,0.0,0.0,0.0,0.0,0.0,0.0,0.0,0.0,0.0,0.0,0.0,0.0,0.0,0.0,0.0,0.0,0.0,-0.274586200714,-9.16921710968,-1.17679798603,0.0,0.0,0.0,0.0,0.0,0.0,0.0,0.0,0.0
1631502800,94138,1644542239455349684,1,0.0,0.0,0.0,0.0,0.0,0.0,0.0,0.0,0.0,0.0,0.0,0.0,0.0,0.0,0.0,0.0,0.0,0.0,0.0,0.0,0.0,0.0,0.0,0.0,0.0,-0.490332484245,-8.94366455078,-0.402072638273,0.0,0.0,0.0,0.0,0.0,0.0,0.0,0.0,0.0
1633421300,94139,1644542239457367659,1,0.0,0.0,0.0,0.0,0.0,0.0,0.0,0.0,0.0,0.0,0.0,0.0,0.0,0.0,0.0,0.0,0.0,0.0,0.0,0.0,0.0,0.0,0.0,0.0,0.0,0.225552946329,-9.96355628967,0.725692093372,0.0,0.0,0.0,0.0,0.0,0.0,0.0,0.0,0.0
1635413000,94140,1644542239459383726,1,0.0,0.0,0.0,0.0,0.0,0.0,0.0,0.0,0.0,0.0,0.0,0.0,0.0,0.0,0.0,0.0,0.0,0.0,0.0,0.0,0.0,0.0,0.0,0.0,0.0,0.264779537916,-10.5127286911,1.08853816986,0.0,0.0,0.0,0.0,0.0,0.0,0.0,0.0,0.0
1637510900,94141,1644542239461397648,1,0.0,0.0,0.0,0.0,0.0,0.0,0.0,0.0,0.0,0.0,0.0,0.0,0.0,0.0,0.0,0.0,0.0,0.0,0.0,0.0,0.0,0.0,0.0,0.0,0.0,0.176519691944,-9.48303031921,0.951245009899,0.0,0.0,0.0,0.0,0.0,0.0,0.0,0.0,0.0
1639555500,94142,1644542239463411808,1,0.0,0.0,0.0,0.0,0.0,0.0,0.0,0.0,0.0,0.0,0.0,0.0,0.0,0.0,0.0,0.0,0.0,0.0,0.0,0.0,0.0,0.0,0.0,0.0,0.0,0.313812792301,-9.99297618866,0.343232750893,0.0,0.0,0.0,0.0,0.0,0.0,0.0,0.0,0.0
1641554100,94143,1644542239465427876,1,0.0,0.0,0.0,0.0,0.0,0.0,0.0,0.0,0.0,0.0,0.0,0.0,0.0,0.0,0.0,0.0,0.0,0.0,0.0,0.0,0.0,0.0,0.0,0.0,0.0,0.264779537916,-9.57129001617,0.294199496508,0.0,0.0,0.0,0.0,0.0,0.0,0.0,0.0,0.0
1643799700,94144,1644542239467441797,1,0.0,0.0,0.0,0.0,0.0,0.0,0.0,0.0,0.0,0.0,0.0,0.0,0.0,0.0,0.0,0.0,0.0,0.0,0.0,0.0,0.0,0.0,0.0,0.0,0.0,0.294199496508,-9.67916297913,0.264779537916,0.0,0.0,0.0,0.0,0.0,0.0,0.0,0.0,0.0
1645822500,94145,1644542239469458103,1,0.0,0.0,0.0,0.0,0.0,0.0,0.0,0.0,0.0,0.0,0.0,0.0,0.0,0.0,0.0,0.0,0.0,0.0,0.0,0.0,0.0,0.0,0.0,0.0,0.0,0.666852176189,-9.38496398926,0.343232750893,0.0,0.0,0.0,0.0,0.0,0.0,0.0,0.0,0.0
1647676300,94146,1644542239471469879,1,0.0,0.0,0.0,0.0,0.0,0.0,0.0,0.0,0.0,0.0,0.0,0.0,0.0,0.0,0.0,0.0,0.0,0.0,0.0,0.0,0.0,0.0,0.0,0.0,0.0,0.627625584602,-9.80665016174,0.00980664975941,0.0,0.0,0.0,0.0,0.0,0.0,0.0,0.0,0.0
1649715900,94147,1644542239473486185,1,0.0,0.0,0.0,0.0,0.0,0.0,0.0,0.0,0.0,0.0,0.0,0.0,0.0,0.0,0.0,0.0,0.0,0.0,0.0,0.0,0.0,0.0,0.0,0.0,0.0,0.245166242123,-9.62032318115,0.274586200714,0.0,0.0,0.0,0.0,0.0,0.0,0.0,0.0,0.0
1651944200,94148,1644542239475500345,1,0.0,0.0,0.0,0.0,0.0,0.0,0.0,0.0,0.0,0.0,0.0,0.0,0.0,0.0,0.0,0.0,0.0,0.0,0.0,0.0,0.0,0.0,0.0,0.0,0.0,0.0294199492782,-9.35554409027,0.343232750893,0.0,0.0,0.0,0.0,0.0,0.0,0.0,0.0,0.0
1653827100,94149,1644542239477516174,1,0.0,0.0,0.0,0.0,0.0,0.0,0.0,0.0,0.0,0.0,0.0,0.0,0.0,0.0,0.0,0.0,0.0,0.0,0.0,0.0,0.0,0.0,0.0,0.0,0.0,0.833565235138,-9.62032318115,0.0294199492782,0.0,0.0,0.0,0.0,0.0,0.0,0.0,0.0,0.0
1655675800,94150,1644542239479530334,1,0.0,0.0,0.0,0.0,0.0,0.0,0.0,0.0,0.0,0.0,0.0,0.0,0.0,0.0,0.0,0.0,0.0,0.0,0.0,0.0,0.0,0.0,0.0,0.0,0.0,1.20621788502,-9.21825122833,0.0392265990376,0.0,0.0,0.0,0.0,0.0,0.0,0.0,0.0,0.0
1657672100,94151,1644542239481544495,1,0.0,0.0,0.0,0.0,0.0,0.0,0.0,0.0,0.0,0.0,0.0,0.0,0.0,0.0,0.0,0.0,0.0,0.0,0.0,0.0,0.0,0.0,0.0,0.0,0.0,1.47099745274,-9.56148338318,-0.0686465501785,0.0,0.0,0.0,0.0,0.0,0.0,0.0,0.0,0.0
1659719700,94152,1644542239483560324,1,0.0,0.0,0.0,0.0,0.0,0.0,0.0,0.0,0.0,0.0,0.0,0.0,0.0,0.0,0.0,0.0,0.0,0.0,0.0,0.0,0.0,0.0,0.0,0.0,0.0,1.33370435238,-9.24767112732,0.166713044047,0.0,0.0,0.0,0.0,0.0,0.0,0.0,0.0,0.0
1662020100,94153,1644542239485574484,1,0.0,0.0,0.0,0.0,0.0,0.0,0.0,0.0,0.0,0.0,0.0,0.0,0.0,0.0,0.0,0.0,0.0,0.0,0.0,0.0,0.0,0.0,0.0,0.0,0.0,1.17679798603,-9.57129001617,0.402072638273,0.0,0.0,0.0,0.0,0.0,0.0,0.0,0.0,0.0
1663653400,94154,1644542239487588644,1,0.0,0.0,0.0,0.0,0.0,0.0,0.0,0.0,0.0,0.0,0.0,0.0,0.0,0.0,0.0,0.0,0.0,0.0,0.0,0.0,0.0,0.0,0.0,0.0,0.0,1.73577702045,-9.83607006073,0.274586200714,0.0,0.0,0.0,0.0,0.0,0.0,0.0,0.0,0.0
1665626500,94155,1644542239489604473,1,0.0,0.0,0.0,0.0,0.0,0.0,0.0,0.0,0.0,0.0,0.0,0.0,0.0,0.0,0.0,0.0,0.0,0.0,0.0,0.0,0.0,0.0,0.0,0.0,0.0,2.05939650536,-9.98316955566,0.558979034424,0.0,0.0,0.0,0.0,0.0,0.0,0.0,0.0,0.0
1667697800,94156,1644542239491618633,1,0.0,0.0,0.0,0.0,0.0,0.0,0.0,0.0,0.0,0.0,0.0,0.0,0.0,0.0,0.0,0.0,0.0,0.0,0.0,0.0,0.0,0.0,0.0,0.0,0.0,2.2359161377,-11.0324811935,3.71672034264,0.0,0.0,0.0,0.0,0.0,0.0,0.0,0.0,0.0
1669794300,94157,1644542239493632793,1,0.0,0.0,0.0,0.0,0.0,0.0,0.0,0.0,0.0,0.0,0.0,0.0,0.0,0.0,0.0,0.0,0.0,0.0,0.0,0.0,0.0,0.0,0.0,0.0,0.0,2.57914876938,-9.31631755829,0.313812792301,0.0,0.0,0.0,0.0,0.0,0.0,0.0,0.0,0.0
1671799800,94158,1644542239495646715,1,0.0,0.0,0.0,0.0,0.0,0.0,0.0,0.0,0.0,0.0,0.0,0.0,0.0,0.0,0.0,0.0,0.0,0.0,0.0,0.0,0.0,0.0,0.0,0.0,0.0,2.58895564079,-9.5222568512,-0.362846046686,0.0,0.0,0.0,0.0,0.0,0.0,0.0,0.0,0.0
1673790700,94159,1644542239497662783,1,0.0,0.0,0.0,0.0,0.0,0.0,0.0,0.0,0.0,0.0,0.0,0.0,0.0,0.0,0.0,0.0,0.0,0.0,0.0,0.0,0.0,0.0,0.0,0.0,0.0,2.49088907242,-9.94394302368,0.843371868134,0.0,0.0,0.0,0.0,0.0,0.0,0.0,0.0,0.0
1675713300,94160,1644542239499678850,1,0.0,0.0,0.0,0.0,0.0,0.0,0.0,0.0,0.0,0.0,0.0,0.0,0.0,0.0,0.0,0.0,0.0,0.0,0.0,0.0,0.0,0.0,0.0,0.0,0.0,1.81423020363,-9.53206348419,0.12748645246,0.0,0.0,0.0,0.0,0.0,0.0,0.0,0.0,0.0
1677594000,94161,1644542239501692772,1,0.0,0.0,0.0,0.0,0.0,0.0,0.0,0.0,0.0,0.0,0.0,0.0,0.0,0.0,0.0,0.0,0.0,0.0,0.0,0.0,0.0,0.0,0.0,0.0,0.0,2.00055646896,-9.21825122833,0.57859236002,0.0,0.0,0.0,0.0,0.0,0.0,0.0,0.0,0.0
1680034500,94162,1644542239503705025,1,0.0,0.0,0.0,0.0,0.0,0.0,0.0,0.0,0.0,0.0,0.0,0.0,0.0,0.0,0.0,0.0,0.0,0.0,0.0,0.0,0.0,0.0,0.0,0.0,0.0,1.75539028645,-10.0322027206,0.0,0.0,0.0,0.0,0.0,0.0,0.0,0.0,0.0,0.0
1682180400,94163,1644542239505723238,1,0.0,0.0,0.0,0.0,0.0,0.0,0.0,0.0,0.0,0.0,0.0,0.0,0.0,0.0,0.0,0.0,0.0,0.0,0.0,0.0,0.0,0.0,0.0,0.0,0.0,0.774725317955,-9.78703689575,0.696272134781,0.0,0.0,0.0,0.0,0.0,0.0,0.0,0.0,0.0
1684220400,94164,1644542239507737160,1,0.0,0.0,0.0,0.0,0.0,0.0,0.0,0.0,0.0,0.0,0.0,0.0,0.0,0.0,0.0,0.0,0.0,0.0,0.0,0.0,0.0,0.0,0.0,0.0,0.0,1.01008486748,-9.38496398926,0.362846046686,0.0,0.0,0.0,0.0,0.0,0.0,0.0,0.0,0.0
1686015900,94165,1644542239509749174,1,0.0,0.0,0.0,0.0,0.0,0.0,0.0,0.0,0.0,0.0,0.0,0.0,0.0,0.0,0.0,0.0,0.0,0.0,0.0,0.0,0.0,0.0,0.0,0.0,0.0,0.313812792301,-10.0125894547,-0.264779537916,0.0,0.0,0.0,0.0,0.0,0.0,0.0,0.0,0.0
1688049000,94166,1644542239511763096,1,0.0,0.0,0.0,0.0,0.0,0.0,0.0,0.0,0.0,0.0,0.0,0.0,0.0,0.0,0.0,0.0,0.0,0.0,0.0,0.0,0.0,0.0,0.0,0.0,0.0,-0.843371868134,-9.86548995972,0.362846046686,0.0,0.0,0.0,0.0,0.0,0.0,0.0,0.0,0.0
1690483500,94167,1644542239513779402,1,0.0,0.0,0.0,0.0,0.0,0.0,0.0,0.0,0.0,0.0,0.0,0.0,0.0,0.0,0.0,0.0,0.0,0.0,0.0,0.0,0.0,0.0,0.0,0.0,0.0,0.598205626011,-9.30651092529,-0.558979034424,0.0,0.0,0.0,0.0,0.0,0.0,0.0,0.0,0.0
1692209400,94168,1644542239515793562,1,0.0,0.0,0.0,0.0,0.0,0.0,0.0,0.0,0.0,0.0,0.0,0.0,0.0,0.0,0.0,0.0,0.0,0.0,0.0,0.0,0.0,0.0,0.0,0.0,0.0,0.166713044047,-8.62004470825,0.0,0.0,0.0,0.0,0.0,0.0,0.0,0.0,0.0,0.0
1694076200,94169,1644542239517809391,1,0.0,0.0,0.0,0.0,0.0,0.0,0.0,0.0,0.0,0.0,0.0,0.0,0.0,0.0,0.0,0.0,0.0,0.0,0.0,0.0,0.0,0.0,0.0,0.0,0.0,0.313812792301,-10.689248085,-0.451105892658,0.0,0.0,0.0,0.0,0.0,0.0,0.0,0.0,0.0
1695951000,94170,1644542239519825459,1,0.0,0.0,0.0,0.0,0.0,0.0,0.0,0.0,0.0,0.0,0.0,0.0,0.0,0.0,0.0,0.0,0.0,0.0,0.0,0.0,0.0,0.0,0.0,0.0,0.0,0.666852176189,-9.81645679474,2.20649623871,0.0,0.0,0.0,0.0,0.0,0.0,0.0,0.0,0.0
1697929800,94171,1644542239521839619,1,0.0,0.0,0.0,0.0,0.0,0.0,0.0,0.0,0.0,0.0,0.0,0.0,0.0,0.0,0.0,0.0,0.0,0.0,0.0,0.0,0.0,0.0,0.0,0.0,0.0,1.09834480286,-9.62032318115,0.343232750893,0.0,0.0,0.0,0.0,0.0,0.0,0.0,0.0,0.0
1700052600,94172,1644542239523853540,1,0.0,0.0,0.0,0.0,0.0,0.0,0.0,0.0,0.0,0.0,0.0,0.0,0.0,0.0,0.0,0.0,0.0,0.0,0.0,0.0,0.0,0.0,0.0,0.0,0.0,0.774725317955,-9.43399715424,-0.421685934067,0.0,0.0,0.0,0.0,0.0,0.0,0.0,0.0,0.0
1702001900,94173,1644542239525867701,1,0.0,0.0,0.0,0.0,0.0,0.0,0.0,0.0,0.0,0.0,0.0,0.0,0.0,0.0,0.0,0.0,0.0,0.0,0.0,0.0,0.0,0.0,0.0,0.0,0.0,0.764918684959,-9.58109664917,-0.274586200714,0.0,0.0,0.0,0.0,0.0,0.0,0.0,0.0,0.0
1703972300,94174,1644542239527883768,1,0.0,0.0,0.0,0.0,0.0,0.0,0.0,0.0,0.0,0.0,0.0,0.0,0.0,0.0,0.0,0.0,0.0,0.0,0.0,0.0,0.0,0.0,0.0,0.0,0.0,0.529559075832,-10.6107950211,1.66713047028,0.0,0.0,0.0,0.0,0.0,0.0,0.0,0.0,0.0
1705945900,94175,1644542239529897690,1,0.0,0.0,0.0,0.0,0.0,0.0,0.0,0.0,0.0,0.0,0.0,0.0,0.0,0.0,0.0,0.0,0.0,0.0,0.0,0.0,0.0,0.0,0.0,0.0,0.0,0.402072638273,-8.98289108276,-0.313812792301,0.0,0.0,0.0,0.0,0.0,0.0,0.0,0.0,0.0
1707961800,94176,1644542239531913757,1,0.0,0.0,0.0,0.0,0.0,0.0,0.0,0.0,0.0,0.0,0.0,0.0,0.0,0.0,0.0,0.0,0.0,0.0,0.0,0.0,0.0,0.0,0.0,0.0,0.0,0.166713044047,-9.66935634613,1.12776470184,0.0,0.0,0.0,0.0,0.0,0.0,0.0,0.0,0.0
1710568300,94177,1644542239533927917,1,0.0,0.0,0.0,0.0,0.0,0.0,0.0,0.0,0.0,0.0,0.0,0.0,0.0,0.0,0.0,0.0,0.0,0.0,0.0,0.0,0.0,0.0,0.0,0.0,0.0,0.490332484245,-9.20844459534,0.804145276546,0.0,0.0,0.0,0.0,0.0,0.0,0.0,0.0,0.0
1712702600,94178,1644542239535943747,1,0.0,0.0,0.0,0.0,0.0,0.0,0.0,0.0,0.0,0.0,0.0,0.0,0.0,0.0,0.0,0.0,0.0,0.0,0.0,0.0,0.0,0.0,0.0,0.0,0.0,1.01008486748,-9.88510322571,1.42196416855,0.0,0.0,0.0,0.0,0.0,0.0,0.0,0.0,0.0
1714667800,94179,1644542239537957907,1,0.0,0.0,0.0,0.0,0.0,0.0,0.0,0.0,0.0,0.0,0.0,0.0,0.0,0.0,0.0,0.0,0.0,0.0,0.0,0.0,0.0,0.0,0.0,0.0,0.0,0.951245009899,-9.53206348419,0.529559075832,0.0,0.0,0.0,0.0,0.0,0.0,0.0,0.0,0.0
1716303400,94180,1644542239539972067,1,0.0,0.0,0.0,0.0,0.0,0.0,0.0,0.0,0.0,0.0,0.0,0.0,0.0,0.0,0.0,0.0,0.0,0.0,0.0,0.0,0.0,0.0,0.0,0.0,0.0,0.912018418312,-9.8949098587,1.12776470184,0.0,0.0,0.0,0.0,0.0,0.0,0.0,0.0,0.0
1718246900,94181,1644542239541988134,1,0.0,0.0,0.0,0.0,0.0,0.0,0.0,0.0,0.0,0.0,0.0,0.0,0.0,0.0,0.0,0.0,0.0,0.0,0.0,0.0,0.0,0.0,0.0,0.0,0.0,0.833565235138,-9.57129001617,0.951245009899,0.0,0.0,0.0,0.0,0.0,0.0,0.0,0.0,0.0
1720250700,94182,1644542239544002295,1,0.0,0.0,0.0,0.0,0.0,0.0,0.0,0.0,0.0,0.0,0.0,0.0,0.0,0.0,0.0,0.0,0.0,0.0,0.0,0.0,0.0,0.0,0.0,0.0,0.0,1.2650578022,-9.86548995972,0.912018418312,0.0,0.0,0.0,0.0,0.0,0.0,0.0,0.0,0.0
1722505700,94183,1644542239546016455,1,0.0,0.0,0.0,0.0,0.0,0.0,0.0,0.0,0.0,0.0,0.0,0.0,0.0,0.0,0.0,0.0,0.0,0.0,0.0,0.0,0.0,0.0,0.0,0.0,0.0,0.725692093372,-9.48303031921,-0.598205626011,0.0,0.0,0.0,0.0,0.0,0.0,0.0,0.0,0.0
1724620300,94184,1644542239548030376,1,0.0,0.0,0.0,0.0,0.0,0.0,0.0,0.0,0.0,0.0,0.0,0.0,0.0,0.0,0.0,0.0,0.0,0.0,0.0,0.0,0.0,0.0,0.0,0.0,0.0,0.38245934248,-10.5911817551,-0.402072638273,0.0,0.0,0.0,0.0,0.0,0.0,0.0,0.0,0.0
1726781100,94185,1644542239550044537,1,0.0,0.0,0.0,0.0,0.0,0.0,0.0,0.0,0.0,0.0,0.0,0.0,0.0,0.0,0.0,0.0,0.0,0.0,0.0,0.0,0.0,0.0,0.0,0.0,0.0,-0.294199496508,-9.06134414673,0.402072638273,0.0,0.0,0.0,0.0,0.0,0.0,0.0,0.0,0.0
1728235000,94186,1644542239552060604,1,0.0,0.0,0.0,0.0,0.0,0.0,0.0,0.0,0.0,0.0,0.0,0.0,0.0,0.0,0.0,0.0,0.0,0.0,0.0,0.0,0.0,0.0,0.0,0.0,0.0,-6.04089641571,-11.2188072205,2.19668960571,0.0,0.0,0.0,0.0,0.0,0.0,0.0,0.0,0.0
1730262200,94187,1644542239554072618,1,0.0,0.0,0.0,0.0,0.0,0.0,0.0,0.0,0.0,0.0,0.0,0.0,0.0,0.0,0.0,0.0,0.0,0.0,0.0,0.0,0.0,0.0,0.0,0.0,0.0,-2.58895564079,-5.85456991196,-5.53095054626,0.0,0.0,0.0,0.0,0.0,0.0,0.0,0.0,0.0
1732439900,94188,1644542239556088686,1,0.0,0.0,0.0,0.0,0.0,0.0,0.0,0.0,0.0,0.0,0.0,0.0,0.0,0.0,0.0,0.0,0.0,0.0,0.0,0.0,0.0,0.0,0.0,0.0,0.0,0.12748645246,-9.30651092529,-10.4342756271,0.0,0.0,0.0,0.0,0.0,0.0,0.0,0.0,0.0
1734312600,94189,1644542239558104753,1,0.0,0.0,0.0,0.0,0.0,0.0,0.0,0.0,0.0,0.0,0.0,0.0,0.0,0.0,0.0,0.0,0.0,0.0,0.0,0.0,0.0,0.0,0.0,0.0,0.0,-0.313812792301,-10.708861351,4.21685934067,0.0,0.0,0.0,0.0,0.0,0.0,0.0,0.0,0.0
1736187500,94190,1644542239560118675,1,0.0,0.0,0.0,0.0,0.0,0.0,0.0,0.0,0.0,0.0,0.0,0.0,0.0,0.0,0.0,0.0,0.0,0.0,0.0,0.0,0.0,0.0,0.0,0.0,0.0,-0.12748645246,-11.620880127,0.961051702499,0.0,0.0,0.0,0.0,0.0,0.0,0.0,0.0,0.0
1738336700,94191,1644542239562132835,1,0.0,0.0,0.0,0.0,0.0,0.0,0.0,0.0,0.0,0.0,0.0,0.0,0.0,0.0,0.0,0.0,0.0,0.0,0.0,0.0,0.0,0.0,0.0,0.0,0.0,-0.166713044047,-9.62032318115,-1.37293100357,0.0,0.0,0.0,0.0,0.0,0.0,0.0,0.0,0.0
1740165200,94192,1644542239564148903,1,0.0,0.0,0.0,0.0,0.0,0.0,0.0,0.0,0.0,0.0,0.0,0.0,0.0,0.0,0.0,0.0,0.0,0.0,0.0,0.0,0.0,0.0,0.0,0.0,0.0,0.12748645246,-10.9442214966,-0.529559075832,0.0,0.0,0.0,0.0,0.0,0.0,0.0,0.0,0.0
1742631100,94193,1644542239566162825,1,0.0,0.0,0.0,0.0,0.0,0.0,0.0,0.0,0.0,0.0,0.0,0.0,0.0,0.0,0.0,0.0,0.0,0.0,0.0,0.0,0.0,0.0,0.0,0.0,0.0,-0.0980664938688,-9.75761604309,-0.196132987738,0.0,0.0,0.0,0.0,0.0,0.0,0.0,0.0,0.0
1744309100,94194,1644542239568176985,1,0.0,0.0,0.0,0.0,0.0,0.0,0.0,0.0,0.0,0.0,0.0,0.0,0.0,0.0,0.0,0.0,0.0,0.0,0.0,0.0,0.0,0.0,0.0,0.0,0.0,0.0,-8.85540485382,-0.57859236002,0.0,0.0,0.0,0.0,0.0,0.0,0.0,0.0,0.0
1746333800,94195,1644542239570193052,1,0.0,0.0,0.0,0.0,0.0,0.0,0.0,0.0,0.0,0.0,0.0,0.0,0.0,0.0,0.0,0.0,0.0,0.0,0.0,0.0,0.0,0.0,0.0,0.0,0.0,-0.0980664938688,-10.3362092972,-0.12748645246,0.0,0.0,0.0,0.0,0.0,0.0,0.0,0.0,0.0
1748474800,94196,1644542239572208881,1,0.0,0.0,0.0,0.0,0.0,0.0,0.0,0.0,0.0,0.0,0.0,0.0,0.0,0.0,0.0,0.0,0.0,0.0,0.0,0.0,0.0,0.0,0.0,0.0,0.0,-0.137293100357,-10.2381420135,0.274586200714,0.0,0.0,0.0,0.0,0.0,0.0,0.0,0.0,0.0
1750509500,94197,1644542239574223042,1,0.0,0.0,0.0,0.0,0.0,0.0,0.0,0.0,0.0,0.0,0.0,0.0,0.0,0.0,0.0,0.0,0.0,0.0,0.0,0.0,0.0,0.0,0.0,0.0,0.0,-0.245166242123,-8.75733852386,-0.0392265990376,0.0,0.0,0.0,0.0,0.0,0.0,0.0,0.0,0.0
1752589500,94198,1644542239576239347,1,0.0,0.0,0.0,0.0,0.0,0.0,0.0,0.0,0.0,0.0,0.0,0.0,0.0,0.0,0.0,0.0,0.0,0.0,0.0,0.0,0.0,0.0,0.0,0.0,0.0,-0.0392265990376,-9.71838951111,0.225552946329,0.0,0.0,0.0,0.0,0.0,0.0,0.0,0.0,0.0
1754440500,94199,1644542239578255415,1,0.0,0.0,0.0,0.0,0.0,0.0,0.0,0.0,0.0,0.0,0.0,0.0,0.0,0.0,0.0,0.0,0.0,0.0,0.0,0.0,0.0,0.0,0.0,0.0,0.0,-0.0294199492782,-10.6107950211,1.01989161968,0.0,0.0,0.0,0.0,0.0,0.0,0.0,0.0,0.0
1756841400,94200,1644542239580269337,1,0.0,0.0,0.0,0.0,0.0,0.0,0.0,0.0,0.0,0.0,0.0,0.0,0.0,0.0,0.0,0.0,0.0,0.0,0.0,0.0,0.0,0.0,0.0,0.0,0.0,-0.225552946329,-8.75733852386,0.558979034424,0.0,0.0,0.0,0.0,0.0,0.0,0.0,0.0,0.0
1759141800,94201,1644542239582285404,1,0.0,0.0,0.0,0.0,0.0,0.0,0.0,0.0,0.0,0.0,0.0,0.0,0.0,0.0,0.0,0.0,0.0,0.0,0.0,0.0,0.0,0.0,0.0,0.0,0.0,-0.294199496508,-8.98289108276,1.08853816986,0.0,0.0,0.0,0.0,0.0,0.0,0.0,0.0,0.0
1760474100,94202,1644542239584299564,1,0.0,0.0,0.0,0.0,0.0,0.0,0.0,0.0,0.0,0.0,0.0,0.0,0.0,0.0,0.0,0.0,0.0,0.0,0.0,0.0,0.0,0.0,0.0,0.0,0.0,-0.166713044047,-10.2381420135,2.12804293633,0.0,0.0,0.0,0.0,0.0,0.0,0.0,0.0,0.0
1762597700,94203,1644542239586315393,1,0.0,0.0,0.0,0.0,0.0,0.0,0.0,0.0,0.0,0.0,0.0,0.0,0.0,0.0,0.0,0.0,0.0,0.0,0.0,0.0,0.0,0.0,0.0,0.0,0.0,-0.245166242123,-8.69849872589,1.40235090256,0.0,0.0,0.0,0.0,0.0,0.0,0.0,0.0,0.0
1764541100,94204,1644542239588329554,1,0.0,0.0,0.0,0.0,0.0,0.0,0.0,0.0,0.0,0.0,0.0,0.0,0.0,0.0,0.0,0.0,0.0,0.0,0.0,0.0,0.0,0.0,0.0,0.0,0.0,-0.0784531980753,-9.35554409027,1.76519691944,0.0,0.0,0.0,0.0,0.0,0.0,0.0,0.0,0.0
1766536200,94205,1644542239590345621,1,0.0,0.0,0.0,0.0,0.0,0.0,0.0,0.0,0.0,0.0,0.0,0.0,0.0,0.0,0.0,0.0,0.0,0.0,0.0,0.0,0.0,0.0,0.0,0.0,0.0,0.137293100357,-10.4931154251,2.25552940369,0.0,0.0,0.0,0.0,0.0,0.0,0.0,0.0,0.0
1768410600,94206,1644542239592359781,1,0.0,0.0,0.0,0.0,0.0,0.0,0.0,0.0,0.0,0.0,0.0,0.0,0.0,0.0,0.0,0.0,0.0,0.0,0.0,0.0,0.0,0.0,0.0,0.0,0.0,-0.137293100357,-9.61051654816,1.37293100357,0.0,0.0,0.0,0.0,0.0,0.0,0.0,0.0,0.0
1770413400,94207,1644542239594375849,1,0.0,0.0,0.0,0.0,0.0,0.0,0.0,0.0,0.0,0.0,0.0,0.0,0.0,0.0,0.0,0.0,0.0,0.0,0.0,0.0,0.0,0.0,0.0,0.0,0.0,-0.225552946329,-8.78675842285,0.637432217598,0.0,0.0,0.0,0.0,0.0,0.0,0.0,0.0,0.0
1772918400,94208,1644542239596390009,1,0.0,0.0,0.0,0.0,0.0,0.0,0.0,0.0,0.0,0.0,0.0,0.0,0.0,0.0,0.0,0.0,0.0,0.0,0.0,0.0,0.0,0.0,0.0,0.0,0.0,-0.0392265990376,-9.8949098587,1.24544453621,0.0,0.0,0.0,0.0,0.0,0.0,0.0,0.0,0.0
1774595400,94209,1644542239598406076,1,0.0,0.0,0.0,0.0,0.0,0.0,0.0,0.0,0.0,0.0,0.0,0.0,0.0,0.0,0.0,0.0,0.0,0.0,0.0,0.0,0.0,0.0,0.0,0.0,0.0,0.00980664975941,-9.8949098587,1.33370435238,0.0,0.0,0.0,0.0,0.0,0.0,0.0,0.0,0.0
1777159200,94210,1644542239600419998,1,0.0,0.0,0.0,0.0,0.0,0.0,0.0,0.0,0.0,0.0,0.0,0.0,0.0,0.0,0.0,0.0,0.0,0.0,0.0,0.0,0.0,0.0,0.0,0.0,0.0,-0.12748645246,-9.02211761475,0.951245009899,0.0,0.0,0.0,0.0,0.0,0.0,0.0,0.0,0.0
1778533900,94211,1644542239602436066,1,0.0,0.0,0.0,0.0,0.0,0.0,0.0,0.0,0.0,0.0,0.0,0.0,0.0,0.0,0.0,0.0,0.0,0.0,0.0,0.0,0.0,0.0,0.0,0.0,0.0,-0.00980664975941,-9.71838951111,1.2552511692,0.0,0.0,0.0,0.0,0.0,0.0,0.0,0.0,0.0
1780488200,94212,1644542239604450226,1,0.0,0.0,0.0,0.0,0.0,0.0,0.0,0.0,0.0,0.0,0.0,0.0,0.0,0.0,0.0,0.0,0.0,0.0,0.0,0.0,0.0,0.0,0.0,0.0,0.0,-0.0980664938688,-9.62032318115,1.24544453621,0.0,0.0,0.0,0.0,0.0,0.0,0.0,0.0,0.0
1782583600,94213,1644542239606464148,1,0.0,0.0,0.0,0.0,0.0,0.0,0.0,0.0,0.0,0.0,0.0,0.0,0.0,0.0,0.0,0.0,0.0,0.0,0.0,0.0,0.0,0.0,0.0,0.0,0.0,-0.0980664938688,-9.48303031921,1.2552511692,0.0,0.0,0.0,0.0,0.0,0.0,0.0,0.0,0.0
1784821600,94214,1644542239608480215,1,0.0,0.0,0.0,0.0,0.0,0.0,0.0,0.0,0.0,0.0,0.0,0.0,0.0,0.0,0.0,0.0,0.0,0.0,0.0,0.0,0.0,0.0,0.0,0.0,0.0,-0.166713044047,-9.31631755829,1.16699135303,0.0,0.0,0.0,0.0,0.0,0.0,0.0,0.0,0.0
1786832100,94215,1644542239610496283,1,0.0,0.0,0.0,0.0,0.0,0.0,0.0,0.0,0.0,0.0,0.0,0.0,0.0,0.0,0.0,0.0,0.0,0.0,0.0,0.0,0.0,0.0,0.0,0.0,0.0,0.00980664975941,-9.88510322571,1.52983736992,0.0,0.0,0.0,0.0,0.0,0.0,0.0,0.0,0.0
1788826800,94216,1644542239612510443,1,0.0,0.0,0.0,0.0,0.0,0.0,0.0,0.0,0.0,0.0,0.0,0.0,0.0,0.0,0.0,0.0,0.0,0.0,0.0,0.0,0.0,0.0,0.0,0.0,0.0,-0.0392265990376,-9.35554409027,1.01989161968,0.0,0.0,0.0,0.0,0.0,0.0,0.0,0.0,0.0
1790810200,94217,1644542239614524364,1,0.0,0.0,0.0,0.0,0.0,0.0,0.0,0.0,0.0,0.0,0.0,0.0,0.0,0.0,0.0,0.0,0.0,0.0,0.0,0.0,0.0,0.0,0.0,0.0,0.0,-0.0784531980753,-9.34573745728,0.961051702499,0.0,0.0,0.0,0.0,0.0,0.0,0.0,0.0,0.0
1792771400,94218,1644542239616538525,1,0.0,0.0,0.0,0.0,0.0,0.0,0.0,0.0,0.0,0.0,0.0,0.0,0.0,0.0,0.0,0.0,0.0,0.0,0.0,0.0,0.0,0.0,0.0,0.0,0.0,-0.00980664975941,-9.8949098587,1.2552511692,0.0,0.0,0.0,0.0,0.0,0.0,0.0,0.0,0.0
1794800300,94219,1644542239618554592,1,0.0,0.0,0.0,0.0,0.0,0.0,0.0,0.0,0.0,0.0,0.0,0.0,0.0,0.0,0.0,0.0,0.0,0.0,0.0,0.0,0.0,0.0,0.0,0.0,0.0,0.0,-9.49283695221,0.813951909542,0.0,0.0,0.0,0.0,0.0,0.0,0.0,0.0,0.0
1796866200,94220,1644542239620568514,1,0.0,0.0,0.0,0.0,0.0,0.0,0.0,0.0,0.0,0.0,0.0,0.0,0.0,0.0,0.0,0.0,0.0,0.0,0.0,0.0,0.0,0.0,0.0,0.0,0.0,-0.0686465501785,-9.17902374268,0.451105892658,0.0,0.0,0.0,0.0,0.0,0.0,0.0,0.0,0.0
