%time,field.header.seq,field.header.stamp,field.header.frame_id,field.orientation.x,field.orientation.y,field.orientation.z,field.orientation.w,field.orientation_covariance0,field.orientation_covariance1,field.orientation_covariance2,field.orientation_covariance3,field.orientation_covariance4,field.orientation_covariance5,field.orientation_covariance6,field.orientation_covariance7,field.orientation_covariance8,field.angular_velocity.x,field.angular_velocity.y,field.angular_velocity.z,field.angular_velocity_covariance0,field.angular_velocity_covariance1,field.angular_velocity_covariance2,field.angular_velocity_covariance3,field.angular_velocity_covariance4,field.angular_velocity_covariance5,field.angular_velocity_covariance6,field.angular_velocity_covariance7,field.angular_velocity_covariance8,field.linear_acceleration.x,field.linear_acceleration.y,field.linear_acceleration.z,field.linear_acceleration_covariance0,field.linear_acceleration_covariance1,field.linear_acceleration_covariance2,field.linear_acceleration_covariance3,field.linear_acceleration_covariance4,field.linear_acceleration_covariance5,field.linear_acceleration_covariance6,field.linear_acceleration_covariance7,field.linear_acceleration_covariance8
200,187614,1644542427737929106,1,0.0,0.0,0.0,0.0,0.0,0.0,0.0,0.0,0.0,0.0,0.0,0.0,0.0,0.0,0.0,0.0,0.0,0.0,0.0,0.0,0.0,0.0,0.0,0.0,0.0,0.470719188452,-9.58109664917,0.0392265990376,0.0,0.0,0.0,0.0,0.0,0.0,0.0,0.0,0.0
1805300,187615,1644542427739943027,1,0.0,0.0,0.0,0.0,0.0,0.0,0.0,0.0,0.0,0.0,0.0,0.0,0.0,0.0,0.0,0.0,0.0,0.0,0.0,0.0,0.0,0.0,0.0,0.0,0.0,0.490332484245,-9.64974308014,0.0392265990376,0.0,0.0,0.0,0.0,0.0,0.0,0.0,0.0,0.0
3826100,187616,1644542427741959333,1,0.0,0.0,0.0,0.0,0.0,0.0,0.0,0.0,0.0,0.0,0.0,0.0,0.0,0.0,0.0,0.0,0.0,0.0,0.0,0.0,0.0,0.0,0.0,0.0,0.0,0.490332484245,-9.61051654816,0.0686465501785,0.0,0.0,0.0,0.0,0.0,0.0,0.0,0.0,0.0
5912600,187617,1644542427743971109,1,0.0,0.0,0.0,0.0,0.0,0.0,0.0,0.0,0.0,0.0,0.0,0.0,0.0,0.0,0.0,0.0,0.0,0.0,0.0,0.0,0.0,0.0,0.0,0.0,0.0,0.509945809841,-9.66935634613,0.00980664975941,0.0,0.0,0.0,0.0,0.0,0.0,0.0,0.0,0.0
7885100,187618,1644542427745987177,1,0.0,0.0,0.0,0.0,0.0,0.0,0.0,0.0,0.0,0.0,0.0,0.0,0.0,0.0,0.0,0.0,0.0,0.0,0.0,0.0,0.0,0.0,0.0,0.0,0.0,0.490332484245,-9.61051654816,0.0294199492782,0.0,0.0,0.0,0.0,0.0,0.0,0.0,0.0,0.0
9818900,187619,1644542427748001337,1,0.0,0.0,0.0,0.0,0.0,0.0,0.0,0.0,0.0,0.0,0.0,0.0,0.0,0.0,0.0,0.0,0.0,0.0,0.0,0.0,0.0,0.0,0.0,0.0,0.0,0.421685934067,-9.58109664917,0.0,0.0,0.0,0.0,0.0,0.0,0.0,0.0,0.0,0.0
11815200,187620,1644542427750015020,1,0.0,0.0,0.0,0.0,0.0,0.0,0.0,0.0,0.0,0.0,0.0,0.0,0.0,0.0,0.0,0.0,0.0,0.0,0.0,0.0,0.0,0.0,0.0,0.0,0.0,0.402072638273,-9.57129001617,-0.0294199492782,0.0,0.0,0.0,0.0,0.0,0.0,0.0,0.0,0.0
13700900,187621,1644542427752031326,1,0.0,0.0,0.0,0.0,0.0,0.0,0.0,0.0,0.0,0.0,0.0,0.0,0.0,0.0,0.0,0.0,0.0,0.0,0.0,0.0,0.0,0.0,0.0,0.0,0.0,0.451105892658,-9.56148338318,-0.0294199492782,0.0,0.0,0.0,0.0,0.0,0.0,0.0,0.0,0.0
15763800,187622,1644542427754045248,1,0.0,0.0,0.0,0.0,0.0,0.0,0.0,0.0,0.0,0.0,0.0,0.0,0.0,0.0,0.0,0.0,0.0,0.0,0.0,0.0,0.0,0.0,0.0,0.0,0.0,0.402072638273,-9.62032318115,-0.0294199492782,0.0,0.0,0.0,0.0,0.0,0.0,0.0,0.0,0.0
17742900,187623,1644542427756061316,1,0.0,0.0,0.0,0.0,0.0,0.0,0.0,0.0,0.0,0.0,0.0,0.0,0.0,0.0,0.0,0.0,0.0,0.0,0.0,0.0,0.0,0.0,0.0,0.0,0.0,0.421685934067,-9.61051654816,0.00980664975941,0.0,0.0,0.0,0.0,0.0,0.0,0.0,0.0,0.0
19742500,187624,1644542427758077145,1,0.0,0.0,0.0,0.0,0.0,0.0,0.0,0.0,0.0,0.0,0.0,0.0,0.0,0.0,0.0,0.0,0.0,0.0,0.0,0.0,0.0,0.0,0.0,0.0,0.0,0.470719188452,-9.64974308014,0.00980664975941,0.0,0.0,0.0,0.0,0.0,0.0,0.0,0.0,0.0
21711400,187625,1644542427760091305,1,0.0,0.0,0.0,0.0,0.0,0.0,0.0,0.0,0.0,0.0,0.0,0.0,0.0,0.0,0.0,0.0,0.0,0.0,0.0,0.0,0.0,0.0,0.0,0.0,0.0,0.509945809841,-9.66935634613,0.0294199492782,0.0,0.0,0.0,0.0,0.0,0.0,0.0,0.0,0.0
23657700,187626,1644542427762107134,1,0.0,0.0,0.0,0.0,0.0,0.0,0.0,0.0,0.0,0.0,0.0,0.0,0.0,0.0,0.0,0.0,0.0,0.0,0.0,0.0,0.0,0.0,0.0,0.0,0.0,0.490332484245,-9.62032318115,0.00980664975941,0.0,0.0,0.0,0.0,0.0,0.0,0.0,0.0,0.0
25892700,187627,1644542427764121056,1,0.0,0.0,0.0,0.0,0.0,0.0,0.0,0.0,0.0,0.0,0.0,0.0,0.0,0.0,0.0,0.0,0.0,0.0,0.0,0.0,0.0,0.0,0.0,0.0,0.0,0.529559075832,-9.61051654816,0.00980664975941,0.0,0.0,0.0,0.0,0.0,0.0,0.0,0.0,0.0
27938600,187628,1644542427766137123,1,0.0,0.0,0.0,0.0,0.0,0.0,0.0,0.0,0.0,0.0,0.0,0.0,0.0,0.0,0.0,0.0,0.0,0.0,0.0,0.0,0.0,0.0,0.0,0.0,0.0,0.470719188452,-9.62032318115,0.0392265990376,0.0,0.0,0.0,0.0,0.0,0.0,0.0,0.0,0.0
30117000,187629,1644542427768149137,1,0.0,0.0,0.0,0.0,0.0,0.0,0.0,0.0,0.0,0.0,0.0,0.0,0.0,0.0,0.0,0.0,0.0,0.0,0.0,0.0,0.0,0.0,0.0,0.0,0.0,0.509945809841,-9.56148338318,-0.00980664975941,0.0,0.0,0.0,0.0,0.0,0.0,0.0,0.0,0.0
767364700,187995,1644542428505541563,1,0.0,0.0,0.0,0.0,0.0,0.0,0.0,0.0,0.0,0.0,0.0,0.0,0.0,0.0,0.0,0.0,0.0,0.0,0.0,0.0,0.0,0.0,0.0,0.0,0.0,0.451105892658,-9.58109664917,0.0294199492782,0.0,0.0,0.0,0.0,0.0,0.0,0.0,0.0,0.0
769410700,187996,1644542428507555485,1,0.0,0.0,0.0,0.0,0.0,0.0,0.0,0.0,0.0,0.0,0.0,0.0,0.0,0.0,0.0,0.0,0.0,0.0,0.0,0.0,0.0,0.0,0.0,0.0,0.0,0.451105892658,-9.61051654816,0.0,0.0,0.0,0.0,0.0,0.0,0.0,0.0,0.0,0.0
771306400,187997,1644542428509569407,1,0.0,0.0,0.0,0.0,0.0,0.0,0.0,0.0,0.0,0.0,0.0,0.0,0.0,0.0,0.0,0.0,0.0,0.0,0.0,0.0,0.0,0.0,0.0,0.0,0.0,0.451105892658,-9.57129001617,0.0,0.0,0.0,0.0,0.0,0.0,0.0,0.0,0.0,0.0
773369400,187998,1644542428511585236,1,0.0,0.0,0.0,0.0,0.0,0.0,0.0,0.0,0.0,0.0,0.0,0.0,0.0,0.0,0.0,0.0,0.0,0.0,0.0,0.0,0.0,0.0,0.0,0.0,0.0,0.470719188452,-9.58109664917,0.00980664975941,0.0,0.0,0.0,0.0,0.0,0.0,0.0,0.0,0.0
775346900,187999,1644542428513599157,1,0.0,0.0,0.0,0.0,0.0,0.0,0.0,0.0,0.0,0.0,0.0,0.0,0.0,0.0,0.0,0.0,0.0,0.0,0.0,0.0,0.0,0.0,0.0,0.0,0.0,0.509945809841,-9.62032318115,0.00980664975941,0.0,0.0,0.0,0.0,0.0,0.0,0.0,0.0,0.0
777348300,188000,1644542428515613079,1,0.0,0.0,0.0,0.0,0.0,0.0,0.0,0.0,0.0,0.0,0.0,0.0,0.0,0.0,0.0,0.0,0.0,0.0,0.0,0.0,0.0,0.0,0.0,0.0,0.0,0.470719188452,-9.62032318115,0.0,0.0,0.0,0.0,0.0,0.0,0.0,0.0,0.0,0.0
779419100,188001,1644542428517629147,1,0.0,0.0,0.0,0.0,0.0,0.0,0.0,0.0,0.0,0.0,0.0,0.0,0.0,0.0,0.0,0.0,0.0,0.0,0.0,0.0,0.0,0.0,0.0,0.0,0.0,0.470719188452,-9.62032318115,0.0294199492782,0.0,0.0,0.0,0.0,0.0,0.0,0.0,0.0,0.0
781304400,188002,1644542428519643068,1,0.0,0.0,0.0,0.0,0.0,0.0,0.0,0.0,0.0,0.0,0.0,0.0,0.0,0.0,0.0,0.0,0.0,0.0,0.0,0.0,0.0,0.0,0.0,0.0,0.0,0.529559075832,-9.61051654816,0.0294199492782,0.0,0.0,0.0,0.0,0.0,0.0,0.0,0.0,0.0
783306300,188003,1644542428521656990,1,0.0,0.0,0.0,0.0,0.0,0.0,0.0,0.0,0.0,0.0,0.0,0.0,0.0,0.0,0.0,0.0,0.0,0.0,0.0,0.0,0.0,0.0,0.0,0.0,0.0,0.490332484245,-9.62032318115,0.00980664975941,0.0,0.0,0.0,0.0,0.0,0.0,0.0,0.0,0.0
785204900,188004,1644542428523670912,1,0.0,0.0,0.0,0.0,0.0,0.0,0.0,0.0,0.0,0.0,0.0,0.0,0.0,0.0,0.0,0.0,0.0,0.0,0.0,0.0,0.0,0.0,0.0,0.0,0.0,0.451105892658,-9.64974308014,0.00980664975941,0.0,0.0,0.0,0.0,0.0,0.0,0.0,0.0,0.0
787356100,188005,1644542428525686741,1,0.0,0.0,0.0,0.0,0.0,0.0,0.0,0.0,0.0,0.0,0.0,0.0,0.0,0.0,0.0,0.0,0.0,0.0,0.0,0.0,0.0,0.0,0.0,0.0,0.0,0.470719188452,-9.58109664917,0.00980664975941,0.0,0.0,0.0,0.0,0.0,0.0,0.0,0.0,0.0
789437300,188006,1644542428527700663,1,0.0,0.0,0.0,0.0,0.0,0.0,0.0,0.0,0.0,0.0,0.0,0.0,0.0,0.0,0.0,0.0,0.0,0.0,0.0,0.0,0.0,0.0,0.0,0.0,0.0,0.509945809841,-9.61051654816,0.00980664975941,0.0,0.0,0.0,0.0,0.0,0.0,0.0,0.0,0.0
791312600,188007,1644542428529714584,1,0.0,0.0,0.0,0.0,0.0,0.0,0.0,0.0,0.0,0.0,0.0,0.0,0.0,0.0,0.0,0.0,0.0,0.0,0.0,0.0,0.0,0.0,0.0,0.0,0.0,0.490332484245,-9.61051654816,0.00980664975941,0.0,0.0,0.0,0.0,0.0,0.0,0.0,0.0,0.0
793717100,188008,1644542428531728506,1,0.0,0.0,0.0,0.0,0.0,0.0,0.0,0.0,0.0,0.0,0.0,0.0,0.0,0.0,0.0,0.0,0.0,0.0,0.0,0.0,0.0,0.0,0.0,0.0,0.0,0.490332484245,-9.61051654816,0.0392265990376,0.0,0.0,0.0,0.0,0.0,0.0,0.0,0.0,0.0
795538900,188009,1644542428533744335,1,0.0,0.0,0.0,0.0,0.0,0.0,0.0,0.0,0.0,0.0,0.0,0.0,0.0,0.0,0.0,0.0,0.0,0.0,0.0,0.0,0.0,0.0,0.0,0.0,0.0,0.490332484245,-9.58109664917,0.0392265990376,0.0,0.0,0.0,0.0,0.0,0.0,0.0,0.0,0.0
797661100,188010,1644542428535758257,1,0.0,0.0,0.0,0.0,0.0,0.0,0.0,0.0,0.0,0.0,0.0,0.0,0.0,0.0,0.0,0.0,0.0,0.0,0.0,0.0,0.0,0.0,0.0,0.0,0.0,0.421685934067,-9.53206348419,0.0294199492782,0.0,0.0,0.0,0.0,0.0,0.0,0.0,0.0,0.0
799667800,188011,1644542428537770271,1,0.0,0.0,0.0,0.0,0.0,0.0,0.0,0.0,0.0,0.0,0.0,0.0,0.0,0.0,0.0,0.0,0.0,0.0,0.0,0.0,0.0,0.0,0.0,0.0,0.0,0.402072638273,-9.61051654816,-0.00980664975941,0.0,0.0,0.0,0.0,0.0,0.0,0.0,0.0,0.0
801692300,188012,1644542428539786100,1,0.0,0.0,0.0,0.0,0.0,0.0,0.0,0.0,0.0,0.0,0.0,0.0,0.0,0.0,0.0,0.0,0.0,0.0,0.0,0.0,0.0,0.0,0.0,0.0,0.0,0.470719188452,-9.61051654816,0.0,0.0,0.0,0.0,0.0,0.0,0.0,0.0,0.0,0.0
804090900,188013,1644542428541800022,1,0.0,0.0,0.0,0.0,0.0,0.0,0.0,0.0,0.0,0.0,0.0,0.0,0.0,0.0,0.0,0.0,0.0,0.0,0.0,0.0,0.0,0.0,0.0,0.0,0.0,0.451105892658,-9.61051654816,-0.0294199492782,0.0,0.0,0.0,0.0,0.0,0.0,0.0,0.0,0.0
805574600,188014,1644542428543813944,1,0.0,0.0,0.0,0.0,0.0,0.0,0.0,0.0,0.0,0.0,0.0,0.0,0.0,0.0,0.0,0.0,0.0,0.0,0.0,0.0,0.0,0.0,0.0,0.0,0.0,0.470719188452,-9.62032318115,0.0,0.0,0.0,0.0,0.0,0.0,0.0,0.0,0.0,0.0
807637200,188015,1644542428545830011,1,0.0,0.0,0.0,0.0,0.0,0.0,0.0,0.0,0.0,0.0,0.0,0.0,0.0,0.0,0.0,0.0,0.0,0.0,0.0,0.0,0.0,0.0,0.0,0.0,0.0,0.470719188452,-9.61051654816,0.0,0.0,0.0,0.0,0.0,0.0,0.0,0.0,0.0,0.0
809601800,188016,1644542428547843933,1,0.0,0.0,0.0,0.0,0.0,0.0,0.0,0.0,0.0,0.0,0.0,0.0,0.0,0.0,0.0,0.0,0.0,0.0,0.0,0.0,0.0,0.0,0.0,0.0,0.0,0.509945809841,-9.61051654816,0.00980664975941,0.0,0.0,0.0,0.0,0.0,0.0,0.0,0.0,0.0
811506700,188017,1644542428549859762,1,0.0,0.0,0.0,0.0,0.0,0.0,0.0,0.0,0.0,0.0,0.0,0.0,0.0,0.0,0.0,0.0,0.0,0.0,0.0,0.0,0.0,0.0,0.0,0.0,0.0,0.490332484245,-9.66935634613,0.0294199492782,0.0,0.0,0.0,0.0,0.0,0.0,0.0,0.0,0.0
813449400,188018,1644542428551873684,1,0.0,0.0,0.0,0.0,0.0,0.0,0.0,0.0,0.0,0.0,0.0,0.0,0.0,0.0,0.0,0.0,0.0,0.0,0.0,0.0,0.0,0.0,0.0,0.0,0.0,0.549172401428,-9.62032318115,0.0294199492782,0.0,0.0,0.0,0.0,0.0,0.0,0.0,0.0,0.0
815446100,188019,1644542428553889751,1,0.0,0.0,0.0,0.0,0.0,0.0,0.0,0.0,0.0,0.0,0.0,0.0,0.0,0.0,0.0,0.0,0.0,0.0,0.0,0.0,0.0,0.0,0.0,0.0,0.0,0.529559075832,-9.64974308014,0.0392265990376,0.0,0.0,0.0,0.0,0.0,0.0,0.0,0.0,0.0
817517300,188020,1644542428555901527,1,0.0,0.0,0.0,0.0,0.0,0.0,0.0,0.0,0.0,0.0,0.0,0.0,0.0,0.0,0.0,0.0,0.0,0.0,0.0,0.0,0.0,0.0,0.0,0.0,0.0,0.549172401428,-9.64974308014,0.0,0.0,0.0,0.0,0.0,0.0,0.0,0.0,0.0,0.0
819488300,188021,1644542428557917595,1,0.0,0.0,0.0,0.0,0.0,0.0,0.0,0.0,0.0,0.0,0.0,0.0,0.0,0.0,0.0,0.0,0.0,0.0,0.0,0.0,0.0,0.0,0.0,0.0,0.0,0.529559075832,-9.64974308014,0.0294199492782,0.0,0.0,0.0,0.0,0.0,0.0,0.0,0.0,0.0
821616200,188022,1644542428559931278,1,0.0,0.0,0.0,0.0,0.0,0.0,0.0,0.0,0.0,0.0,0.0,0.0,0.0,0.0,0.0,0.0,0.0,0.0,0.0,0.0,0.0,0.0,0.0,0.0,0.0,0.558979034424,-9.62032318115,0.0980664938688,0.0,0.0,0.0,0.0,0.0,0.0,0.0,0.0,0.0
823519500,188023,1644542428561945200,1,0.0,0.0,0.0,0.0,0.0,0.0,0.0,0.0,0.0,0.0,0.0,0.0,0.0,0.0,0.0,0.0,0.0,0.0,0.0,0.0,0.0,0.0,0.0,0.0,0.0,0.57859236002,-9.66935634613,0.137293100357,0.0,0.0,0.0,0.0,0.0,0.0,0.0,0.0,0.0
825521900,188024,1644542428563961267,1,0.0,0.0,0.0,0.0,0.0,0.0,0.0,0.0,0.0,0.0,0.0,0.0,0.0,0.0,0.0,0.0,0.0,0.0,0.0,0.0,0.0,0.0,0.0,0.0,0.0,0.57859236002,-9.67916297913,0.0686465501785,0.0,0.0,0.0,0.0,0.0,0.0,0.0,0.0,0.0
827926600,188025,1644542428565975189,1,0.0,0.0,0.0,0.0,0.0,0.0,0.0,0.0,0.0,0.0,0.0,0.0,0.0,0.0,0.0,0.0,0.0,0.0,0.0,0.0,0.0,0.0,0.0,0.0,0.0,0.549172401428,-9.66935634613,0.0392265990376,0.0,0.0,0.0,0.0,0.0,0.0,0.0,0.0,0.0
829832600,188026,1644542428567989111,1,0.0,0.0,0.0,0.0,0.0,0.0,0.0,0.0,0.0,0.0,0.0,0.0,0.0,0.0,0.0,0.0,0.0,0.0,0.0,0.0,0.0,0.0,0.0,0.0,0.0,0.558979034424,-9.64974308014,0.12748645246,0.0,0.0,0.0,0.0,0.0,0.0,0.0,0.0,0.0
831842800,188027,1644542428570003033,1,0.0,0.0,0.0,0.0,0.0,0.0,0.0,0.0,0.0,0.0,0.0,0.0,0.0,0.0,0.0,0.0,0.0,0.0,0.0,0.0,0.0,0.0,0.0,0.0,0.0,0.558979034424,-9.67916297913,0.00980664975941,0.0,0.0,0.0,0.0,0.0,0.0,0.0,0.0,0.0
833822900,188028,1644542428572019100,1,0.0,0.0,0.0,0.0,0.0,0.0,0.0,0.0,0.0,0.0,0.0,0.0,0.0,0.0,0.0,0.0,0.0,0.0,0.0,0.0,0.0,0.0,0.0,0.0,0.0,0.558979034424,-9.64974308014,0.0294199492782,0.0,0.0,0.0,0.0,0.0,0.0,0.0,0.0,0.0
835745100,188029,1644542428574033022,1,0.0,0.0,0.0,0.0,0.0,0.0,0.0,0.0,0.0,0.0,0.0,0.0,0.0,0.0,0.0,0.0,0.0,0.0,0.0,0.0,0.0,0.0,0.0,0.0,0.0,0.549172401428,-9.67916297913,0.0980664938688,0.0,0.0,0.0,0.0,0.0,0.0,0.0,0.0,0.0
837806900,188030,1644542428576048851,1,0.0,0.0,0.0,0.0,0.0,0.0,0.0,0.0,0.0,0.0,0.0,0.0,0.0,0.0,0.0,0.0,0.0,0.0,0.0,0.0,0.0,0.0,0.0,0.0,0.0,0.529559075832,-9.61051654816,0.0392265990376,0.0,0.0,0.0,0.0,0.0,0.0,0.0,0.0,0.0
839679800,188031,1644542428578062773,1,0.0,0.0,0.0,0.0,0.0,0.0,0.0,0.0,0.0,0.0,0.0,0.0,0.0,0.0,0.0,0.0,0.0,0.0,0.0,0.0,0.0,0.0,0.0,0.0,0.0,0.490332484245,-9.61051654816,0.00980664975941,0.0,0.0,0.0,0.0,0.0,0.0,0.0,0.0,0.0
841759100,188032,1644542428580078602,1,0.0,0.0,0.0,0.0,0.0,0.0,0.0,0.0,0.0,0.0,0.0,0.0,0.0,0.0,0.0,0.0,0.0,0.0,0.0,0.0,0.0,0.0,0.0,0.0,0.0,0.490332484245,-9.61051654816,0.0294199492782,0.0,0.0,0.0,0.0,0.0,0.0,0.0,0.0,0.0
843704700,188033,1644542428582090616,1,0.0,0.0,0.0,0.0,0.0,0.0,0.0,0.0,0.0,0.0,0.0,0.0,0.0,0.0,0.0,0.0,0.0,0.0,0.0,0.0,0.0,0.0,0.0,0.0,0.0,0.529559075832,-9.56148338318,-0.00980664975941,0.0,0.0,0.0,0.0,0.0,0.0,0.0,0.0,0.0
845791900,188034,1644542428584106445,1,0.0,0.0,0.0,0.0,0.0,0.0,0.0,0.0,0.0,0.0,0.0,0.0,0.0,0.0,0.0,0.0,0.0,0.0,0.0,0.0,0.0,0.0,0.0,0.0,0.0,0.529559075832,-9.64974308014,0.00980664975941,0.0,0.0,0.0,0.0,0.0,0.0,0.0,0.0,0.0
847832000,188035,1644542428586122274,1,0.0,0.0,0.0,0.0,0.0,0.0,0.0,0.0,0.0,0.0,0.0,0.0,0.0,0.0,0.0,0.0,0.0,0.0,0.0,0.0,0.0,0.0,0.0,0.0,0.0,0.529559075832,-9.64974308014,0.0294199492782,0.0,0.0,0.0,0.0,0.0,0.0,0.0,0.0,0.0
849880000,188036,1644542428588136196,1,0.0,0.0,0.0,0.0,0.0,0.0,0.0,0.0,0.0,0.0,0.0,0.0,0.0,0.0,0.0,0.0,0.0,0.0,0.0,0.0,0.0,0.0,0.0,0.0,0.0,0.558979034424,-9.64974308014,0.00980664975941,0.0,0.0,0.0,0.0,0.0,0.0,0.0,0.0,0.0
852270200,188037,1644542428590150118,1,0.0,0.0,0.0,0.0,0.0,0.0,0.0,0.0,0.0,0.0,0.0,0.0,0.0,0.0,0.0,0.0,0.0,0.0,0.0,0.0,0.0,0.0,0.0,0.0,0.0,0.558979034424,-9.64974308014,0.0392265990376,0.0,0.0,0.0,0.0,0.0,0.0,0.0,0.0,0.0
853862700,188038,1644542428592164040,1,0.0,0.0,0.0,0.0,0.0,0.0,0.0,0.0,0.0,0.0,0.0,0.0,0.0,0.0,0.0,0.0,0.0,0.0,0.0,0.0,0.0,0.0,0.0,0.0,0.0,0.549172401428,-9.66935634613,0.00980664975941,0.0,0.0,0.0,0.0,0.0,0.0,0.0,0.0,0.0
855802000,188039,1644542428594180107,1,0.0,0.0,0.0,0.0,0.0,0.0,0.0,0.0,0.0,0.0,0.0,0.0,0.0,0.0,0.0,0.0,0.0,0.0,0.0,0.0,0.0,0.0,0.0,0.0,0.0,0.549172401428,-9.62032318115,0.0784531980753,0.0,0.0,0.0,0.0,0.0,0.0,0.0,0.0,0.0
857934400,188040,1644542428596194029,1,0.0,0.0,0.0,0.0,0.0,0.0,0.0,0.0,0.0,0.0,0.0,0.0,0.0,0.0,0.0,0.0,0.0,0.0,0.0,0.0,0.0,0.0,0.0,0.0,0.0,0.558979034424,-9.62032318115,0.0686465501785,0.0,0.0,0.0,0.0,0.0,0.0,0.0,0.0,0.0
859884200,188041,1644542428598207951,1,0.0,0.0,0.0,0.0,0.0,0.0,0.0,0.0,0.0,0.0,0.0,0.0,0.0,0.0,0.0,0.0,0.0,0.0,0.0,0.0,0.0,0.0,0.0,0.0,0.0,0.57859236002,-9.58109664917,0.0392265990376,0.0,0.0,0.0,0.0,0.0,0.0,0.0,0.0,0.0
862030200,188042,1644542428600223780,1,0.0,0.0,0.0,0.0,0.0,0.0,0.0,0.0,0.0,0.0,0.0,0.0,0.0,0.0,0.0,0.0,0.0,0.0,0.0,0.0,0.0,0.0,0.0,0.0,0.0,0.57859236002,-9.64974308014,0.0686465501785,0.0,0.0,0.0,0.0,0.0,0.0,0.0,0.0,0.0
864001600,188043,1644542428602237701,1,0.0,0.0,0.0,0.0,0.0,0.0,0.0,0.0,0.0,0.0,0.0,0.0,0.0,0.0,0.0,0.0,0.0,0.0,0.0,0.0,0.0,0.0,0.0,0.0,0.0,0.549172401428,-9.66935634613,0.0686465501785,0.0,0.0,0.0,0.0,0.0,0.0,0.0,0.0,0.0
866038400,188044,1644542428604251623,1,0.0,0.0,0.0,0.0,0.0,0.0,0.0,0.0,0.0,0.0,0.0,0.0,0.0,0.0,0.0,0.0,0.0,0.0,0.0,0.0,0.0,0.0,0.0,0.0,0.0,0.558979034424,-9.64974308014,0.12748645246,0.0,0.0,0.0,0.0,0.0,0.0,0.0,0.0,0.0
868142500,188045,1644542428606267691,1,0.0,0.0,0.0,0.0,0.0,0.0,0.0,0.0,0.0,0.0,0.0,0.0,0.0,0.0,0.0,0.0,0.0,0.0,0.0,0.0,0.0,0.0,0.0,0.0,0.0,0.558979034424,-9.66935634613,0.0686465501785,0.0,0.0,0.0,0.0,0.0,0.0,0.0,0.0,0.0
870352600,188046,1644542428608281612,1,0.0,0.0,0.0,0.0,0.0,0.0,0.0,0.0,0.0,0.0,0.0,0.0,0.0,0.0,0.0,0.0,0.0,0.0,0.0,0.0,0.0,0.0,0.0,0.0,0.0,0.549172401428,-9.64974308014,0.0294199492782,0.0,0.0,0.0,0.0,0.0,0.0,0.0,0.0,0.0
872245000,188047,1644542428610295296,1,0.0,0.0,0.0,0.0,0.0,0.0,0.0,0.0,0.0,0.0,0.0,0.0,0.0,0.0,0.0,0.0,0.0,0.0,0.0,0.0,0.0,0.0,0.0,0.0,0.0,0.490332484245,-9.66935634613,0.0,0.0,0.0,0.0,0.0,0.0,0.0,0.0,0.0,0.0
874070400,188048,1644542428612311363,1,0.0,0.0,0.0,0.0,0.0,0.0,0.0,0.0,0.0,0.0,0.0,0.0,0.0,0.0,0.0,0.0,0.0,0.0,0.0,0.0,0.0,0.0,0.0,0.0,0.0,0.490332484245,-9.61051654816,0.0392265990376,0.0,0.0,0.0,0.0,0.0,0.0,0.0,0.0,0.0
876199300,188049,1644542428614325285,1,0.0,0.0,0.0,0.0,0.0,0.0,0.0,0.0,0.0,0.0,0.0,0.0,0.0,0.0,0.0,0.0,0.0,0.0,0.0,0.0,0.0,0.0,0.0,0.0,0.0,0.529559075832,-9.61051654816,0.0294199492782,0.0,0.0,0.0,0.0,0.0,0.0,0.0,0.0,0.0
878555200,188050,1644542428616339207,1,0.0,0.0,0.0,0.0,0.0,0.0,0.0,0.0,0.0,0.0,0.0,0.0,0.0,0.0,0.0,0.0,0.0,0.0,0.0,0.0,0.0,0.0,0.0,0.0,0.0,0.529559075832,-9.61051654816,0.0,0.0,0.0,0.0,0.0,0.0,0.0,0.0,0.0,0.0
880804700,188051,1644542428618355274,1,0.0,0.0,0.0,0.0,0.0,0.0,0.0,0.0,0.0,0.0,0.0,0.0,0.0,0.0,0.0,0.0,0.0,0.0,0.0,0.0,0.0,0.0,0.0,0.0,0.0,0.470719188452,-9.58109664917,0.0294199492782,0.0,0.0,0.0,0.0,0.0,0.0,0.0,0.0,0.0
882095800,188052,1644542428620369196,1,0.0,0.0,0.0,0.0,0.0,0.0,0.0,0.0,0.0,0.0,0.0,0.0,0.0,0.0,0.0,0.0,0.0,0.0,0.0,0.0,0.0,0.0,0.0,0.0,0.0,0.470719188452,-9.61051654816,0.0,0.0,0.0,0.0,0.0,0.0,0.0,0.0,0.0,0.0
884060300,188053,1644542428622385025,1,0.0,0.0,0.0,0.0,0.0,0.0,0.0,0.0,0.0,0.0,0.0,0.0,0.0,0.0,0.0,0.0,0.0,0.0,0.0,0.0,0.0,0.0,0.0,0.0,0.0,0.490332484245,-9.62032318115,0.0784531980753,0.0,0.0,0.0,0.0,0.0,0.0,0.0,0.0,0.0
886111700,188054,1644542428624398947,1,0.0,0.0,0.0,0.0,0.0,0.0,0.0,0.0,0.0,0.0,0.0,0.0,0.0,0.0,0.0,0.0,0.0,0.0,0.0,0.0,0.0,0.0,0.0,0.0,0.0,0.470719188452,-9.62032318115,0.0784531980753,0.0,0.0,0.0,0.0,0.0,0.0,0.0,0.0,0.0
888033500,188055,1644542428626414776,1,0.0,0.0,0.0,0.0,0.0,0.0,0.0,0.0,0.0,0.0,0.0,0.0,0.0,0.0,0.0,0.0,0.0,0.0,0.0,0.0,0.0,0.0,0.0,0.0,0.0,0.509945809841,-9.64974308014,0.12748645246,0.0,0.0,0.0,0.0,0.0,0.0,0.0,0.0,0.0
890610000,188056,1644542428628428698,1,0.0,0.0,0.0,0.0,0.0,0.0,0.0,0.0,0.0,0.0,0.0,0.0,0.0,0.0,0.0,0.0,0.0,0.0,0.0,0.0,0.0,0.0,0.0,0.0,0.0,0.490332484245,-9.66935634613,0.137293100357,0.0,0.0,0.0,0.0,0.0,0.0,0.0,0.0,0.0
892090600,188057,1644542428630442619,1,0.0,0.0,0.0,0.0,0.0,0.0,0.0,0.0,0.0,0.0,0.0,0.0,0.0,0.0,0.0,0.0,0.0,0.0,0.0,0.0,0.0,0.0,0.0,0.0,0.0,0.549172401428,-9.64974308014,0.137293100357,0.0,0.0,0.0,0.0,0.0,0.0,0.0,0.0,0.0
894051300,188058,1644542428632458448,1,0.0,0.0,0.0,0.0,0.0,0.0,0.0,0.0,0.0,0.0,0.0,0.0,0.0,0.0,0.0,0.0,0.0,0.0,0.0,0.0,0.0,0.0,0.0,0.0,0.0,0.470719188452,-9.66935634613,0.166713044047,0.0,0.0,0.0,0.0,0.0,0.0,0.0,0.0,0.0
896371500,188059,1644542428634472609,1,0.0,0.0,0.0,0.0,0.0,0.0,0.0,0.0,0.0,0.0,0.0,0.0,0.0,0.0,0.0,0.0,0.0,0.0,0.0,0.0,0.0,0.0,0.0,0.0,0.0,0.529559075832,-9.67916297913,0.137293100357,0.0,0.0,0.0,0.0,0.0,0.0,0.0,0.0,0.0
898532800,188060,1644542428636488438,1,0.0,0.0,0.0,0.0,0.0,0.0,0.0,0.0,0.0,0.0,0.0,0.0,0.0,0.0,0.0,0.0,0.0,0.0,0.0,0.0,0.0,0.0,0.0,0.0,0.0,0.451105892658,-9.62032318115,0.12748645246,0.0,0.0,0.0,0.0,0.0,0.0,0.0,0.0,0.0
900427800,188061,1644542428638502359,1,0.0,0.0,0.0,0.0,0.0,0.0,0.0,0.0,0.0,0.0,0.0,0.0,0.0,0.0,0.0,0.0,0.0,0.0,0.0,0.0,0.0,0.0,0.0,0.0,0.0,0.490332484245,-9.62032318115,0.12748645246,0.0,0.0,0.0,0.0,0.0,0.0,0.0,0.0,0.0
902350500,188062,1644542428640516281,1,0.0,0.0,0.0,0.0,0.0,0.0,0.0,0.0,0.0,0.0,0.0,0.0,0.0,0.0,0.0,0.0,0.0,0.0,0.0,0.0,0.0,0.0,0.0,0.0,0.0,0.470719188452,-9.64974308014,0.0784531980753,0.0,0.0,0.0,0.0,0.0,0.0,0.0,0.0,0.0
904415400,188063,1644542428642532110,1,0.0,0.0,0.0,0.0,0.0,0.0,0.0,0.0,0.0,0.0,0.0,0.0,0.0,0.0,0.0,0.0,0.0,0.0,0.0,0.0,0.0,0.0,0.0,0.0,0.0,0.451105892658,-9.61051654816,0.0294199492782,0.0,0.0,0.0,0.0,0.0,0.0,0.0,0.0,0.0
907015600,188064,1644542428644546032,1,0.0,0.0,0.0,0.0,0.0,0.0,0.0,0.0,0.0,0.0,0.0,0.0,0.0,0.0,0.0,0.0,0.0,0.0,0.0,0.0,0.0,0.0,0.0,0.0,0.0,0.509945809841,-9.64974308014,0.0392265990376,0.0,0.0,0.0,0.0,0.0,0.0,0.0,0.0,0.0
908756800,188065,1644542428646559954,1,0.0,0.0,0.0,0.0,0.0,0.0,0.0,0.0,0.0,0.0,0.0,0.0,0.0,0.0,0.0,0.0,0.0,0.0,0.0,0.0,0.0,0.0,0.0,0.0,0.0,0.509945809841,-9.62032318115,0.0392265990376,0.0,0.0,0.0,0.0,0.0,0.0,0.0,0.0,0.0
910795200,188066,1644542428648573875,1,0.0,0.0,0.0,0.0,0.0,0.0,0.0,0.0,0.0,0.0,0.0,0.0,0.0,0.0,0.0,0.0,0.0,0.0,0.0,0.0,0.0,0.0,0.0,0.0,0.0,0.451105892658,-9.57129001617,0.0294199492782,0.0,0.0,0.0,0.0,0.0,0.0,0.0,0.0,0.0
912867100,188067,1644542428650589943,1,0.0,0.0,0.0,0.0,0.0,0.0,0.0,0.0,0.0,0.0,0.0,0.0,0.0,0.0,0.0,0.0,0.0,0.0,0.0,0.0,0.0,0.0,0.0,0.0,0.0,0.402072638273,-9.58109664917,0.0392265990376,0.0,0.0,0.0,0.0,0.0,0.0,0.0,0.0,0.0
914544800,188068,1644542428652603865,1,0.0,0.0,0.0,0.0,0.0,0.0,0.0,0.0,0.0,0.0,0.0,0.0,0.0,0.0,0.0,0.0,0.0,0.0,0.0,0.0,0.0,0.0,0.0,0.0,0.0,0.402072638273,-9.56148338318,-0.00980664975941,0.0,0.0,0.0,0.0,0.0,0.0,0.0,0.0,0.0
916327000,188069,1644542428654617786,1,0.0,0.0,0.0,0.0,0.0,0.0,0.0,0.0,0.0,0.0,0.0,0.0,0.0,0.0,0.0,0.0,0.0,0.0,0.0,0.0,0.0,0.0,0.0,0.0,0.0,0.421685934067,-9.57129001617,-0.0294199492782,0.0,0.0,0.0,0.0,0.0,0.0,0.0,0.0,0.0
918274700,188070,1644542428656631708,1,0.0,0.0,0.0,0.0,0.0,0.0,0.0,0.0,0.0,0.0,0.0,0.0,0.0,0.0,0.0,0.0,0.0,0.0,0.0,0.0,0.0,0.0,0.0,0.0,0.0,0.402072638273,-9.56148338318,-0.0294199492782,0.0,0.0,0.0,0.0,0.0,0.0,0.0,0.0,0.0
920239600,188071,1644542428658647776,1,0.0,0.0,0.0,0.0,0.0,0.0,0.0,0.0,0.0,0.0,0.0,0.0,0.0,0.0,0.0,0.0,0.0,0.0,0.0,0.0,0.0,0.0,0.0,0.0,0.0,0.38245934248,-9.58109664917,-0.0784531980753,0.0,0.0,0.0,0.0,0.0,0.0,0.0,0.0,0.0
922503200,188072,1644542428660661697,1,0.0,0.0,0.0,0.0,0.0,0.0,0.0,0.0,0.0,0.0,0.0,0.0,0.0,0.0,0.0,0.0,0.0,0.0,0.0,0.0,0.0,0.0,0.0,0.0,0.0,0.421685934067,-9.61051654816,-0.0686465501785,0.0,0.0,0.0,0.0,0.0,0.0,0.0,0.0,0.0
924409600,188073,1644542428662675619,1,0.0,0.0,0.0,0.0,0.0,0.0,0.0,0.0,0.0,0.0,0.0,0.0,0.0,0.0,0.0,0.0,0.0,0.0,0.0,0.0,0.0,0.0,0.0,0.0,0.0,0.402072638273,-9.56148338318,0.0,0.0,0.0,0.0,0.0,0.0,0.0,0.0,0.0,0.0
926314700,188074,1644542428664691448,1,0.0,0.0,0.0,0.0,0.0,0.0,0.0,0.0,0.0,0.0,0.0,0.0,0.0,0.0,0.0,0.0,0.0,0.0,0.0,0.0,0.0,0.0,0.0,0.0,0.0,0.451105892658,-9.61051654816,-0.00980664975941,0.0,0.0,0.0,0.0,0.0,0.0,0.0,0.0,0.0
928421100,188075,1644542428666707277,1,0.0,0.0,0.0,0.0,0.0,0.0,0.0,0.0,0.0,0.0,0.0,0.0,0.0,0.0,0.0,0.0,0.0,0.0,0.0,0.0,0.0,0.0,0.0,0.0,0.0,0.402072638273,-9.64974308014,0.00980664975941,0.0,0.0,0.0,0.0,0.0,0.0,0.0,0.0,0.0
930419900,188076,1644542428668721199,1,0.0,0.0,0.0,0.0,0.0,0.0,0.0,0.0,0.0,0.0,0.0,0.0,0.0,0.0,0.0,0.0,0.0,0.0,0.0,0.0,0.0,0.0,0.0,0.0,0.0,0.509945809841,-9.57129001617,0.00980664975941,0.0,0.0,0.0,0.0,0.0,0.0,0.0,0.0,0.0
932756100,188077,1644542428670735121,1,0.0,0.0,0.0,0.0,0.0,0.0,0.0,0.0,0.0,0.0,0.0,0.0,0.0,0.0,0.0,0.0,0.0,0.0,0.0,0.0,0.0,0.0,0.0,0.0,0.0,0.529559075832,-9.62032318115,0.0392265990376,0.0,0.0,0.0,0.0,0.0,0.0,0.0,0.0,0.0
934686700,188078,1644542428672751188,1,0.0,0.0,0.0,0.0,0.0,0.0,0.0,0.0,0.0,0.0,0.0,0.0,0.0,0.0,0.0,0.0,0.0,0.0,0.0,0.0,0.0,0.0,0.0,0.0,0.0,0.509945809841,-9.62032318115,0.0294199492782,0.0,0.0,0.0,0.0,0.0,0.0,0.0,0.0,0.0
936572500,188079,1644542428674765110,1,0.0,0.0,0.0,0.0,0.0,0.0,0.0,0.0,0.0,0.0,0.0,0.0,0.0,0.0,0.0,0.0,0.0,0.0,0.0,0.0,0.0,0.0,0.0,0.0,0.0,0.509945809841,-9.66935634613,0.00980664975941,0.0,0.0,0.0,0.0,0.0,0.0,0.0,0.0,0.0
938700700,188080,1644542428676779032,1,0.0,0.0,0.0,0.0,0.0,0.0,0.0,0.0,0.0,0.0,0.0,0.0,0.0,0.0,0.0,0.0,0.0,0.0,0.0,0.0,0.0,0.0,0.0,0.0,0.0,0.509945809841,-9.66935634613,0.0294199492782,0.0,0.0,0.0,0.0,0.0,0.0,0.0,0.0,0.0
940485000,188081,1644542428678792953,1,0.0,0.0,0.0,0.0,0.0,0.0,0.0,0.0,0.0,0.0,0.0,0.0,0.0,0.0,0.0,0.0,0.0,0.0,0.0,0.0,0.0,0.0,0.0,0.0,0.0,0.509945809841,-9.58109664917,0.0392265990376,0.0,0.0,0.0,0.0,0.0,0.0,0.0,0.0,0.0
942537500,188082,1644542428680808783,1,0.0,0.0,0.0,0.0,0.0,0.0,0.0,0.0,0.0,0.0,0.0,0.0,0.0,0.0,0.0,0.0,0.0,0.0,0.0,0.0,0.0,0.0,0.0,0.0,0.0,0.529559075832,-9.64974308014,0.0392265990376,0.0,0.0,0.0,0.0,0.0,0.0,0.0,0.0,0.0
944574500,188083,1644542428682822704,1,0.0,0.0,0.0,0.0,0.0,0.0,0.0,0.0,0.0,0.0,0.0,0.0,0.0,0.0,0.0,0.0,0.0,0.0,0.0,0.0,0.0,0.0,0.0,0.0,0.0,0.490332484245,-9.67916297913,0.0294199492782,0.0,0.0,0.0,0.0,0.0,0.0,0.0,0.0,0.0
946619700,188084,1644542428684838533,1,0.0,0.0,0.0,0.0,0.0,0.0,0.0,0.0,0.0,0.0,0.0,0.0,0.0,0.0,0.0,0.0,0.0,0.0,0.0,0.0,0.0,0.0,0.0,0.0,0.0,0.490332484245,-9.66935634613,0.00980664975941,0.0,0.0,0.0,0.0,0.0,0.0,0.0,0.0,0.0
948686800,188085,1644542428686850548,1,0.0,0.0,0.0,0.0,0.0,0.0,0.0,0.0,0.0,0.0,0.0,0.0,0.0,0.0,0.0,0.0,0.0,0.0,0.0,0.0,0.0,0.0,0.0,0.0,0.0,0.529559075832,-9.64974308014,0.00980664975941,0.0,0.0,0.0,0.0,0.0,0.0,0.0,0.0,0.0
950529700,188086,1644542428688866377,1,0.0,0.0,0.0,0.0,0.0,0.0,0.0,0.0,0.0,0.0,0.0,0.0,0.0,0.0,0.0,0.0,0.0,0.0,0.0,0.0,0.0,0.0,0.0,0.0,0.0,0.490332484245,-9.64974308014,0.0,0.0,0.0,0.0,0.0,0.0,0.0,0.0,0.0,0.0
952520700,188087,1644542428690880299,1,0.0,0.0,0.0,0.0,0.0,0.0,0.0,0.0,0.0,0.0,0.0,0.0,0.0,0.0,0.0,0.0,0.0,0.0,0.0,0.0,0.0,0.0,0.0,0.0,0.0,0.529559075832,-9.62032318115,-0.00980664975941,0.0,0.0,0.0,0.0,0.0,0.0,0.0,0.0,0.0
954780400,188088,1644542428692894220,1,0.0,0.0,0.0,0.0,0.0,0.0,0.0,0.0,0.0,0.0,0.0,0.0,0.0,0.0,0.0,0.0,0.0,0.0,0.0,0.0,0.0,0.0,0.0,0.0,0.0,0.509945809841,-9.62032318115,-0.0294199492782,0.0,0.0,0.0,0.0,0.0,0.0,0.0,0.0,0.0
956515000,188089,1644542428694908142,1,0.0,0.0,0.0,0.0,0.0,0.0,0.0,0.0,0.0,0.0,0.0,0.0,0.0,0.0,0.0,0.0,0.0,0.0,0.0,0.0,0.0,0.0,0.0,0.0,0.0,0.549172401428,-9.62032318115,-0.0294199492782,0.0,0.0,0.0,0.0,0.0,0.0,0.0,0.0,0.0
958665300,188090,1644542428696924210,1,0.0,0.0,0.0,0.0,0.0,0.0,0.0,0.0,0.0,0.0,0.0,0.0,0.0,0.0,0.0,0.0,0.0,0.0,0.0,0.0,0.0,0.0,0.0,0.0,0.0,0.509945809841,-9.66935634613,0.0,0.0,0.0,0.0,0.0,0.0,0.0,0.0,0.0,0.0
960757600,188091,1644542428698940277,1,0.0,0.0,0.0,0.0,0.0,0.0,0.0,0.0,0.0,0.0,0.0,0.0,0.0,0.0,0.0,0.0,0.0,0.0,0.0,0.0,0.0,0.0,0.0,0.0,0.0,0.509945809841,-9.66935634613,0.0294199492782,0.0,0.0,0.0,0.0,0.0,0.0,0.0,0.0,0.0
962540500,188092,1644542428700954199,1,0.0,0.0,0.0,0.0,0.0,0.0,0.0,0.0,0.0,0.0,0.0,0.0,0.0,0.0,0.0,0.0,0.0,0.0,0.0,0.0,0.0,0.0,0.0,0.0,0.0,0.529559075832,-9.66935634613,0.0392265990376,0.0,0.0,0.0,0.0,0.0,0.0,0.0,0.0,0.0
964636200,188093,1644542428702968121,1,0.0,0.0,0.0,0.0,0.0,0.0,0.0,0.0,0.0,0.0,0.0,0.0,0.0,0.0,0.0,0.0,0.0,0.0,0.0,0.0,0.0,0.0,0.0,0.0,0.0,0.529559075832,-9.67916297913,0.0,0.0,0.0,0.0,0.0,0.0,0.0,0.0,0.0,0.0
966789700,188094,1644542428704982042,1,0.0,0.0,0.0,0.0,0.0,0.0,0.0,0.0,0.0,0.0,0.0,0.0,0.0,0.0,0.0,0.0,0.0,0.0,0.0,0.0,0.0,0.0,0.0,0.0,0.0,0.549172401428,-9.61051654816,-0.0392265990376,0.0,0.0,0.0,0.0,0.0,0.0,0.0,0.0,0.0
968934000,188095,1644542428706995964,1,0.0,0.0,0.0,0.0,0.0,0.0,0.0,0.0,0.0,0.0,0.0,0.0,0.0,0.0,0.0,0.0,0.0,0.0,0.0,0.0,0.0,0.0,0.0,0.0,0.0,0.529559075832,-9.62032318115,-0.00980664975941,0.0,0.0,0.0,0.0,0.0,0.0,0.0,0.0,0.0
970943000,188096,1644542428709009647,1,0.0,0.0,0.0,0.0,0.0,0.0,0.0,0.0,0.0,0.0,0.0,0.0,0.0,0.0,0.0,0.0,0.0,0.0,0.0,0.0,0.0,0.0,0.0,0.0,0.0,0.509945809841,-9.62032318115,-0.00980664975941,0.0,0.0,0.0,0.0,0.0,0.0,0.0,0.0,0.0
973322500,188097,1644542428711025715,1,0.0,0.0,0.0,0.0,0.0,0.0,0.0,0.0,0.0,0.0,0.0,0.0,0.0,0.0,0.0,0.0,0.0,0.0,0.0,0.0,0.0,0.0,0.0,0.0,0.0,0.529559075832,-9.66935634613,0.0294199492782,0.0,0.0,0.0,0.0,0.0,0.0,0.0,0.0,0.0
974939500,188098,1644542428713039637,1,0.0,0.0,0.0,0.0,0.0,0.0,0.0,0.0,0.0,0.0,0.0,0.0,0.0,0.0,0.0,0.0,0.0,0.0,0.0,0.0,0.0,0.0,0.0,0.0,0.0,0.529559075832,-9.67916297913,0.00980664975941,0.0,0.0,0.0,0.0,0.0,0.0,0.0,0.0,0.0
976864900,188099,1644542428715055704,1,0.0,0.0,0.0,0.0,0.0,0.0,0.0,0.0,0.0,0.0,0.0,0.0,0.0,0.0,0.0,0.0,0.0,0.0,0.0,0.0,0.0,0.0,0.0,0.0,0.0,0.509945809841,-9.66935634613,0.00980664975941,0.0,0.0,0.0,0.0,0.0,0.0,0.0,0.0,0.0
978945200,188100,1644542428717069626,1,0.0,0.0,0.0,0.0,0.0,0.0,0.0,0.0,0.0,0.0,0.0,0.0,0.0,0.0,0.0,0.0,0.0,0.0,0.0,0.0,0.0,0.0,0.0,0.0,0.0,0.509945809841,-9.62032318115,0.00980664975941,0.0,0.0,0.0,0.0,0.0,0.0,0.0,0.0,0.0
980859100,188101,1644542428719083548,1,0.0,0.0,0.0,0.0,0.0,0.0,0.0,0.0,0.0,0.0,0.0,0.0,0.0,0.0,0.0,0.0,0.0,0.0,0.0,0.0,0.0,0.0,0.0,0.0,0.0,0.362846046686,-9.58109664917,0.0392265990376,0.0,0.0,0.0,0.0,0.0,0.0,0.0,0.0,0.0
982751500,188102,1644542428721099377,1,0.0,0.0,0.0,0.0,0.0,0.0,0.0,0.0,0.0,0.0,0.0,0.0,0.0,0.0,0.0,0.0,0.0,0.0,0.0,0.0,0.0,0.0,0.0,0.0,0.0,0.402072638273,-9.62032318115,0.313812792301,0.0,0.0,0.0,0.0,0.0,0.0,0.0,0.0,0.0
984760600,188103,1644542428723113298,1,0.0,0.0,0.0,0.0,0.0,0.0,0.0,0.0,0.0,0.0,0.0,0.0,0.0,0.0,0.0,0.0,0.0,0.0,0.0,0.0,0.0,0.0,0.0,0.0,0.0,0.549172401428,-9.80665016174,0.362846046686,0.0,0.0,0.0,0.0,0.0,0.0,0.0,0.0,0.0
987053300,188104,1644542428725127220,1,0.0,0.0,0.0,0.0,0.0,0.0,0.0,0.0,0.0,0.0,0.0,0.0,0.0,0.0,0.0,0.0,0.0,0.0,0.0,0.0,0.0,0.0,0.0,0.0,0.0,0.833565235138,-9.88510322571,0.470719188452,0.0,0.0,0.0,0.0,0.0,0.0,0.0,0.0,0.0
988809500,188105,1644542428727141142,1,0.0,0.0,0.0,0.0,0.0,0.0,0.0,0.0,0.0,0.0,0.0,0.0,0.0,0.0,0.0,0.0,0.0,0.0,0.0,0.0,0.0,0.0,0.0,0.0,0.0,1.04931151867,-10.1891088486,0.833565235138,0.0,0.0,0.0,0.0,0.0,0.0,0.0,0.0,0.0
990871500,188106,1644542428729155064,1,0.0,0.0,0.0,0.0,0.0,0.0,0.0,0.0,0.0,0.0,0.0,0.0,0.0,0.0,0.0,0.0,0.0,0.0,0.0,0.0,0.0,0.0,0.0,0.0,0.0,1.2552511692,-10.3165950775,0.951245009899,0.0,0.0,0.0,0.0,0.0,0.0,0.0,0.0,0.0
992881300,188107,1644542428731170893,1,0.0,0.0,0.0,0.0,0.0,0.0,0.0,0.0,0.0,0.0,0.0,0.0,0.0,0.0,0.0,0.0,0.0,0.0,0.0,0.0,0.0,0.0,0.0,0.0,0.0,0.990471601486,-10.0910425186,0.735498726368,0.0,0.0,0.0,0.0,0.0,0.0,0.0,0.0,0.0
994875700,188108,1644542428733184814,1,0.0,0.0,0.0,0.0,0.0,0.0,0.0,0.0,0.0,0.0,0.0,0.0,0.0,0.0,0.0,0.0,0.0,0.0,0.0,0.0,0.0,0.0,0.0,0.0,0.0,0.764918684959,-9.78703689575,0.137293100357,0.0,0.0,0.0,0.0,0.0,0.0,0.0,0.0,0.0
996917600,188109,1644542428735198736,1,0.0,0.0,0.0,0.0,0.0,0.0,0.0,0.0,0.0,0.0,0.0,0.0,0.0,0.0,0.0,0.0,0.0,0.0,0.0,0.0,0.0,0.0,0.0,0.0,0.0,0.57859236002,-9.42419052124,-0.451105892658,0.0,0.0,0.0,0.0,0.0,0.0,0.0,0.0,0.0
998946600,188110,1644542428737212658,1,0.0,0.0,0.0,0.0,0.0,0.0,0.0,0.0,0.0,0.0,0.0,0.0,0.0,0.0,0.0,0.0,0.0,0.0,0.0,0.0,0.0,0.0,0.0,0.0,0.0,0.470719188452,-9.24767112732,-0.872791826725,0.0,0.0,0.0,0.0,0.0,0.0,0.0,0.0,0.0
1001208600,188111,1644542428739226580,1,0.0,0.0,0.0,0.0,0.0,0.0,0.0,0.0,0.0,0.0,0.0,0.0,0.0,0.0,0.0,0.0,0.0,0.0,0.0,0.0,0.0,0.0,0.0,0.0,0.0,0.470719188452,-9.38496398926,-0.549172401428,0.0,0.0,0.0,0.0,0.0,0.0,0.0,0.0,0.0
1003586000,188112,1644542428741240501,1,0.0,0.0,0.0,0.0,0.0,0.0,0.0,0.0,0.0,0.0,0.0,0.0,0.0,0.0,0.0,0.0,0.0,0.0,0.0,0.0,0.0,0.0,0.0,0.0,0.0,0.402072638273,-9.58109664917,-0.196132987738,0.0,0.0,0.0,0.0,0.0,0.0,0.0,0.0,0.0
1005931400,188113,1644542428743256569,1,0.0,0.0,0.0,0.0,0.0,0.0,0.0,0.0,0.0,0.0,0.0,0.0,0.0,0.0,0.0,0.0,0.0,0.0,0.0,0.0,0.0,0.0,0.0,0.0,0.0,0.343232750893,-9.53206348419,-0.176519691944,0.0,0.0,0.0,0.0,0.0,0.0,0.0,0.0,0.0
1007184100,188114,1644542428745270491,1,0.0,0.0,0.0,0.0,0.0,0.0,0.0,0.0,0.0,0.0,0.0,0.0,0.0,0.0,0.0,0.0,0.0,0.0,0.0,0.0,0.0,0.0,0.0,0.0,0.0,0.294199496508,-9.49283695221,-0.225552946329,0.0,0.0,0.0,0.0,0.0,0.0,0.0,0.0,0.0
1009201900,188115,1644542428747284412,1,0.0,0.0,0.0,0.0,0.0,0.0,0.0,0.0,0.0,0.0,0.0,0.0,0.0,0.0,0.0,0.0,0.0,0.0,0.0,0.0,0.0,0.0,0.0,0.0,0.0,0.264779537916,-9.48303031921,-0.343232750893,0.0,0.0,0.0,0.0,0.0,0.0,0.0,0.0,0.0
1011045100,188116,1644542428749298334,1,0.0,0.0,0.0,0.0,0.0,0.0,0.0,0.0,0.0,0.0,0.0,0.0,0.0,0.0,0.0,0.0,0.0,0.0,0.0,0.0,0.0,0.0,0.0,0.0,0.0,0.343232750893,-9.5222568512,-0.313812792301,0.0,0.0,0.0,0.0,0.0,0.0,0.0,0.0,0.0
1013068200,188117,1644542428751314163,1,0.0,0.0,0.0,0.0,0.0,0.0,0.0,0.0,0.0,0.0,0.0,0.0,0.0,0.0,0.0,0.0,0.0,0.0,0.0,0.0,0.0,0.0,0.0,0.0,0.0,0.343232750893,-9.58109664917,-0.196132987738,0.0,0.0,0.0,0.0,0.0,0.0,0.0,0.0,0.0
1014986800,188118,1644542428753328085,1,0.0,0.0,0.0,0.0,0.0,0.0,0.0,0.0,0.0,0.0,0.0,0.0,0.0,0.0,0.0,0.0,0.0,0.0,0.0,0.0,0.0,0.0,0.0,0.0,0.0,0.402072638273,-9.62032318115,-0.166713044047,0.0,0.0,0.0,0.0,0.0,0.0,0.0,0.0,0.0
1017069400,188119,1644542428755342007,1,0.0,0.0,0.0,0.0,0.0,0.0,0.0,0.0,0.0,0.0,0.0,0.0,0.0,0.0,0.0,0.0,0.0,0.0,0.0,0.0,0.0,0.0,0.0,0.0,0.0,0.421685934067,-9.64974308014,-0.137293100357,0.0,0.0,0.0,0.0,0.0,0.0,0.0,0.0,0.0
1019181500,188120,1644542428757355928,1,0.0,0.0,0.0,0.0,0.0,0.0,0.0,0.0,0.0,0.0,0.0,0.0,0.0,0.0,0.0,0.0,0.0,0.0,0.0,0.0,0.0,0.0,0.0,0.0,0.0,0.402072638273,-9.62032318115,-0.0980664938688,0.0,0.0,0.0,0.0,0.0,0.0,0.0,0.0,0.0
1021053900,188121,1644542428759371758,1,0.0,0.0,0.0,0.0,0.0,0.0,0.0,0.0,0.0,0.0,0.0,0.0,0.0,0.0,0.0,0.0,0.0,0.0,0.0,0.0,0.0,0.0,0.0,0.0,0.0,0.362846046686,-9.64974308014,-0.12748645246,0.0,0.0,0.0,0.0,0.0,0.0,0.0,0.0,0.0
1023049700,188122,1644542428761385918,1,0.0,0.0,0.0,0.0,0.0,0.0,0.0,0.0,0.0,0.0,0.0,0.0,0.0,0.0,0.0,0.0,0.0,0.0,0.0,0.0,0.0,0.0,0.0,0.0,0.0,0.274586200714,-9.58109664917,-0.166713044047,0.0,0.0,0.0,0.0,0.0,0.0,0.0,0.0,0.0
1025415500,188123,1644542428763399839,1,0.0,0.0,0.0,0.0,0.0,0.0,0.0,0.0,0.0,0.0,0.0,0.0,0.0,0.0,0.0,0.0,0.0,0.0,0.0,0.0,0.0,0.0,0.0,0.0,0.0,0.12748645246,-9.56148338318,-0.225552946329,0.0,0.0,0.0,0.0,0.0,0.0,0.0,0.0,0.0
1027129200,188124,1644542428765413761,1,0.0,0.0,0.0,0.0,0.0,0.0,0.0,0.0,0.0,0.0,0.0,0.0,0.0,0.0,0.0,0.0,0.0,0.0,0.0,0.0,0.0,0.0,0.0,0.0,0.0,0.0686465501785,-9.48303031921,-0.313812792301,0.0,0.0,0.0,0.0,0.0,0.0,0.0,0.0,0.0
1029054300,188125,1644542428767429590,1,0.0,0.0,0.0,0.0,0.0,0.0,0.0,0.0,0.0,0.0,0.0,0.0,0.0,0.0,0.0,0.0,0.0,0.0,0.0,0.0,0.0,0.0,0.0,0.0,0.0,0.0294199492782,-9.48303031921,-0.38245934248,0.0,0.0,0.0,0.0,0.0,0.0,0.0,0.0,0.0
1031076400,188126,1644542428769443512,1,0.0,0.0,0.0,0.0,0.0,0.0,0.0,0.0,0.0,0.0,0.0,0.0,0.0,0.0,0.0,0.0,0.0,0.0,0.0,0.0,0.0,0.0,0.0,0.0,0.0,0.0294199492782,-9.43399715424,-0.451105892658,0.0,0.0,0.0,0.0,0.0,0.0,0.0,0.0,0.0
1033161800,188127,1644542428771457434,1,0.0,0.0,0.0,0.0,0.0,0.0,0.0,0.0,0.0,0.0,0.0,0.0,0.0,0.0,0.0,0.0,0.0,0.0,0.0,0.0,0.0,0.0,0.0,0.0,0.0,0.00980664975941,-9.42419052124,-0.451105892658,0.0,0.0,0.0,0.0,0.0,0.0,0.0,0.0,0.0
1035271100,188128,1644542428773473501,1,0.0,0.0,0.0,0.0,0.0,0.0,0.0,0.0,0.0,0.0,0.0,0.0,0.0,0.0,0.0,0.0,0.0,0.0,0.0,0.0,0.0,0.0,0.0,0.0,0.0,0.0784531980753,-9.43399715424,-0.402072638273,0.0,0.0,0.0,0.0,0.0,0.0,0.0,0.0,0.0
1037343700,188129,1644542428775487423,1,0.0,0.0,0.0,0.0,0.0,0.0,0.0,0.0,0.0,0.0,0.0,0.0,0.0,0.0,0.0,0.0,0.0,0.0,0.0,0.0,0.0,0.0,0.0,0.0,0.0,0.0784531980753,-9.42419052124,-0.38245934248,0.0,0.0,0.0,0.0,0.0,0.0,0.0,0.0,0.0
1039337800,188130,1644542428777501106,1,0.0,0.0,0.0,0.0,0.0,0.0,0.0,0.0,0.0,0.0,0.0,0.0,0.0,0.0,0.0,0.0,0.0,0.0,0.0,0.0,0.0,0.0,0.0,0.0,0.0,0.166713044047,-9.48303031921,-0.294199496508,0.0,0.0,0.0,0.0,0.0,0.0,0.0,0.0,0.0
1041357400,188131,1644542428779515028,1,0.0,0.0,0.0,0.0,0.0,0.0,0.0,0.0,0.0,0.0,0.0,0.0,0.0,0.0,0.0,0.0,0.0,0.0,0.0,0.0,0.0,0.0,0.0,0.0,0.0,0.196132987738,-9.5222568512,-0.264779537916,0.0,0.0,0.0,0.0,0.0,0.0,0.0,0.0,0.0
1043806300,188132,1644542428781528950,1,0.0,0.0,0.0,0.0,0.0,0.0,0.0,0.0,0.0,0.0,0.0,0.0,0.0,0.0,0.0,0.0,0.0,0.0,0.0,0.0,0.0,0.0,0.0,0.0,0.0,0.264779537916,-9.56148338318,-0.196132987738,0.0,0.0,0.0,0.0,0.0,0.0,0.0,0.0,0.0
1045341400,188133,1644542428783545256,1,0.0,0.0,0.0,0.0,0.0,0.0,0.0,0.0,0.0,0.0,0.0,0.0,0.0,0.0,0.0,0.0,0.0,0.0,0.0,0.0,0.0,0.0,0.0,0.0,0.0,0.343232750893,-9.58109664917,-0.176519691944,0.0,0.0,0.0,0.0,0.0,0.0,0.0,0.0,0.0
1047295900,188134,1644542428785559177,1,0.0,0.0,0.0,0.0,0.0,0.0,0.0,0.0,0.0,0.0,0.0,0.0,0.0,0.0,0.0,0.0,0.0,0.0,0.0,0.0,0.0,0.0,0.0,0.0,0.0,0.362846046686,-9.58109664917,-0.166713044047,0.0,0.0,0.0,0.0,0.0,0.0,0.0,0.0,0.0
1049299200,188135,1644542428787573099,1,0.0,0.0,0.0,0.0,0.0,0.0,0.0,0.0,0.0,0.0,0.0,0.0,0.0,0.0,0.0,0.0,0.0,0.0,0.0,0.0,0.0,0.0,0.0,0.0,0.0,0.343232750893,-9.61051654816,-0.166713044047,0.0,0.0,0.0,0.0,0.0,0.0,0.0,0.0,0.0
1051501900,188136,1644542428789587021,1,0.0,0.0,0.0,0.0,0.0,0.0,0.0,0.0,0.0,0.0,0.0,0.0,0.0,0.0,0.0,0.0,0.0,0.0,0.0,0.0,0.0,0.0,0.0,0.0,0.0,0.274586200714,-9.58109664917,-0.166713044047,0.0,0.0,0.0,0.0,0.0,0.0,0.0,0.0,0.0
1053352200,188137,1644542428791602850,1,0.0,0.0,0.0,0.0,0.0,0.0,0.0,0.0,0.0,0.0,0.0,0.0,0.0,0.0,0.0,0.0,0.0,0.0,0.0,0.0,0.0,0.0,0.0,0.0,0.0,0.274586200714,-9.56148338318,-0.176519691944,0.0,0.0,0.0,0.0,0.0,0.0,0.0,0.0,0.0
1055391900,188138,1644542428793616772,1,0.0,0.0,0.0,0.0,0.0,0.0,0.0,0.0,0.0,0.0,0.0,0.0,0.0,0.0,0.0,0.0,0.0,0.0,0.0,0.0,0.0,0.0,0.0,0.0,0.0,0.225552946329,-9.56148338318,-0.196132987738,0.0,0.0,0.0,0.0,0.0,0.0,0.0,0.0,0.0
1057347800,188139,1644542428795630693,1,0.0,0.0,0.0,0.0,0.0,0.0,0.0,0.0,0.0,0.0,0.0,0.0,0.0,0.0,0.0,0.0,0.0,0.0,0.0,0.0,0.0,0.0,0.0,0.0,0.0,0.225552946329,-9.57129001617,-0.176519691944,0.0,0.0,0.0,0.0,0.0,0.0,0.0,0.0,0.0
1059315000,188140,1644542428797644615,1,0.0,0.0,0.0,0.0,0.0,0.0,0.0,0.0,0.0,0.0,0.0,0.0,0.0,0.0,0.0,0.0,0.0,0.0,0.0,0.0,0.0,0.0,0.0,0.0,0.0,0.176519691944,-9.57129001617,-0.196132987738,0.0,0.0,0.0,0.0,0.0,0.0,0.0,0.0,0.0
1061453600,188141,1644542428799658537,1,0.0,0.0,0.0,0.0,0.0,0.0,0.0,0.0,0.0,0.0,0.0,0.0,0.0,0.0,0.0,0.0,0.0,0.0,0.0,0.0,0.0,0.0,0.0,0.0,0.0,0.225552946329,-9.56148338318,-0.225552946329,0.0,0.0,0.0,0.0,0.0,0.0,0.0,0.0,0.0
1063429100,188142,1644542428801672459,1,0.0,0.0,0.0,0.0,0.0,0.0,0.0,0.0,0.0,0.0,0.0,0.0,0.0,0.0,0.0,0.0,0.0,0.0,0.0,0.0,0.0,0.0,0.0,0.0,0.0,0.196132987738,-9.57129001617,-0.225552946329,0.0,0.0,0.0,0.0,0.0,0.0,0.0,0.0,0.0
1065342300,188143,1644542428803688526,1,0.0,0.0,0.0,0.0,0.0,0.0,0.0,0.0,0.0,0.0,0.0,0.0,0.0,0.0,0.0,0.0,0.0,0.0,0.0,0.0,0.0,0.0,0.0,0.0,0.0,0.225552946329,-9.56148338318,-0.225552946329,0.0,0.0,0.0,0.0,0.0,0.0,0.0,0.0,0.0
1067321500,188144,1644542428805702448,1,0.0,0.0,0.0,0.0,0.0,0.0,0.0,0.0,0.0,0.0,0.0,0.0,0.0,0.0,0.0,0.0,0.0,0.0,0.0,0.0,0.0,0.0,0.0,0.0,0.0,0.264779537916,-9.57129001617,-0.225552946329,0.0,0.0,0.0,0.0,0.0,0.0,0.0,0.0,0.0
1069856600,188145,1644542428807716370,1,0.0,0.0,0.0,0.0,0.0,0.0,0.0,0.0,0.0,0.0,0.0,0.0,0.0,0.0,0.0,0.0,0.0,0.0,0.0,0.0,0.0,0.0,0.0,0.0,0.0,0.343232750893,-9.58109664917,-0.166713044047,0.0,0.0,0.0,0.0,0.0,0.0,0.0,0.0,0.0
1072025200,188146,1644542428809730291,1,0.0,0.0,0.0,0.0,0.0,0.0,0.0,0.0,0.0,0.0,0.0,0.0,0.0,0.0,0.0,0.0,0.0,0.0,0.0,0.0,0.0,0.0,0.0,0.0,0.0,0.490332484245,-9.71838951111,-0.0784531980753,0.0,0.0,0.0,0.0,0.0,0.0,0.0,0.0,0.0
1074088400,188147,1644542428811746120,1,0.0,0.0,0.0,0.0,0.0,0.0,0.0,0.0,0.0,0.0,0.0,0.0,0.0,0.0,0.0,0.0,0.0,0.0,0.0,0.0,0.0,0.0,0.0,0.0,0.0,0.558979034424,-9.78703689575,0.0980664938688,0.0,0.0,0.0,0.0,0.0,0.0,0.0,0.0,0.0
1075845800,188148,1644542428813761950,1,0.0,0.0,0.0,0.0,0.0,0.0,0.0,0.0,0.0,0.0,0.0,0.0,0.0,0.0,0.0,0.0,0.0,0.0,0.0,0.0,0.0,0.0,0.0,0.0,0.0,0.490332484245,-9.71838951111,0.0784531980753,0.0,0.0,0.0,0.0,0.0,0.0,0.0,0.0,0.0
1077551100,188149,1644542428815773964,1,0.0,0.0,0.0,0.0,0.0,0.0,0.0,0.0,0.0,0.0,0.0,0.0,0.0,0.0,0.0,0.0,0.0,0.0,0.0,0.0,0.0,0.0,0.0,0.0,0.0,0.470719188452,-9.67916297913,-0.0392265990376,0.0,0.0,0.0,0.0,0.0,0.0,0.0,0.0,0.0
1079559000,188150,1644542428817787886,1,0.0,0.0,0.0,0.0,0.0,0.0,0.0,0.0,0.0,0.0,0.0,0.0,0.0,0.0,0.0,0.0,0.0,0.0,0.0,0.0,0.0,0.0,0.0,0.0,0.0,0.402072638273,-9.66935634613,-0.0686465501785,0.0,0.0,0.0,0.0,0.0,0.0,0.0,0.0,0.0
1081547100,188151,1644542428819803715,1,0.0,0.0,0.0,0.0,0.0,0.0,0.0,0.0,0.0,0.0,0.0,0.0,0.0,0.0,0.0,0.0,0.0,0.0,0.0,0.0,0.0,0.0,0.0,0.0,0.0,0.402072638273,-9.66935634613,-0.0784531980753,0.0,0.0,0.0,0.0,0.0,0.0,0.0,0.0,0.0
1083697600,188152,1644542428821817636,1,0.0,0.0,0.0,0.0,0.0,0.0,0.0,0.0,0.0,0.0,0.0,0.0,0.0,0.0,0.0,0.0,0.0,0.0,0.0,0.0,0.0,0.0,0.0,0.0,0.0,0.549172401428,-9.71838951111,-0.0392265990376,0.0,0.0,0.0,0.0,0.0,0.0,0.0,0.0,0.0
1085920800,188153,1644542428823833704,1,0.0,0.0,0.0,0.0,0.0,0.0,0.0,0.0,0.0,0.0,0.0,0.0,0.0,0.0,0.0,0.0,0.0,0.0,0.0,0.0,0.0,0.0,0.0,0.0,0.0,0.57859236002,-9.75761604309,0.00980664975941,0.0,0.0,0.0,0.0,0.0,0.0,0.0,0.0,0.0
1087571500,188154,1644542428825847626,1,0.0,0.0,0.0,0.0,0.0,0.0,0.0,0.0,0.0,0.0,0.0,0.0,0.0,0.0,0.0,0.0,0.0,0.0,0.0,0.0,0.0,0.0,0.0,0.0,0.0,0.57859236002,-9.78703689575,0.0294199492782,0.0,0.0,0.0,0.0,0.0,0.0,0.0,0.0,0.0
1090040900,188155,1644542428827861547,1,0.0,0.0,0.0,0.0,0.0,0.0,0.0,0.0,0.0,0.0,0.0,0.0,0.0,0.0,0.0,0.0,0.0,0.0,0.0,0.0,0.0,0.0,0.0,0.0,0.0,0.549172401428,-9.80665016174,0.00980664975941,0.0,0.0,0.0,0.0,0.0,0.0,0.0,0.0,0.0
1091728900,188156,1644542428829875469,1,0.0,0.0,0.0,0.0,0.0,0.0,0.0,0.0,0.0,0.0,0.0,0.0,0.0,0.0,0.0,0.0,0.0,0.0,0.0,0.0,0.0,0.0,0.0,0.0,0.0,0.529559075832,-9.71838951111,0.0,0.0,0.0,0.0,0.0,0.0,0.0,0.0,0.0,0.0
1093670800,188157,1644542428831891298,1,0.0,0.0,0.0,0.0,0.0,0.0,0.0,0.0,0.0,0.0,0.0,0.0,0.0,0.0,0.0,0.0,0.0,0.0,0.0,0.0,0.0,0.0,0.0,0.0,0.0,0.549172401428,-9.7478094101,0.00980664975941,0.0,0.0,0.0,0.0,0.0,0.0,0.0,0.0,0.0
1096014100,188158,1644542428833905220,1,0.0,0.0,0.0,0.0,0.0,0.0,0.0,0.0,0.0,0.0,0.0,0.0,0.0,0.0,0.0,0.0,0.0,0.0,0.0,0.0,0.0,0.0,0.0,0.0,0.0,0.598205626011,-9.80665016174,0.137293100357,0.0,0.0,0.0,0.0,0.0,0.0,0.0,0.0,0.0
1097588300,188159,1644542428835919142,1,0.0,0.0,0.0,0.0,0.0,0.0,0.0,0.0,0.0,0.0,0.0,0.0,0.0,0.0,0.0,0.0,0.0,0.0,0.0,0.0,0.0,0.0,0.0,0.0,0.0,0.627625584602,-9.81645679474,0.176519691944,0.0,0.0,0.0,0.0,0.0,0.0,0.0,0.0,0.0
1099511800,188160,1644542428837935209,1,0.0,0.0,0.0,0.0,0.0,0.0,0.0,0.0,0.0,0.0,0.0,0.0,0.0,0.0,0.0,0.0,0.0,0.0,0.0,0.0,0.0,0.0,0.0,0.0,0.0,0.735498726368,-9.88510322571,0.176519691944,0.0,0.0,0.0,0.0,0.0,0.0,0.0,0.0,0.0
1101664600,188161,1644542428839949131,1,0.0,0.0,0.0,0.0,0.0,0.0,0.0,0.0,0.0,0.0,0.0,0.0,0.0,0.0,0.0,0.0,0.0,0.0,0.0,0.0,0.0,0.0,0.0,0.0,0.0,0.666852176189,-9.83607006073,0.274586200714,0.0,0.0,0.0,0.0,0.0,0.0,0.0,0.0,0.0
1103680600,188162,1644542428841963053,1,0.0,0.0,0.0,0.0,0.0,0.0,0.0,0.0,0.0,0.0,0.0,0.0,0.0,0.0,0.0,0.0,0.0,0.0,0.0,0.0,0.0,0.0,0.0,0.0,0.0,0.627625584602,-9.86548995972,0.176519691944,0.0,0.0,0.0,0.0,0.0,0.0,0.0,0.0,0.0
1105935800,188163,1644542428843976974,1,0.0,0.0,0.0,0.0,0.0,0.0,0.0,0.0,0.0,0.0,0.0,0.0,0.0,0.0,0.0,0.0,0.0,0.0,0.0,0.0,0.0,0.0,0.0,0.0,0.0,0.637432217598,-9.78703689575,0.166713044047,0.0,0.0,0.0,0.0,0.0,0.0,0.0,0.0,0.0
1107862400,188164,1644542428845990896,1,0.0,0.0,0.0,0.0,0.0,0.0,0.0,0.0,0.0,0.0,0.0,0.0,0.0,0.0,0.0,0.0,0.0,0.0,0.0,0.0,0.0,0.0,0.0,0.0,0.0,0.558979034424,-9.78703689575,0.00980664975941,0.0,0.0,0.0,0.0,0.0,0.0,0.0,0.0,0.0
1109815200,188165,1644542428848004818,1,0.0,0.0,0.0,0.0,0.0,0.0,0.0,0.0,0.0,0.0,0.0,0.0,0.0,0.0,0.0,0.0,0.0,0.0,0.0,0.0,0.0,0.0,0.0,0.0,0.0,0.529559075832,-9.70858287811,-0.0686465501785,0.0,0.0,0.0,0.0,0.0,0.0,0.0,0.0,0.0
1111854500,188166,1644542428850018740,1,0.0,0.0,0.0,0.0,0.0,0.0,0.0,0.0,0.0,0.0,0.0,0.0,0.0,0.0,0.0,0.0,0.0,0.0,0.0,0.0,0.0,0.0,0.0,0.0,0.0,0.57859236002,-9.71838951111,-0.0784531980753,0.0,0.0,0.0,0.0,0.0,0.0,0.0,0.0,0.0
1113764500,188167,1644542428852034569,1,0.0,0.0,0.0,0.0,0.0,0.0,0.0,0.0,0.0,0.0,0.0,0.0,0.0,0.0,0.0,0.0,0.0,0.0,0.0,0.0,0.0,0.0,0.0,0.0,0.0,0.558979034424,-9.71838951111,-0.12748645246,0.0,0.0,0.0,0.0,0.0,0.0,0.0,0.0,0.0
1115892600,188168,1644542428854048491,1,0.0,0.0,0.0,0.0,0.0,0.0,0.0,0.0,0.0,0.0,0.0,0.0,0.0,0.0,0.0,0.0,0.0,0.0,0.0,0.0,0.0,0.0,0.0,0.0,0.0,0.451105892658,-9.64974308014,-0.166713044047,0.0,0.0,0.0,0.0,0.0,0.0,0.0,0.0,0.0
1117855500,188169,1644542428856062412,1,0.0,0.0,0.0,0.0,0.0,0.0,0.0,0.0,0.0,0.0,0.0,0.0,0.0,0.0,0.0,0.0,0.0,0.0,0.0,0.0,0.0,0.0,0.0,0.0,0.0,0.38245934248,-9.62032318115,-0.137293100357,0.0,0.0,0.0,0.0,0.0,0.0,0.0,0.0,0.0
1119781300,188170,1644542428858078718,1,0.0,0.0,0.0,0.0,0.0,0.0,0.0,0.0,0.0,0.0,0.0,0.0,0.0,0.0,0.0,0.0,0.0,0.0,0.0,0.0,0.0,0.0,0.0,0.0,0.0,0.343232750893,-9.61051654816,-0.225552946329,0.0,0.0,0.0,0.0,0.0,0.0,0.0,0.0,0.0
1121806500,188171,1644542428860092640,1,0.0,0.0,0.0,0.0,0.0,0.0,0.0,0.0,0.0,0.0,0.0,0.0,0.0,0.0,0.0,0.0,0.0,0.0,0.0,0.0,0.0,0.0,0.0,0.0,0.0,0.313812792301,-9.58109664917,-0.225552946329,0.0,0.0,0.0,0.0,0.0,0.0,0.0,0.0,0.0
1123747100,188172,1644542428862106562,1,0.0,0.0,0.0,0.0,0.0,0.0,0.0,0.0,0.0,0.0,0.0,0.0,0.0,0.0,0.0,0.0,0.0,0.0,0.0,0.0,0.0,0.0,0.0,0.0,0.0,0.343232750893,-9.58109664917,-0.225552946329,0.0,0.0,0.0,0.0,0.0,0.0,0.0,0.0,0.0
1125785900,188173,1644542428864120245,1,0.0,0.0,0.0,0.0,0.0,0.0,0.0,0.0,0.0,0.0,0.0,0.0,0.0,0.0,0.0,0.0,0.0,0.0,0.0,0.0,0.0,0.0,0.0,0.0,0.0,0.343232750893,-9.58109664917,-0.294199496508,0.0,0.0,0.0,0.0,0.0,0.0,0.0,0.0,0.0
1127897800,188174,1644542428866134167,1,0.0,0.0,0.0,0.0,0.0,0.0,0.0,0.0,0.0,0.0,0.0,0.0,0.0,0.0,0.0,0.0,0.0,0.0,0.0,0.0,0.0,0.0,0.0,0.0,0.0,0.362846046686,-9.53206348419,-0.274586200714,0.0,0.0,0.0,0.0,0.0,0.0,0.0,0.0,0.0
1129755900,188175,1644542428868148088,1,0.0,0.0,0.0,0.0,0.0,0.0,0.0,0.0,0.0,0.0,0.0,0.0,0.0,0.0,0.0,0.0,0.0,0.0,0.0,0.0,0.0,0.0,0.0,0.0,0.0,0.294199496508,-9.53206348419,-0.245166242123,0.0,0.0,0.0,0.0,0.0,0.0,0.0,0.0,0.0
1131940200,188176,1644542428870164156,1,0.0,0.0,0.0,0.0,0.0,0.0,0.0,0.0,0.0,0.0,0.0,0.0,0.0,0.0,0.0,0.0,0.0,0.0,0.0,0.0,0.0,0.0,0.0,0.0,0.0,0.0686465501785,-9.49283695221,-0.264779537916,0.0,0.0,0.0,0.0,0.0,0.0,0.0,0.0,0.0
1133945500,188177,1644542428872175932,1,0.0,0.0,0.0,0.0,0.0,0.0,0.0,0.0,0.0,0.0,0.0,0.0,0.0,0.0,0.0,0.0,0.0,0.0,0.0,0.0,0.0,0.0,0.0,0.0,0.0,-0.00980664975941,-9.39477062225,-0.725692093372,0.0,0.0,0.0,0.0,0.0,0.0,0.0,0.0,0.0
1135804100,188178,1644542428874191999,1,0.0,0.0,0.0,0.0,0.0,0.0,0.0,0.0,0.0,0.0,0.0,0.0,0.0,0.0,0.0,0.0,0.0,0.0,0.0,0.0,0.0,0.0,0.0,0.0,0.0,-0.137293100357,-9.30651092529,-0.872791826725,0.0,0.0,0.0,0.0,0.0,0.0,0.0,0.0,0.0
1137942900,188179,1644542428876205921,1,0.0,0.0,0.0,0.0,0.0,0.0,0.0,0.0,0.0,0.0,0.0,0.0,0.0,0.0,0.0,0.0,0.0,0.0,0.0,0.0,0.0,0.0,0.0,0.0,0.0,-0.166713044047,-9.35554409027,-0.637432217598,0.0,0.0,0.0,0.0,0.0,0.0,0.0,0.0,0.0
1139919100,188180,1644542428878219843,1,0.0,0.0,0.0,0.0,0.0,0.0,0.0,0.0,0.0,0.0,0.0,0.0,0.0,0.0,0.0,0.0,0.0,0.0,0.0,0.0,0.0,0.0,0.0,0.0,0.0,-0.0392265990376,-9.43399715424,-0.470719188452,0.0,0.0,0.0,0.0,0.0,0.0,0.0,0.0,0.0
1142019000,188181,1644542428880235910,1,0.0,0.0,0.0,0.0,0.0,0.0,0.0,0.0,0.0,0.0,0.0,0.0,0.0,0.0,0.0,0.0,0.0,0.0,0.0,0.0,0.0,0.0,0.0,0.0,0.0,0.0294199492782,-9.48303031921,-0.362846046686,0.0,0.0,0.0,0.0,0.0,0.0,0.0,0.0,0.0
1144141300,188182,1644542428882249832,1,0.0,0.0,0.0,0.0,0.0,0.0,0.0,0.0,0.0,0.0,0.0,0.0,0.0,0.0,0.0,0.0,0.0,0.0,0.0,0.0,0.0,0.0,0.0,0.0,0.0,0.0,-9.39477062225,-0.490332484245,0.0,0.0,0.0,0.0,0.0,0.0,0.0,0.0,0.0
1146129100,188183,1644542428884263754,1,0.0,0.0,0.0,0.0,0.0,0.0,0.0,0.0,0.0,0.0,0.0,0.0,0.0,0.0,0.0,0.0,0.0,0.0,0.0,0.0,0.0,0.0,0.0,0.0,0.0,-0.0294199492782,-9.38496398926,-0.686465501785,0.0,0.0,0.0,0.0,0.0,0.0,0.0,0.0,0.0
1148232000,188184,1644542428886279583,1,0.0,0.0,0.0,0.0,0.0,0.0,0.0,0.0,0.0,0.0,0.0,0.0,0.0,0.0,0.0,0.0,0.0,0.0,0.0,0.0,0.0,0.0,0.0,0.0,0.0,-0.0784531980753,-9.2868976593,-0.637432217598,0.0,0.0,0.0,0.0,0.0,0.0,0.0,0.0,0.0
1150045200,188185,1644542428888293505,1,0.0,0.0,0.0,0.0,0.0,0.0,0.0,0.0,0.0,0.0,0.0,0.0,0.0,0.0,0.0,0.0,0.0,0.0,0.0,0.0,0.0,0.0,0.0,0.0,0.0,0.0,-9.30651092529,-0.627625584602,0.0,0.0,0.0,0.0,0.0,0.0,0.0,0.0,0.0
1152029900,188186,1644542428890309334,1,0.0,0.0,0.0,0.0,0.0,0.0,0.0,0.0,0.0,0.0,0.0,0.0,0.0,0.0,0.0,0.0,0.0,0.0,0.0,0.0,0.0,0.0,0.0,0.0,0.0,0.0784531980753,-9.42419052124,-0.627625584602,0.0,0.0,0.0,0.0,0.0,0.0,0.0,0.0,0.0
1154193400,188187,1644542428892323256,1,0.0,0.0,0.0,0.0,0.0,0.0,0.0,0.0,0.0,0.0,0.0,0.0,0.0,0.0,0.0,0.0,0.0,0.0,0.0,0.0,0.0,0.0,0.0,0.0,0.0,0.0980664938688,-9.45361042023,-0.490332484245,0.0,0.0,0.0,0.0,0.0,0.0,0.0,0.0,0.0
1156073100,188188,1644542428894337177,1,0.0,0.0,0.0,0.0,0.0,0.0,0.0,0.0,0.0,0.0,0.0,0.0,0.0,0.0,0.0,0.0,0.0,0.0,0.0,0.0,0.0,0.0,0.0,0.0,0.0,0.0686465501785,-9.5222568512,-0.362846046686,0.0,0.0,0.0,0.0,0.0,0.0,0.0,0.0,0.0
1158226600,188189,1644542428896353245,1,0.0,0.0,0.0,0.0,0.0,0.0,0.0,0.0,0.0,0.0,0.0,0.0,0.0,0.0,0.0,0.0,0.0,0.0,0.0,0.0,0.0,0.0,0.0,0.0,0.0,0.0686465501785,-9.53206348419,-0.274586200714,0.0,0.0,0.0,0.0,0.0,0.0,0.0,0.0,0.0
1160050200,188190,1644542428898367167,1,0.0,0.0,0.0,0.0,0.0,0.0,0.0,0.0,0.0,0.0,0.0,0.0,0.0,0.0,0.0,0.0,0.0,0.0,0.0,0.0,0.0,0.0,0.0,0.0,0.0,0.0392265990376,-9.61051654816,-0.166713044047,0.0,0.0,0.0,0.0,0.0,0.0,0.0,0.0,0.0
1162053300,188191,1644542428900381088,1,0.0,0.0,0.0,0.0,0.0,0.0,0.0,0.0,0.0,0.0,0.0,0.0,0.0,0.0,0.0,0.0,0.0,0.0,0.0,0.0,0.0,0.0,0.0,0.0,0.0,0.0980664938688,-9.71838951111,-0.0784531980753,0.0,0.0,0.0,0.0,0.0,0.0,0.0,0.0,0.0
1164159200,188192,1644542428902396917,1,0.0,0.0,0.0,0.0,0.0,0.0,0.0,0.0,0.0,0.0,0.0,0.0,0.0,0.0,0.0,0.0,0.0,0.0,0.0,0.0,0.0,0.0,0.0,0.0,0.0,0.0686465501785,-9.70858287811,-0.0686465501785,0.0,0.0,0.0,0.0,0.0,0.0,0.0,0.0,0.0
1165993100,188193,1644542428904410839,1,0.0,0.0,0.0,0.0,0.0,0.0,0.0,0.0,0.0,0.0,0.0,0.0,0.0,0.0,0.0,0.0,0.0,0.0,0.0,0.0,0.0,0.0,0.0,0.0,0.0,0.137293100357,-9.61051654816,-0.274586200714,0.0,0.0,0.0,0.0,0.0,0.0,0.0,0.0,0.0
1168206000,188194,1644542428906424761,1,0.0,0.0,0.0,0.0,0.0,0.0,0.0,0.0,0.0,0.0,0.0,0.0,0.0,0.0,0.0,0.0,0.0,0.0,0.0,0.0,0.0,0.0,0.0,0.0,0.0,0.0784531980753,-9.57129001617,-0.294199496508,0.0,0.0,0.0,0.0,0.0,0.0,0.0,0.0,0.0
1170182400,188195,1644542428908440828,1,0.0,0.0,0.0,0.0,0.0,0.0,0.0,0.0,0.0,0.0,0.0,0.0,0.0,0.0,0.0,0.0,0.0,0.0,0.0,0.0,0.0,0.0,0.0,0.0,0.0,0.0686465501785,-9.57129001617,-0.264779537916,0.0,0.0,0.0,0.0,0.0,0.0,0.0,0.0,0.0
1172199200,188196,1644542428910454750,1,0.0,0.0,0.0,0.0,0.0,0.0,0.0,0.0,0.0,0.0,0.0,0.0,0.0,0.0,0.0,0.0,0.0,0.0,0.0,0.0,0.0,0.0,0.0,0.0,0.0,0.137293100357,-9.61051654816,-0.225552946329,0.0,0.0,0.0,0.0,0.0,0.0,0.0,0.0,0.0
1174085600,188197,1644542428912468672,1,0.0,0.0,0.0,0.0,0.0,0.0,0.0,0.0,0.0,0.0,0.0,0.0,0.0,0.0,0.0,0.0,0.0,0.0,0.0,0.0,0.0,0.0,0.0,0.0,0.0,0.0392265990376,-9.61051654816,-0.264779537916,0.0,0.0,0.0,0.0,0.0,0.0,0.0,0.0,0.0
1176405100,188198,1644542428914484501,1,0.0,0.0,0.0,0.0,0.0,0.0,0.0,0.0,0.0,0.0,0.0,0.0,0.0,0.0,0.0,0.0,0.0,0.0,0.0,0.0,0.0,0.0,0.0,0.0,0.0,0.225552946329,-9.86548995972,0.0784531980753,0.0,0.0,0.0,0.0,0.0,0.0,0.0,0.0,0.0
1178404600,188199,1644542428916498423,1,0.0,0.0,0.0,0.0,0.0,0.0,0.0,0.0,0.0,0.0,0.0,0.0,0.0,0.0,0.0,0.0,0.0,0.0,0.0,0.0,0.0,0.0,0.0,0.0,0.0,0.470719188452,-9.66935634613,-0.166713044047,0.0,0.0,0.0,0.0,0.0,0.0,0.0,0.0,0.0
1180408600,188200,1644542428918512344,1,0.0,0.0,0.0,0.0,0.0,0.0,0.0,0.0,0.0,0.0,0.0,0.0,0.0,0.0,0.0,0.0,0.0,0.0,0.0,0.0,0.0,0.0,0.0,0.0,0.0,0.451105892658,-9.56148338318,-0.343232750893,0.0,0.0,0.0,0.0,0.0,0.0,0.0,0.0,0.0
1182267600,188201,1644542428920526266,1,0.0,0.0,0.0,0.0,0.0,0.0,0.0,0.0,0.0,0.0,0.0,0.0,0.0,0.0,0.0,0.0,0.0,0.0,0.0,0.0,0.0,0.0,0.0,0.0,0.0,0.0980664938688,-9.48303031921,-0.313812792301,0.0,0.0,0.0,0.0,0.0,0.0,0.0,0.0,0.0
1184301600,188202,1644542428922538280,1,0.0,0.0,0.0,0.0,0.0,0.0,0.0,0.0,0.0,0.0,0.0,0.0,0.0,0.0,0.0,0.0,0.0,0.0,0.0,0.0,0.0,0.0,0.0,0.0,0.0,-0.137293100357,-9.5222568512,-0.38245934248,0.0,0.0,0.0,0.0,0.0,0.0,0.0,0.0,0.0
1186304600,188203,1644542428924554110,1,0.0,0.0,0.0,0.0,0.0,0.0,0.0,0.0,0.0,0.0,0.0,0.0,0.0,0.0,0.0,0.0,0.0,0.0,0.0,0.0,0.0,0.0,0.0,0.0,0.0,-0.176519691944,-9.39477062225,-0.402072638273,0.0,0.0,0.0,0.0,0.0,0.0,0.0,0.0,0.0
1188289000,188204,1644542428926568031,1,0.0,0.0,0.0,0.0,0.0,0.0,0.0,0.0,0.0,0.0,0.0,0.0,0.0,0.0,0.0,0.0,0.0,0.0,0.0,0.0,0.0,0.0,0.0,0.0,0.0,-0.12748645246,-9.38496398926,-0.451105892658,0.0,0.0,0.0,0.0,0.0,0.0,0.0,0.0,0.0
1190314900,188205,1644542428928581953,1,0.0,0.0,0.0,0.0,0.0,0.0,0.0,0.0,0.0,0.0,0.0,0.0,0.0,0.0,0.0,0.0,0.0,0.0,0.0,0.0,0.0,0.0,0.0,0.0,0.0,-0.0980664938688,-9.45361042023,-0.343232750893,0.0,0.0,0.0,0.0,0.0,0.0,0.0,0.0,0.0
1192295800,188206,1644542428930596113,1,0.0,0.0,0.0,0.0,0.0,0.0,0.0,0.0,0.0,0.0,0.0,0.0,0.0,0.0,0.0,0.0,0.0,0.0,0.0,0.0,0.0,0.0,0.0,0.0,0.0,-0.274586200714,-9.2868976593,-0.451105892658,0.0,0.0,0.0,0.0,0.0,0.0,0.0,0.0,0.0
1194441200,188207,1644542428932611942,1,0.0,0.0,0.0,0.0,0.0,0.0,0.0,0.0,0.0,0.0,0.0,0.0,0.0,0.0,0.0,0.0,0.0,0.0,0.0,0.0,0.0,0.0,0.0,0.0,0.0,-0.402072638273,-9.20844459534,-0.725692093372,0.0,0.0,0.0,0.0,0.0,0.0,0.0,0.0,0.0
1196301300,188208,1644542428934625864,1,0.0,0.0,0.0,0.0,0.0,0.0,0.0,0.0,0.0,0.0,0.0,0.0,0.0,0.0,0.0,0.0,0.0,0.0,0.0,0.0,0.0,0.0,0.0,0.0,0.0,-0.470719188452,-9.07115077972,-0.961051702499,0.0,0.0,0.0,0.0,0.0,0.0,0.0,0.0,0.0
1198441900,188209,1644542428936641932,1,0.0,0.0,0.0,0.0,0.0,0.0,0.0,0.0,0.0,0.0,0.0,0.0,0.0,0.0,0.0,0.0,0.0,0.0,0.0,0.0,0.0,0.0,0.0,0.0,0.0,-0.137293100357,-9.21825122833,-0.666852176189,0.0,0.0,0.0,0.0,0.0,0.0,0.0,0.0,0.0
1200436900,188210,1644542428938655853,1,0.0,0.0,0.0,0.0,0.0,0.0,0.0,0.0,0.0,0.0,0.0,0.0,0.0,0.0,0.0,0.0,0.0,0.0,0.0,0.0,0.0,0.0,0.0,0.0,0.0,-0.0784531980753,-9.34573745728,-0.549172401428,0.0,0.0,0.0,0.0,0.0,0.0,0.0,0.0,0.0
1202419000,188211,1644542428940671682,1,0.0,0.0,0.0,0.0,0.0,0.0,0.0,0.0,0.0,0.0,0.0,0.0,0.0,0.0,0.0,0.0,0.0,0.0,0.0,0.0,0.0,0.0,0.0,0.0,0.0,0.0686465501785,-9.43399715424,-0.274586200714,0.0,0.0,0.0,0.0,0.0,0.0,0.0,0.0,0.0
1204444700,188212,1644542428942687750,1,0.0,0.0,0.0,0.0,0.0,0.0,0.0,0.0,0.0,0.0,0.0,0.0,0.0,0.0,0.0,0.0,0.0,0.0,0.0,0.0,0.0,0.0,0.0,0.0,0.0,0.196132987738,-9.53206348419,-0.176519691944,0.0,0.0,0.0,0.0,0.0,0.0,0.0,0.0,0.0
1206391100,188213,1644542428944701672,1,0.0,0.0,0.0,0.0,0.0,0.0,0.0,0.0,0.0,0.0,0.0,0.0,0.0,0.0,0.0,0.0,0.0,0.0,0.0,0.0,0.0,0.0,0.0,0.0,0.0,0.294199496508,-9.61051654816,-0.137293100357,0.0,0.0,0.0,0.0,0.0,0.0,0.0,0.0,0.0
1208392400,188214,1644542428946715593,1,0.0,0.0,0.0,0.0,0.0,0.0,0.0,0.0,0.0,0.0,0.0,0.0,0.0,0.0,0.0,0.0,0.0,0.0,0.0,0.0,0.0,0.0,0.0,0.0,0.0,0.402072638273,-9.64974308014,-0.0294199492782,0.0,0.0,0.0,0.0,0.0,0.0,0.0,0.0,0.0
1210442200,188215,1644542428948731422,1,0.0,0.0,0.0,0.0,0.0,0.0,0.0,0.0,0.0,0.0,0.0,0.0,0.0,0.0,0.0,0.0,0.0,0.0,0.0,0.0,0.0,0.0,0.0,0.0,0.0,0.558979034424,-9.70858287811,0.0,0.0,0.0,0.0,0.0,0.0,0.0,0.0,0.0,0.0
1212690500,188216,1644542428950747252,1,0.0,0.0,0.0,0.0,0.0,0.0,0.0,0.0,0.0,0.0,0.0,0.0,0.0,0.0,0.0,0.0,0.0,0.0,0.0,0.0,0.0,0.0,0.0,0.0,0.0,0.813951909542,-9.80665016174,0.12748645246,0.0,0.0,0.0,0.0,0.0,0.0,0.0,0.0,0.0
1214680900,188217,1644542428952761173,1,0.0,0.0,0.0,0.0,0.0,0.0,0.0,0.0,0.0,0.0,0.0,0.0,0.0,0.0,0.0,0.0,0.0,0.0,0.0,0.0,0.0,0.0,0.0,0.0,0.0,0.921825051308,-9.61051654816,0.176519691944,0.0,0.0,0.0,0.0,0.0,0.0,0.0,0.0,0.0
1216518400,188218,1644542428954773188,1,0.0,0.0,0.0,0.0,0.0,0.0,0.0,0.0,0.0,0.0,0.0,0.0,0.0,0.0,0.0,0.0,0.0,0.0,0.0,0.0,0.0,0.0,0.0,0.0,0.0,2.78508853912,-9.07115077972,-3.55981397629,0.0,0.0,0.0,0.0,0.0,0.0,0.0,0.0,0.0
1218635600,188219,1644542428956789255,1,0.0,0.0,0.0,0.0,0.0,0.0,0.0,0.0,0.0,0.0,0.0,0.0,0.0,0.0,0.0,0.0,0.0,0.0,0.0,0.0,0.0,0.0,0.0,0.0,0.0,-0.343232750893,-10.0910425186,2.74586200714,0.0,0.0,0.0,0.0,0.0,0.0,0.0,0.0,0.0
1220573000,188220,1644542428958803177,1,0.0,0.0,0.0,0.0,0.0,0.0,0.0,0.0,0.0,0.0,0.0,0.0,0.0,0.0,0.0,0.0,0.0,0.0,0.0,0.0,0.0,0.0,0.0,0.0,0.0,1.04931151867,-9.88510322571,-0.764918684959,0.0,0.0,0.0,0.0,0.0,0.0,0.0,0.0,0.0
1222543300,188221,1644542428960817099,1,0.0,0.0,0.0,0.0,0.0,0.0,0.0,0.0,0.0,0.0,0.0,0.0,0.0,0.0,0.0,0.0,0.0,0.0,0.0,0.0,0.0,0.0,0.0,0.0,0.0,1.13757133484,-9.81645679474,0.451105892658,0.0,0.0,0.0,0.0,0.0,0.0,0.0,0.0,0.0
1224588000,188222,1644542428962832928,1,0.0,0.0,0.0,0.0,0.0,0.0,0.0,0.0,0.0,0.0,0.0,0.0,0.0,0.0,0.0,0.0,0.0,0.0,0.0,0.0,0.0,0.0,0.0,0.0,0.0,0.529559075832,-10.2087221146,1.05911815166,0.0,0.0,0.0,0.0,0.0,0.0,0.0,0.0,0.0
1226593800,188223,1644542428964846849,1,0.0,0.0,0.0,0.0,0.0,0.0,0.0,0.0,0.0,0.0,0.0,0.0,0.0,0.0,0.0,0.0,0.0,0.0,0.0,0.0,0.0,0.0,0.0,0.0,0.0,1.16699135303,-9.8949098587,0.0784531980753,0.0,0.0,0.0,0.0,0.0,0.0,0.0,0.0,0.0
1228671800,188224,1644542428966860771,1,0.0,0.0,0.0,0.0,0.0,0.0,0.0,0.0,0.0,0.0,0.0,0.0,0.0,0.0,0.0,0.0,0.0,0.0,0.0,0.0,0.0,0.0,0.0,0.0,0.0,0.804145276546,-10.0125894547,0.804145276546,0.0,0.0,0.0,0.0,0.0,0.0,0.0,0.0,0.0
1230579100,188225,1644542428968876600,1,0.0,0.0,0.0,0.0,0.0,0.0,0.0,0.0,0.0,0.0,0.0,0.0,0.0,0.0,0.0,0.0,0.0,0.0,0.0,0.0,0.0,0.0,0.0,0.0,0.0,0.725692093372,-9.91452312469,0.509945809841,0.0,0.0,0.0,0.0,0.0,0.0,0.0,0.0,0.0
1232553300,188226,1644542428970890760,1,0.0,0.0,0.0,0.0,0.0,0.0,0.0,0.0,0.0,0.0,0.0,0.0,0.0,0.0,0.0,0.0,0.0,0.0,0.0,0.0,0.0,0.0,0.0,0.0,0.0,0.764918684959,-9.75761604309,0.0980664938688,0.0,0.0,0.0,0.0,0.0,0.0,0.0,0.0,0.0
1234615800,188227,1644542428972904682,1,0.0,0.0,0.0,0.0,0.0,0.0,0.0,0.0,0.0,0.0,0.0,0.0,0.0,0.0,0.0,0.0,0.0,0.0,0.0,0.0,0.0,0.0,0.0,0.0,0.0,0.529559075832,-9.80665016174,0.264779537916,0.0,0.0,0.0,0.0,0.0,0.0,0.0,0.0,0.0
1236599500,188228,1644542428974918604,1,0.0,0.0,0.0,0.0,0.0,0.0,0.0,0.0,0.0,0.0,0.0,0.0,0.0,0.0,0.0,0.0,0.0,0.0,0.0,0.0,0.0,0.0,0.0,0.0,0.0,0.637432217598,-9.7478094101,0.137293100357,0.0,0.0,0.0,0.0,0.0,0.0,0.0,0.0,0.0
1238583600,188229,1644542428976934671,1,0.0,0.0,0.0,0.0,0.0,0.0,0.0,0.0,0.0,0.0,0.0,0.0,0.0,0.0,0.0,0.0,0.0,0.0,0.0,0.0,0.0,0.0,0.0,0.0,0.0,0.696272134781,-9.86548995972,0.245166242123,0.0,0.0,0.0,0.0,0.0,0.0,0.0,0.0,0.0
1240540900,188230,1644542428978948593,1,0.0,0.0,0.0,0.0,0.0,0.0,0.0,0.0,0.0,0.0,0.0,0.0,0.0,0.0,0.0,0.0,0.0,0.0,0.0,0.0,0.0,0.0,0.0,0.0,0.0,0.764918684959,-9.86548995972,0.529559075832,0.0,0.0,0.0,0.0,0.0,0.0,0.0,0.0,0.0
1243021400,188231,1644542428980962515,1,0.0,0.0,0.0,0.0,0.0,0.0,0.0,0.0,0.0,0.0,0.0,0.0,0.0,0.0,0.0,0.0,0.0,0.0,0.0,0.0,0.0,0.0,0.0,0.0,0.0,0.813951909542,-9.98316955566,0.470719188452,0.0,0.0,0.0,0.0,0.0,0.0,0.0,0.0,0.0
1244726600,188232,1644542428982978344,1,0.0,0.0,0.0,0.0,0.0,0.0,0.0,0.0,0.0,0.0,0.0,0.0,0.0,0.0,0.0,0.0,0.0,0.0,0.0,0.0,0.0,0.0,0.0,0.0,0.0,0.813951909542,-9.78703689575,0.225552946329,0.0,0.0,0.0,0.0,0.0,0.0,0.0,0.0,0.0
1246957000,188233,1644542428984992266,1,0.0,0.0,0.0,0.0,0.0,0.0,0.0,0.0,0.0,0.0,0.0,0.0,0.0,0.0,0.0,0.0,0.0,0.0,0.0,0.0,0.0,0.0,0.0,0.0,0.0,0.813951909542,-9.80665016174,0.0294199492782,0.0,0.0,0.0,0.0,0.0,0.0,0.0,0.0,0.0
1248955300,188234,1644542428987006426,1,0.0,0.0,0.0,0.0,0.0,0.0,0.0,0.0,0.0,0.0,0.0,0.0,0.0,0.0,0.0,0.0,0.0,0.0,0.0,0.0,0.0,0.0,0.0,0.0,0.0,0.813951909542,-9.78703689575,0.0784531980753,0.0,0.0,0.0,0.0,0.0,0.0,0.0,0.0,0.0
1251095500,188235,1644542428989020348,1,0.0,0.0,0.0,0.0,0.0,0.0,0.0,0.0,0.0,0.0,0.0,0.0,0.0,0.0,0.0,0.0,0.0,0.0,0.0,0.0,0.0,0.0,0.0,0.0,0.0,0.872791826725,-9.70858287811,0.0,0.0,0.0,0.0,0.0,0.0,0.0,0.0,0.0,0.0
1253417000,188236,1644542428991034269,1,0.0,0.0,0.0,0.0,0.0,0.0,0.0,0.0,0.0,0.0,0.0,0.0,0.0,0.0,0.0,0.0,0.0,0.0,0.0,0.0,0.0,0.0,0.0,0.0,0.0,0.833565235138,-9.66935634613,-0.137293100357,0.0,0.0,0.0,0.0,0.0,0.0,0.0,0.0,0.0
1254824300,188237,1644542428993048191,1,0.0,0.0,0.0,0.0,0.0,0.0,0.0,0.0,0.0,0.0,0.0,0.0,0.0,0.0,0.0,0.0,0.0,0.0,0.0,0.0,0.0,0.0,0.0,0.0,0.0,0.764918684959,-9.61051654816,-0.166713044047,0.0,0.0,0.0,0.0,0.0,0.0,0.0,0.0,0.0
1256893900,188238,1644542428995062113,1,0.0,0.0,0.0,0.0,0.0,0.0,0.0,0.0,0.0,0.0,0.0,0.0,0.0,0.0,0.0,0.0,0.0,0.0,0.0,0.0,0.0,0.0,0.0,0.0,0.0,0.666852176189,-9.64974308014,-0.176519691944,0.0,0.0,0.0,0.0,0.0,0.0,0.0,0.0,0.0
1258889200,188239,1644542428997076035,1,0.0,0.0,0.0,0.0,0.0,0.0,0.0,0.0,0.0,0.0,0.0,0.0,0.0,0.0,0.0,0.0,0.0,0.0,0.0,0.0,0.0,0.0,0.0,0.0,0.0,0.57859236002,-9.56148338318,-0.166713044047,0.0,0.0,0.0,0.0,0.0,0.0,0.0,0.0,0.0
1260963100,188240,1644542428999089956,1,0.0,0.0,0.0,0.0,0.0,0.0,0.0,0.0,0.0,0.0,0.0,0.0,0.0,0.0,0.0,0.0,0.0,0.0,0.0,0.0,0.0,0.0,0.0,0.0,0.0,0.470719188452,-9.61051654816,-0.166713044047,0.0,0.0,0.0,0.0,0.0,0.0,0.0,0.0,0.0
1262791500,188241,1644542429001105785,1,0.0,0.0,0.0,0.0,0.0,0.0,0.0,0.0,0.0,0.0,0.0,0.0,0.0,0.0,0.0,0.0,0.0,0.0,0.0,0.0,0.0,0.0,0.0,0.0,0.0,0.451105892658,-9.61051654816,-0.0980664938688,0.0,0.0,0.0,0.0,0.0,0.0,0.0,0.0,0.0
1264832400,188242,1644542429003119707,1,0.0,0.0,0.0,0.0,0.0,0.0,0.0,0.0,0.0,0.0,0.0,0.0,0.0,0.0,0.0,0.0,0.0,0.0,0.0,0.0,0.0,0.0,0.0,0.0,0.0,0.362846046686,-9.61051654816,-0.0392265990376,0.0,0.0,0.0,0.0,0.0,0.0,0.0,0.0,0.0
1266837100,188243,1644542429005135775,1,0.0,0.0,0.0,0.0,0.0,0.0,0.0,0.0,0.0,0.0,0.0,0.0,0.0,0.0,0.0,0.0,0.0,0.0,0.0,0.0,0.0,0.0,0.0,0.0,0.0,0.294199496508,-9.67916297913,0.00980664975941,0.0,0.0,0.0,0.0,0.0,0.0,0.0,0.0,0.0
1268951200,188244,1644542429007149696,1,0.0,0.0,0.0,0.0,0.0,0.0,0.0,0.0,0.0,0.0,0.0,0.0,0.0,0.0,0.0,0.0,0.0,0.0,0.0,0.0,0.0,0.0,0.0,0.0,0.0,0.313812792301,-9.64974308014,0.0294199492782,0.0,0.0,0.0,0.0,0.0,0.0,0.0,0.0,0.0
1270949400,188245,1644542429009163618,1,0.0,0.0,0.0,0.0,0.0,0.0,0.0,0.0,0.0,0.0,0.0,0.0,0.0,0.0,0.0,0.0,0.0,0.0,0.0,0.0,0.0,0.0,0.0,0.0,0.0,0.245166242123,-9.67916297913,0.0,0.0,0.0,0.0,0.0,0.0,0.0,0.0,0.0,0.0
1273330400,188246,1644542429011179447,1,0.0,0.0,0.0,0.0,0.0,0.0,0.0,0.0,0.0,0.0,0.0,0.0,0.0,0.0,0.0,0.0,0.0,0.0,0.0,0.0,0.0,0.0,0.0,0.0,0.0,0.245166242123,-9.61051654816,0.0392265990376,0.0,0.0,0.0,0.0,0.0,0.0,0.0,0.0,0.0
1275270100,188247,1644542429013193369,1,0.0,0.0,0.0,0.0,0.0,0.0,0.0,0.0,0.0,0.0,0.0,0.0,0.0,0.0,0.0,0.0,0.0,0.0,0.0,0.0,0.0,0.0,0.0,0.0,0.0,0.313812792301,-9.71838951111,0.00980664975941,0.0,0.0,0.0,0.0,0.0,0.0,0.0,0.0,0.0
1276849700,188248,1644542429015207291,1,0.0,0.0,0.0,0.0,0.0,0.0,0.0,0.0,0.0,0.0,0.0,0.0,0.0,0.0,0.0,0.0,0.0,0.0,0.0,0.0,0.0,0.0,0.0,0.0,0.0,0.38245934248,-9.66935634613,0.0,0.0,0.0,0.0,0.0,0.0,0.0,0.0,0.0,0.0
1279267400,188249,1644542429017221212,1,0.0,0.0,0.0,0.0,0.0,0.0,0.0,0.0,0.0,0.0,0.0,0.0,0.0,0.0,0.0,0.0,0.0,0.0,0.0,0.0,0.0,0.0,0.0,0.0,0.0,0.264779537916,-9.66935634613,-0.0784531980753,0.0,0.0,0.0,0.0,0.0,0.0,0.0,0.0,0.0
1281599600,188250,1644542429019237280,1,0.0,0.0,0.0,0.0,0.0,0.0,0.0,0.0,0.0,0.0,0.0,0.0,0.0,0.0,0.0,0.0,0.0,0.0,0.0,0.0,0.0,0.0,0.0,0.0,0.0,0.264779537916,-9.58109664917,-0.137293100357,0.0,0.0,0.0,0.0,0.0,0.0,0.0,0.0,0.0
1283086900,188251,1644542429021251202,1,0.0,0.0,0.0,0.0,0.0,0.0,0.0,0.0,0.0,0.0,0.0,0.0,0.0,0.0,0.0,0.0,0.0,0.0,0.0,0.0,0.0,0.0,0.0,0.0,0.0,0.245166242123,-9.57129001617,-0.166713044047,0.0,0.0,0.0,0.0,0.0,0.0,0.0,0.0,0.0
1285133500,188252,1644542429023265123,1,0.0,0.0,0.0,0.0,0.0,0.0,0.0,0.0,0.0,0.0,0.0,0.0,0.0,0.0,0.0,0.0,0.0,0.0,0.0,0.0,0.0,0.0,0.0,0.0,0.0,0.176519691944,-9.53206348419,-0.176519691944,0.0,0.0,0.0,0.0,0.0,0.0,0.0,0.0,0.0
1287070700,188253,1644542429025280952,1,0.0,0.0,0.0,0.0,0.0,0.0,0.0,0.0,0.0,0.0,0.0,0.0,0.0,0.0,0.0,0.0,0.0,0.0,0.0,0.0,0.0,0.0,0.0,0.0,0.0,0.245166242123,-9.56148338318,-0.225552946329,0.0,0.0,0.0,0.0,0.0,0.0,0.0,0.0,0.0
1289068800,188254,1644542429027294874,1,0.0,0.0,0.0,0.0,0.0,0.0,0.0,0.0,0.0,0.0,0.0,0.0,0.0,0.0,0.0,0.0,0.0,0.0,0.0,0.0,0.0,0.0,0.0,0.0,0.0,0.225552946329,-9.58109664917,-0.196132987738,0.0,0.0,0.0,0.0,0.0,0.0,0.0,0.0,0.0
1291577300,188255,1644542429029308796,1,0.0,0.0,0.0,0.0,0.0,0.0,0.0,0.0,0.0,0.0,0.0,0.0,0.0,0.0,0.0,0.0,0.0,0.0,0.0,0.0,0.0,0.0,0.0,0.0,0.0,0.274586200714,-9.53206348419,-0.166713044047,0.0,0.0,0.0,0.0,0.0,0.0,0.0,0.0,0.0
1293117100,188256,1644542429031324863,1,0.0,0.0,0.0,0.0,0.0,0.0,0.0,0.0,0.0,0.0,0.0,0.0,0.0,0.0,0.0,0.0,0.0,0.0,0.0,0.0,0.0,0.0,0.0,0.0,0.0,0.294199496508,-9.61051654816,-0.166713044047,0.0,0.0,0.0,0.0,0.0,0.0,0.0,0.0,0.0
1295081000,188257,1644542429033338785,1,0.0,0.0,0.0,0.0,0.0,0.0,0.0,0.0,0.0,0.0,0.0,0.0,0.0,0.0,0.0,0.0,0.0,0.0,0.0,0.0,0.0,0.0,0.0,0.0,0.0,0.294199496508,-9.62032318115,-0.0980664938688,0.0,0.0,0.0,0.0,0.0,0.0,0.0,0.0,0.0
1297067700,188258,1644542429035352707,1,0.0,0.0,0.0,0.0,0.0,0.0,0.0,0.0,0.0,0.0,0.0,0.0,0.0,0.0,0.0,0.0,0.0,0.0,0.0,0.0,0.0,0.0,0.0,0.0,0.0,0.343232750893,-9.62032318115,-0.0980664938688,0.0,0.0,0.0,0.0,0.0,0.0,0.0,0.0,0.0
1299147500,188259,1644542429037366629,1,0.0,0.0,0.0,0.0,0.0,0.0,0.0,0.0,0.0,0.0,0.0,0.0,0.0,0.0,0.0,0.0,0.0,0.0,0.0,0.0,0.0,0.0,0.0,0.0,0.0,0.402072638273,-9.62032318115,-0.0686465501785,0.0,0.0,0.0,0.0,0.0,0.0,0.0,0.0,0.0
1301331600,188260,1644542429039382458,1,0.0,0.0,0.0,0.0,0.0,0.0,0.0,0.0,0.0,0.0,0.0,0.0,0.0,0.0,0.0,0.0,0.0,0.0,0.0,0.0,0.0,0.0,0.0,0.0,0.0,0.490332484245,-9.66935634613,-0.0686465501785,0.0,0.0,0.0,0.0,0.0,0.0,0.0,0.0,0.0
1303183400,188261,1644542429041396379,1,0.0,0.0,0.0,0.0,0.0,0.0,0.0,0.0,0.0,0.0,0.0,0.0,0.0,0.0,0.0,0.0,0.0,0.0,0.0,0.0,0.0,0.0,0.0,0.0,0.0,0.470719188452,-9.66935634613,-0.0686465501785,0.0,0.0,0.0,0.0,0.0,0.0,0.0,0.0,0.0
1305167800,188262,1644542429043410301,1,0.0,0.0,0.0,0.0,0.0,0.0,0.0,0.0,0.0,0.0,0.0,0.0,0.0,0.0,0.0,0.0,0.0,0.0,0.0,0.0,0.0,0.0,0.0,0.0,0.0,0.470719188452,-9.64974308014,0.0,0.0,0.0,0.0,0.0,0.0,0.0,0.0,0.0,0.0
1307040700,188263,1644542429045424223,1,0.0,0.0,0.0,0.0,0.0,0.0,0.0,0.0,0.0,0.0,0.0,0.0,0.0,0.0,0.0,0.0,0.0,0.0,0.0,0.0,0.0,0.0,0.0,0.0,0.0,0.490332484245,-9.62032318115,-0.00980664975941,0.0,0.0,0.0,0.0,0.0,0.0,0.0,0.0,0.0
1309224000,188264,1644542429047438145,1,0.0,0.0,0.0,0.0,0.0,0.0,0.0,0.0,0.0,0.0,0.0,0.0,0.0,0.0,0.0,0.0,0.0,0.0,0.0,0.0,0.0,0.0,0.0,0.0,0.0,0.509945809841,-9.62032318115,-0.0294199492782,0.0,0.0,0.0,0.0,0.0,0.0,0.0,0.0,0.0
1311735200,188265,1644542429049454451,1,0.0,0.0,0.0,0.0,0.0,0.0,0.0,0.0,0.0,0.0,0.0,0.0,0.0,0.0,0.0,0.0,0.0,0.0,0.0,0.0,0.0,0.0,0.0,0.0,0.0,0.421685934067,-9.67916297913,-0.0294199492782,0.0,0.0,0.0,0.0,0.0,0.0,0.0,0.0,0.0
1313110400,188266,1644542429051468372,1,0.0,0.0,0.0,0.0,0.0,0.0,0.0,0.0,0.0,0.0,0.0,0.0,0.0,0.0,0.0,0.0,0.0,0.0,0.0,0.0,0.0,0.0,0.0,0.0,0.0,0.402072638273,-9.67916297913,-0.0686465501785,0.0,0.0,0.0,0.0,0.0,0.0,0.0,0.0,0.0
1315400100,188267,1644542429053482294,1,0.0,0.0,0.0,0.0,0.0,0.0,0.0,0.0,0.0,0.0,0.0,0.0,0.0,0.0,0.0,0.0,0.0,0.0,0.0,0.0,0.0,0.0,0.0,0.0,0.0,0.421685934067,-9.67916297913,0.00980664975941,0.0,0.0,0.0,0.0,0.0,0.0,0.0,0.0,0.0
1317320900,188268,1644542429055495977,1,0.0,0.0,0.0,0.0,0.0,0.0,0.0,0.0,0.0,0.0,0.0,0.0,0.0,0.0,0.0,0.0,0.0,0.0,0.0,0.0,0.0,0.0,0.0,0.0,0.0,0.402072638273,-9.67916297913,-0.0784531980753,0.0,0.0,0.0,0.0,0.0,0.0,0.0,0.0,0.0
1319320800,188269,1644542429057509899,1,0.0,0.0,0.0,0.0,0.0,0.0,0.0,0.0,0.0,0.0,0.0,0.0,0.0,0.0,0.0,0.0,0.0,0.0,0.0,0.0,0.0,0.0,0.0,0.0,0.0,0.362846046686,-9.66935634613,-0.00980664975941,0.0,0.0,0.0,0.0,0.0,0.0,0.0,0.0,0.0
1321470100,188270,1644542429059523821,1,0.0,0.0,0.0,0.0,0.0,0.0,0.0,0.0,0.0,0.0,0.0,0.0,0.0,0.0,0.0,0.0,0.0,0.0,0.0,0.0,0.0,0.0,0.0,0.0,0.0,0.313812792301,-9.64974308014,-0.0686465501785,0.0,0.0,0.0,0.0,0.0,0.0,0.0,0.0,0.0
1323407600,188271,1644542429061539888,1,0.0,0.0,0.0,0.0,0.0,0.0,0.0,0.0,0.0,0.0,0.0,0.0,0.0,0.0,0.0,0.0,0.0,0.0,0.0,0.0,0.0,0.0,0.0,0.0,0.0,0.313812792301,-9.61051654816,-0.137293100357,0.0,0.0,0.0,0.0,0.0,0.0,0.0,0.0,0.0
1325427500,188272,1644542429063554049,1,0.0,0.0,0.0,0.0,0.0,0.0,0.0,0.0,0.0,0.0,0.0,0.0,0.0,0.0,0.0,0.0,0.0,0.0,0.0,0.0,0.0,0.0,0.0,0.0,0.0,0.294199496508,-9.5222568512,-0.176519691944,0.0,0.0,0.0,0.0,0.0,0.0,0.0,0.0,0.0
1327392700,188273,1644542429065565586,1,0.0,0.0,0.0,0.0,0.0,0.0,0.0,0.0,0.0,0.0,0.0,0.0,0.0,0.0,0.0,0.0,0.0,0.0,0.0,0.0,0.0,0.0,0.0,0.0,0.0,-0.00980664975941,-9.21825122833,-0.529559075832,0.0,0.0,0.0,0.0,0.0,0.0,0.0,0.0,0.0
1329355100,188274,1644542429067579746,1,0.0,0.0,0.0,0.0,0.0,0.0,0.0,0.0,0.0,0.0,0.0,0.0,0.0,0.0,0.0,0.0,0.0,0.0,0.0,0.0,0.0,0.0,0.0,0.0,0.0,-0.402072638273,-9.17902374268,-0.637432217598,0.0,0.0,0.0,0.0,0.0,0.0,0.0,0.0,0.0
1331529300,188275,1644542429069595814,1,0.0,0.0,0.0,0.0,0.0,0.0,0.0,0.0,0.0,0.0,0.0,0.0,0.0,0.0,0.0,0.0,0.0,0.0,0.0,0.0,0.0,0.0,0.0,0.0,0.0,0.0784531980753,-9.2868976593,-0.813951909542,0.0,0.0,0.0,0.0,0.0,0.0,0.0,0.0,0.0
1333310100,188276,1644542429071609735,1,0.0,0.0,0.0,0.0,0.0,0.0,0.0,0.0,0.0,0.0,0.0,0.0,0.0,0.0,0.0,0.0,0.0,0.0,0.0,0.0,0.0,0.0,0.0,0.0,0.0,0.804145276546,-9.42419052124,-0.402072638273,0.0,0.0,0.0,0.0,0.0,0.0,0.0,0.0,0.0
1335440400,188277,1644542429073625565,1,0.0,0.0,0.0,0.0,0.0,0.0,0.0,0.0,0.0,0.0,0.0,0.0,0.0,0.0,0.0,0.0,0.0,0.0,0.0,0.0,0.0,0.0,0.0,0.0,0.0,0.696272134781,-9.35554409027,-0.470719188452,0.0,0.0,0.0,0.0,0.0,0.0,0.0,0.0,0.0
1337437900,188278,1644542429075637341,1,0.0,0.0,0.0,0.0,0.0,0.0,0.0,0.0,0.0,0.0,0.0,0.0,0.0,0.0,0.0,0.0,0.0,0.0,0.0,0.0,0.0,0.0,0.0,0.0,0.0,-0.0294199492782,-9.07115077972,-0.921825051308,0.0,0.0,0.0,0.0,0.0,0.0,0.0,0.0,0.0
1339429400,188279,1644542429077651262,1,0.0,0.0,0.0,0.0,0.0,0.0,0.0,0.0,0.0,0.0,0.0,0.0,0.0,0.0,0.0,0.0,0.0,0.0,0.0,0.0,0.0,0.0,0.0,0.0,0.0,-0.12748645246,-9.21825122833,-1.01008486748,0.0,0.0,0.0,0.0,0.0,0.0,0.0,0.0,0.0
1341447700,188280,1644542429079667330,1,0.0,0.0,0.0,0.0,0.0,0.0,0.0,0.0,0.0,0.0,0.0,0.0,0.0,0.0,0.0,0.0,0.0,0.0,0.0,0.0,0.0,0.0,0.0,0.0,0.0,0.166713044047,-9.20844459534,-0.833565235138,0.0,0.0,0.0,0.0,0.0,0.0,0.0,0.0,0.0
1343372400,188281,1644542429081681490,1,0.0,0.0,0.0,0.0,0.0,0.0,0.0,0.0,0.0,0.0,0.0,0.0,0.0,0.0,0.0,0.0,0.0,0.0,0.0,0.0,0.0,0.0,0.0,0.0,0.0,0.362846046686,-9.1201839447,-0.882598459721,0.0,0.0,0.0,0.0,0.0,0.0,0.0,0.0,0.0
1345326500,188282,1644542429083697319,1,0.0,0.0,0.0,0.0,0.0,0.0,0.0,0.0,0.0,0.0,0.0,0.0,0.0,0.0,0.0,0.0,0.0,0.0,0.0,0.0,0.0,0.0,0.0,0.0,0.0,0.509945809841,-9.21825122833,-0.990471601486,0.0,0.0,0.0,0.0,0.0,0.0,0.0,0.0,0.0
1347338800,188283,1644542429085711241,1,0.0,0.0,0.0,0.0,0.0,0.0,0.0,0.0,0.0,0.0,0.0,0.0,0.0,0.0,0.0,0.0,0.0,0.0,0.0,0.0,0.0,0.0,0.0,0.0,0.0,0.549172401428,-9.24767112732,-1.01989161968,0.0,0.0,0.0,0.0,0.0,0.0,0.0,0.0,0.0
1349304300,188284,1644542429087725163,1,0.0,0.0,0.0,0.0,0.0,0.0,0.0,0.0,0.0,0.0,0.0,0.0,0.0,0.0,0.0,0.0,0.0,0.0,0.0,0.0,0.0,0.0,0.0,0.0,0.0,0.529559075832,-9.16921710968,-1.01008486748,0.0,0.0,0.0,0.0,0.0,0.0,0.0,0.0,0.0
1351332600,188285,1644542429089739084,1,0.0,0.0,0.0,0.0,0.0,0.0,0.0,0.0,0.0,0.0,0.0,0.0,0.0,0.0,0.0,0.0,0.0,0.0,0.0,0.0,0.0,0.0,0.0,0.0,0.0,0.549172401428,-9.15941047668,-1.13757133484,0.0,0.0,0.0,0.0,0.0,0.0,0.0,0.0,0.0
1353502400,188286,1644542429091753006,1,0.0,0.0,0.0,0.0,0.0,0.0,0.0,0.0,0.0,0.0,0.0,0.0,0.0,0.0,0.0,0.0,0.0,0.0,0.0,0.0,0.0,0.0,0.0,0.0,0.0,0.549172401428,-8.58081817627,-1.84365010262,0.0,0.0,0.0,0.0,0.0,0.0,0.0,0.0,0.0
1355587700,188287,1644542429093769073,1,0.0,0.0,0.0,0.0,0.0,0.0,0.0,0.0,0.0,0.0,0.0,0.0,0.0,0.0,0.0,0.0,0.0,0.0,0.0,0.0,0.0,0.0,0.0,0.0,0.0,0.529559075832,-8.8946313858,-1.61809718609,0.0,0.0,0.0,0.0,0.0,0.0,0.0,0.0,0.0
1357572600,188288,1644542429095782995,1,0.0,0.0,0.0,0.0,0.0,0.0,0.0,0.0,0.0,0.0,0.0,0.0,0.0,0.0,0.0,0.0,0.0,0.0,0.0,0.0,0.0,0.0,0.0,0.0,0.0,0.294199496508,-8.98289108276,-1.13757133484,0.0,0.0,0.0,0.0,0.0,0.0,0.0,0.0,0.0
1359597000,188289,1644542429097796917,1,0.0,0.0,0.0,0.0,0.0,0.0,0.0,0.0,0.0,0.0,0.0,0.0,0.0,0.0,0.0,0.0,0.0,0.0,0.0,0.0,0.0,0.0,0.0,0.0,0.0,0.264779537916,-9.06134414673,-0.490332484245,0.0,0.0,0.0,0.0,0.0,0.0,0.0,0.0,0.0
1361594500,188290,1644542429099810839,1,0.0,0.0,0.0,0.0,0.0,0.0,0.0,0.0,0.0,0.0,0.0,0.0,0.0,0.0,0.0,0.0,0.0,0.0,0.0,0.0,0.0,0.0,0.0,0.0,0.0,0.294199496508,-9.61051654816,-0.00980664975941,0.0,0.0,0.0,0.0,0.0,0.0,0.0,0.0,0.0
1363702300,188291,1644542429101824760,1,0.0,0.0,0.0,0.0,0.0,0.0,0.0,0.0,0.0,0.0,0.0,0.0,0.0,0.0,0.0,0.0,0.0,0.0,0.0,0.0,0.0,0.0,0.0,0.0,0.0,0.343232750893,-9.70858287811,-0.176519691944,0.0,0.0,0.0,0.0,0.0,0.0,0.0,0.0,0.0
1365703500,188292,1644542429103840590,1,0.0,0.0,0.0,0.0,0.0,0.0,0.0,0.0,0.0,0.0,0.0,0.0,0.0,0.0,0.0,0.0,0.0,0.0,0.0,0.0,0.0,0.0,0.0,0.0,0.0,0.735498726368,-9.70858287811,-0.313812792301,0.0,0.0,0.0,0.0,0.0,0.0,0.0,0.0,0.0
1367583000,188293,1644542429105852604,1,0.0,0.0,0.0,0.0,0.0,0.0,0.0,0.0,0.0,0.0,0.0,0.0,0.0,0.0,0.0,0.0,0.0,0.0,0.0,0.0,0.0,0.0,0.0,0.0,0.0,-0.166713044047,-9.61051654816,-0.470719188452,0.0,0.0,0.0,0.0,0.0,0.0,0.0,0.0,0.0
1369583200,188294,1644542429107870579,1,0.0,0.0,0.0,0.0,0.0,0.0,0.0,0.0,0.0,0.0,0.0,0.0,0.0,0.0,0.0,0.0,0.0,0.0,0.0,0.0,0.0,0.0,0.0,0.0,0.0,3.4911673069,-9.91452312469,1.31409108639,0.0,0.0,0.0,0.0,0.0,0.0,0.0,0.0,0.0
1371546200,188295,1644542429109884501,1,0.0,0.0,0.0,0.0,0.0,0.0,0.0,0.0,0.0,0.0,0.0,0.0,0.0,0.0,0.0,0.0,0.0,0.0,0.0,0.0,0.0,0.0,0.0,0.0,0.0,0.245166242123,-10.9344148636,1.31409108639,0.0,0.0,0.0,0.0,0.0,0.0,0.0,0.0,0.0
1373575300,188296,1644542429111898422,1,0.0,0.0,0.0,0.0,0.0,0.0,0.0,0.0,0.0,0.0,0.0,0.0,0.0,0.0,0.0,0.0,0.0,0.0,0.0,0.0,0.0,0.0,0.0,0.0,0.0,-0.921825051308,-17.0243434906,11.0422878265,0.0,0.0,0.0,0.0,0.0,0.0,0.0,0.0,0.0
1375557000,188297,1644542429113912344,1,0.0,0.0,0.0,0.0,0.0,0.0,0.0,0.0,0.0,0.0,0.0,0.0,0.0,0.0,0.0,0.0,0.0,0.0,0.0,0.0,0.0,0.0,0.0,0.0,0.0,-0.990471601486,-9.98316955566,11.1893873215,0.0,0.0,0.0,0.0,0.0,0.0,0.0,0.0,0.0
1377751800,188298,1644542429115926266,1,0.0,0.0,0.0,0.0,0.0,0.0,0.0,0.0,0.0,0.0,0.0,0.0,0.0,0.0,0.0,0.0,0.0,0.0,0.0,0.0,0.0,0.0,0.0,0.0,0.0,-0.196132987738,-6.75678157806,-7.9041595459,0.0,0.0,0.0,0.0,0.0,0.0,0.0,0.0,0.0
1380087100,188299,1644542429117942095,1,0.0,0.0,0.0,0.0,0.0,0.0,0.0,0.0,0.0,0.0,0.0,0.0,0.0,0.0,0.0,0.0,0.0,0.0,0.0,0.0,0.0,0.0,0.0,0.0,0.0,0.833565235138,-10.2087221146,-0.451105892658,0.0,0.0,0.0,0.0,0.0,0.0,0.0,0.0,0.0
1381520800,188300,1644542429119956017,1,0.0,0.0,0.0,0.0,0.0,0.0,0.0,0.0,0.0,0.0,0.0,0.0,0.0,0.0,0.0,0.0,0.0,0.0,0.0,0.0,0.0,0.0,0.0,0.0,0.0,0.451105892658,-10.8853816986,4.59931850433,0.0,0.0,0.0,0.0,0.0,0.0,0.0,0.0,0.0
1383563100,188301,1644542429121969938,1,0.0,0.0,0.0,0.0,0.0,0.0,0.0,0.0,0.0,0.0,0.0,0.0,0.0,0.0,0.0,0.0,0.0,0.0,0.0,0.0,0.0,0.0,0.0,0.0,0.0,0.362846046686,-8.48275184631,-2.5399222374,0.0,0.0,0.0,0.0,0.0,0.0,0.0,0.0,0.0
1385524200,188302,1644542429123986006,1,0.0,0.0,0.0,0.0,0.0,0.0,0.0,0.0,0.0,0.0,0.0,0.0,0.0,0.0,0.0,0.0,0.0,0.0,0.0,0.0,0.0,0.0,0.0,0.0,0.0,0.12748645246,-10.1891088486,1.04931151867,0.0,0.0,0.0,0.0,0.0,0.0,0.0,0.0,0.0
1387895800,188303,1644542429125999928,1,0.0,0.0,0.0,0.0,0.0,0.0,0.0,0.0,0.0,0.0,0.0,0.0,0.0,0.0,0.0,0.0,0.0,0.0,0.0,0.0,0.0,0.0,0.0,0.0,0.0,0.0784531980753,-9.5222568512,0.264779537916,0.0,0.0,0.0,0.0,0.0,0.0,0.0,0.0,0.0
1389891100,188304,1644542429128015757,1,0.0,0.0,0.0,0.0,0.0,0.0,0.0,0.0,0.0,0.0,0.0,0.0,0.0,0.0,0.0,0.0,0.0,0.0,0.0,0.0,0.0,0.0,0.0,0.0,0.0,0.421685934067,-9.58109664917,0.0686465501785,0.0,0.0,0.0,0.0,0.0,0.0,0.0,0.0,0.0
1391797200,188305,1644542429130029678,1,0.0,0.0,0.0,0.0,0.0,0.0,0.0,0.0,0.0,0.0,0.0,0.0,0.0,0.0,0.0,0.0,0.0,0.0,0.0,0.0,0.0,0.0,0.0,0.0,0.0,0.470719188452,-9.98316955566,0.627625584602,0.0,0.0,0.0,0.0,0.0,0.0,0.0,0.0,0.0
1393824700,188306,1644542429132041693,1,0.0,0.0,0.0,0.0,0.0,0.0,0.0,0.0,0.0,0.0,0.0,0.0,0.0,0.0,0.0,0.0,0.0,0.0,0.0,0.0,0.0,0.0,0.0,0.0,0.0,0.362846046686,-9.5222568512,-0.00980664975941,0.0,0.0,0.0,0.0,0.0,0.0,0.0,0.0,0.0
1396453300,188307,1644542429134057522,1,0.0,0.0,0.0,0.0,0.0,0.0,0.0,0.0,0.0,0.0,0.0,0.0,0.0,0.0,0.0,0.0,0.0,0.0,0.0,0.0,0.0,0.0,0.0,0.0,0.0,0.313812792301,-9.75761604309,0.264779537916,0.0,0.0,0.0,0.0,0.0,0.0,0.0,0.0,0.0
1397991700,188308,1644542429136073828,1,0.0,0.0,0.0,0.0,0.0,0.0,0.0,0.0,0.0,0.0,0.0,0.0,0.0,0.0,0.0,0.0,0.0,0.0,0.0,0.0,0.0,0.0,0.0,0.0,0.0,0.402072638273,-9.57129001617,0.274586200714,0.0,0.0,0.0,0.0,0.0,0.0,0.0,0.0,0.0
1399906000,188309,1644542429138087749,1,0.0,0.0,0.0,0.0,0.0,0.0,0.0,0.0,0.0,0.0,0.0,0.0,0.0,0.0,0.0,0.0,0.0,0.0,0.0,0.0,0.0,0.0,0.0,0.0,0.0,0.274586200714,-9.70858287811,0.274586200714,0.0,0.0,0.0,0.0,0.0,0.0,0.0,0.0,0.0
1402018600,188310,1644542429140103579,1,0.0,0.0,0.0,0.0,0.0,0.0,0.0,0.0,0.0,0.0,0.0,0.0,0.0,0.0,0.0,0.0,0.0,0.0,0.0,0.0,0.0,0.0,0.0,0.0,0.0,0.470719188452,-9.66935634613,0.225552946329,0.0,0.0,0.0,0.0,0.0,0.0,0.0,0.0,0.0
1404208400,188311,1644542429142117500,1,0.0,0.0,0.0,0.0,0.0,0.0,0.0,0.0,0.0,0.0,0.0,0.0,0.0,0.0,0.0,0.0,0.0,0.0,0.0,0.0,0.0,0.0,0.0,0.0,0.0,0.451105892658,-9.66935634613,0.313812792301,0.0,0.0,0.0,0.0,0.0,0.0,0.0,0.0,0.0
1406086600,188312,1644542429144131422,1,0.0,0.0,0.0,0.0,0.0,0.0,0.0,0.0,0.0,0.0,0.0,0.0,0.0,0.0,0.0,0.0,0.0,0.0,0.0,0.0,0.0,0.0,0.0,0.0,0.0,0.274586200714,-9.61051654816,0.38245934248,0.0,0.0,0.0,0.0,0.0,0.0,0.0,0.0,0.0
1407884400,188313,1644542429146145344,1,0.0,0.0,0.0,0.0,0.0,0.0,0.0,0.0,0.0,0.0,0.0,0.0,0.0,0.0,0.0,0.0,0.0,0.0,0.0,0.0,0.0,0.0,0.0,0.0,0.0,0.264779537916,-9.57129001617,0.00980664975941,0.0,0.0,0.0,0.0,0.0,0.0,0.0,0.0,0.0
1409968100,188314,1644542429148161411,1,0.0,0.0,0.0,0.0,0.0,0.0,0.0,0.0,0.0,0.0,0.0,0.0,0.0,0.0,0.0,0.0,0.0,0.0,0.0,0.0,0.0,0.0,0.0,0.0,0.0,0.38245934248,-9.67916297913,0.38245934248,0.0,0.0,0.0,0.0,0.0,0.0,0.0,0.0,0.0
1411783600,188315,1644542429150175333,1,0.0,0.0,0.0,0.0,0.0,0.0,0.0,0.0,0.0,0.0,0.0,0.0,0.0,0.0,0.0,0.0,0.0,0.0,0.0,0.0,0.0,0.0,0.0,0.0,0.0,0.294199496508,-9.56148338318,0.274586200714,0.0,0.0,0.0,0.0,0.0,0.0,0.0,0.0,0.0
1413819000,188316,1644542429152189255,1,0.0,0.0,0.0,0.0,0.0,0.0,0.0,0.0,0.0,0.0,0.0,0.0,0.0,0.0,0.0,0.0,0.0,0.0,0.0,0.0,0.0,0.0,0.0,0.0,0.0,0.264779537916,-9.7478094101,0.294199496508,0.0,0.0,0.0,0.0,0.0,0.0,0.0,0.0,0.0
1415748800,188317,1644542429154203176,1,0.0,0.0,0.0,0.0,0.0,0.0,0.0,0.0,0.0,0.0,0.0,0.0,0.0,0.0,0.0,0.0,0.0,0.0,0.0,0.0,0.0,0.0,0.0,0.0,0.0,0.38245934248,-9.61051654816,0.225552946329,0.0,0.0,0.0,0.0,0.0,0.0,0.0,0.0,0.0
1417777200,188318,1644542429156219006,1,0.0,0.0,0.0,0.0,0.0,0.0,0.0,0.0,0.0,0.0,0.0,0.0,0.0,0.0,0.0,0.0,0.0,0.0,0.0,0.0,0.0,0.0,0.0,0.0,0.0,0.362846046686,-9.62032318115,0.343232750893,0.0,0.0,0.0,0.0,0.0,0.0,0.0,0.0,0.0
1419859600,188319,1644542429158232927,1,0.0,0.0,0.0,0.0,0.0,0.0,0.0,0.0,0.0,0.0,0.0,0.0,0.0,0.0,0.0,0.0,0.0,0.0,0.0,0.0,0.0,0.0,0.0,0.0,0.0,0.137293100357,-9.56148338318,0.176519691944,0.0,0.0,0.0,0.0,0.0,0.0,0.0,0.0,0.0
1422093200,188320,1644542429160247087,1,0.0,0.0,0.0,0.0,0.0,0.0,0.0,0.0,0.0,0.0,0.0,0.0,0.0,0.0,0.0,0.0,0.0,0.0,0.0,0.0,0.0,0.0,0.0,0.0,0.0,0.166713044047,-9.67916297913,0.225552946329,0.0,0.0,0.0,0.0,0.0,0.0,0.0,0.0,0.0
1424065500,188321,1644542429162261009,1,0.0,0.0,0.0,0.0,0.0,0.0,0.0,0.0,0.0,0.0,0.0,0.0,0.0,0.0,0.0,0.0,0.0,0.0,0.0,0.0,0.0,0.0,0.0,0.0,0.0,0.12748645246,-9.53206348419,0.362846046686,0.0,0.0,0.0,0.0,0.0,0.0,0.0,0.0,0.0
1426906900,188322,1644542429164274931,1,0.0,0.0,0.0,0.0,0.0,0.0,0.0,0.0,0.0,0.0,0.0,0.0,0.0,0.0,0.0,0.0,0.0,0.0,0.0,0.0,0.0,0.0,0.0,0.0,0.0,0.0980664938688,-9.58109664917,0.245166242123,0.0,0.0,0.0,0.0,0.0,0.0,0.0,0.0,0.0
1428302800,188323,1644542429166288853,1,0.0,0.0,0.0,0.0,0.0,0.0,0.0,0.0,0.0,0.0,0.0,0.0,0.0,0.0,0.0,0.0,0.0,0.0,0.0,0.0,0.0,0.0,0.0,0.0,0.0,0.12748645246,-9.7478094101,0.362846046686,0.0,0.0,0.0,0.0,0.0,0.0,0.0,0.0,0.0
1430269100,188324,1644542429168304682,1,0.0,0.0,0.0,0.0,0.0,0.0,0.0,0.0,0.0,0.0,0.0,0.0,0.0,0.0,0.0,0.0,0.0,0.0,0.0,0.0,0.0,0.0,0.0,0.0,0.0,0.137293100357,-9.61051654816,0.549172401428,0.0,0.0,0.0,0.0,0.0,0.0,0.0,0.0,0.0
1432132500,188325,1644542429170318604,1,0.0,0.0,0.0,0.0,0.0,0.0,0.0,0.0,0.0,0.0,0.0,0.0,0.0,0.0,0.0,0.0,0.0,0.0,0.0,0.0,0.0,0.0,0.0,0.0,0.0,0.402072638273,-9.7478094101,0.843371868134,0.0,0.0,0.0,0.0,0.0,0.0,0.0,0.0,0.0
1434059000,188326,1644542429172332525,1,0.0,0.0,0.0,0.0,0.0,0.0,0.0,0.0,0.0,0.0,0.0,0.0,0.0,0.0,0.0,0.0,0.0,0.0,0.0,0.0,0.0,0.0,0.0,0.0,0.0,0.637432217598,-9.64974308014,0.774725317955,0.0,0.0,0.0,0.0,0.0,0.0,0.0,0.0,0.0
1436319200,188327,1644542429174346447,1,0.0,0.0,0.0,0.0,0.0,0.0,0.0,0.0,0.0,0.0,0.0,0.0,0.0,0.0,0.0,0.0,0.0,0.0,0.0,0.0,0.0,0.0,0.0,0.0,0.0,0.343232750893,-9.64974308014,0.421685934067,0.0,0.0,0.0,0.0,0.0,0.0,0.0,0.0,0.0
1438192400,188328,1644542429176360607,1,0.0,0.0,0.0,0.0,0.0,0.0,0.0,0.0,0.0,0.0,0.0,0.0,0.0,0.0,0.0,0.0,0.0,0.0,0.0,0.0,0.0,0.0,0.0,0.0,0.0,0.402072638273,-9.61051654816,0.509945809841,0.0,0.0,0.0,0.0,0.0,0.0,0.0,0.0,0.0
1440192900,188329,1644542429178376436,1,0.0,0.0,0.0,0.0,0.0,0.0,0.0,0.0,0.0,0.0,0.0,0.0,0.0,0.0,0.0,0.0,0.0,0.0,0.0,0.0,0.0,0.0,0.0,0.0,0.0,0.343232750893,-9.56148338318,0.196132987738,0.0,0.0,0.0,0.0,0.0,0.0,0.0,0.0,0.0
1442036300,188330,1644542429180390358,1,0.0,0.0,0.0,0.0,0.0,0.0,0.0,0.0,0.0,0.0,0.0,0.0,0.0,0.0,0.0,0.0,0.0,0.0,0.0,0.0,0.0,0.0,0.0,0.0,0.0,0.637432217598,-9.66935634613,0.0294199492782,0.0,0.0,0.0,0.0,0.0,0.0,0.0,0.0,0.0
1444167900,188331,1644542429182404280,1,0.0,0.0,0.0,0.0,0.0,0.0,0.0,0.0,0.0,0.0,0.0,0.0,0.0,0.0,0.0,0.0,0.0,0.0,0.0,0.0,0.0,0.0,0.0,0.0,0.0,0.696272134781,-9.70858287811,0.264779537916,0.0,0.0,0.0,0.0,0.0,0.0,0.0,0.0,0.0
1446050200,188332,1644542429184418201,1,0.0,0.0,0.0,0.0,0.0,0.0,0.0,0.0,0.0,0.0,0.0,0.0,0.0,0.0,0.0,0.0,0.0,0.0,0.0,0.0,0.0,0.0,0.0,0.0,0.0,0.490332484245,-9.53206348419,-0.12748645246,0.0,0.0,0.0,0.0,0.0,0.0,0.0,0.0,0.0
1448066600,188333,1644542429186434269,1,0.0,0.0,0.0,0.0,0.0,0.0,0.0,0.0,0.0,0.0,0.0,0.0,0.0,0.0,0.0,0.0,0.0,0.0,0.0,0.0,0.0,0.0,0.0,0.0,0.0,0.402072638273,-9.71838951111,0.274586200714,0.0,0.0,0.0,0.0,0.0,0.0,0.0,0.0,0.0
1450157800,188334,1644542429188446045,1,0.0,0.0,0.0,0.0,0.0,0.0,0.0,0.0,0.0,0.0,0.0,0.0,0.0,0.0,0.0,0.0,0.0,0.0,0.0,0.0,0.0,0.0,0.0,0.0,0.0,0.362846046686,-9.62032318115,-0.0294199492782,0.0,0.0,0.0,0.0,0.0,0.0,0.0,0.0,0.0
1452300400,188335,1644542429190462112,1,0.0,0.0,0.0,0.0,0.0,0.0,0.0,0.0,0.0,0.0,0.0,0.0,0.0,0.0,0.0,0.0,0.0,0.0,0.0,0.0,0.0,0.0,0.0,0.0,0.0,0.362846046686,-9.5222568512,0.0,0.0,0.0,0.0,0.0,0.0,0.0,0.0,0.0,0.0
1454174600,188336,1644542429192476034,1,0.0,0.0,0.0,0.0,0.0,0.0,0.0,0.0,0.0,0.0,0.0,0.0,0.0,0.0,0.0,0.0,0.0,0.0,0.0,0.0,0.0,0.0,0.0,0.0,0.0,0.294199496508,-9.70858287811,0.196132987738,0.0,0.0,0.0,0.0,0.0,0.0,0.0,0.0,0.0
1456628800,188337,1644542429194489956,1,0.0,0.0,0.0,0.0,0.0,0.0,0.0,0.0,0.0,0.0,0.0,0.0,0.0,0.0,0.0,0.0,0.0,0.0,0.0,0.0,0.0,0.0,0.0,0.0,0.0,0.362846046686,-9.57129001617,0.0,0.0,0.0,0.0,0.0,0.0,0.0,0.0,0.0,0.0
1458393800,188338,1644542429196505785,1,0.0,0.0,0.0,0.0,0.0,0.0,0.0,0.0,0.0,0.0,0.0,0.0,0.0,0.0,0.0,0.0,0.0,0.0,0.0,0.0,0.0,0.0,0.0,0.0,0.0,0.421685934067,-9.57129001617,0.0784531980753,0.0,0.0,0.0,0.0,0.0,0.0,0.0,0.0,0.0
1460453500,188339,1644542429198519707,1,0.0,0.0,0.0,0.0,0.0,0.0,0.0,0.0,0.0,0.0,0.0,0.0,0.0,0.0,0.0,0.0,0.0,0.0,0.0,0.0,0.0,0.0,0.0,0.0,0.0,0.509945809841,-9.66935634613,0.0784531980753,0.0,0.0,0.0,0.0,0.0,0.0,0.0,0.0,0.0
1462436100,188340,1644542429200531721,1,0.0,0.0,0.0,0.0,0.0,0.0,0.0,0.0,0.0,0.0,0.0,0.0,0.0,0.0,0.0,0.0,0.0,0.0,0.0,0.0,0.0,0.0,0.0,0.0,0.0,0.470719188452,-9.62032318115,-0.12748645246,0.0,0.0,0.0,0.0,0.0,0.0,0.0,0.0,0.0
1464413300,188341,1644542429202547789,1,0.0,0.0,0.0,0.0,0.0,0.0,0.0,0.0,0.0,0.0,0.0,0.0,0.0,0.0,0.0,0.0,0.0,0.0,0.0,0.0,0.0,0.0,0.0,0.0,0.0,0.470719188452,-9.64974308014,0.0392265990376,0.0,0.0,0.0,0.0,0.0,0.0,0.0,0.0,0.0
1466373500,188342,1644542429204563618,1,0.0,0.0,0.0,0.0,0.0,0.0,0.0,0.0,0.0,0.0,0.0,0.0,0.0,0.0,0.0,0.0,0.0,0.0,0.0,0.0,0.0,0.0,0.0,0.0,0.0,0.509945809841,-9.64974308014,0.196132987738,0.0,0.0,0.0,0.0,0.0,0.0,0.0,0.0,0.0
1468364500,188343,1644542429206577539,1,0.0,0.0,0.0,0.0,0.0,0.0,0.0,0.0,0.0,0.0,0.0,0.0,0.0,0.0,0.0,0.0,0.0,0.0,0.0,0.0,0.0,0.0,0.0,0.0,0.0,0.402072638273,-9.66935634613,0.137293100357,0.0,0.0,0.0,0.0,0.0,0.0,0.0,0.0,0.0
1470446700,188344,1644542429208591461,1,0.0,0.0,0.0,0.0,0.0,0.0,0.0,0.0,0.0,0.0,0.0,0.0,0.0,0.0,0.0,0.0,0.0,0.0,0.0,0.0,0.0,0.0,0.0,0.0,0.0,0.509945809841,-9.61051654816,0.196132987738,0.0,0.0,0.0,0.0,0.0,0.0,0.0,0.0,0.0
1472391300,188345,1644542429210605383,1,0.0,0.0,0.0,0.0,0.0,0.0,0.0,0.0,0.0,0.0,0.0,0.0,0.0,0.0,0.0,0.0,0.0,0.0,0.0,0.0,0.0,0.0,0.0,0.0,0.0,0.549172401428,-9.64974308014,0.264779537916,0.0,0.0,0.0,0.0,0.0,0.0,0.0,0.0,0.0
1474335300,188346,1644542429212621689,1,0.0,0.0,0.0,0.0,0.0,0.0,0.0,0.0,0.0,0.0,0.0,0.0,0.0,0.0,0.0,0.0,0.0,0.0,0.0,0.0,0.0,0.0,0.0,0.0,0.0,0.549172401428,-9.66935634613,0.225552946329,0.0,0.0,0.0,0.0,0.0,0.0,0.0,0.0,0.0
1476396400,188347,1644542429214635611,1,0.0,0.0,0.0,0.0,0.0,0.0,0.0,0.0,0.0,0.0,0.0,0.0,0.0,0.0,0.0,0.0,0.0,0.0,0.0,0.0,0.0,0.0,0.0,0.0,0.0,0.509945809841,-9.70858287811,0.274586200714,0.0,0.0,0.0,0.0,0.0,0.0,0.0,0.0,0.0
1478293800,188348,1644542429216649532,1,0.0,0.0,0.0,0.0,0.0,0.0,0.0,0.0,0.0,0.0,0.0,0.0,0.0,0.0,0.0,0.0,0.0,0.0,0.0,0.0,0.0,0.0,0.0,0.0,0.0,0.490332484245,-9.64974308014,0.274586200714,0.0,0.0,0.0,0.0,0.0,0.0,0.0,0.0,0.0
1480272100,188349,1644542429218663216,1,0.0,0.0,0.0,0.0,0.0,0.0,0.0,0.0,0.0,0.0,0.0,0.0,0.0,0.0,0.0,0.0,0.0,0.0,0.0,0.0,0.0,0.0,0.0,0.0,0.0,0.529559075832,-9.62032318115,0.343232750893,0.0,0.0,0.0,0.0,0.0,0.0,0.0,0.0,0.0
1482298300,188350,1644542429220677137,1,0.0,0.0,0.0,0.0,0.0,0.0,0.0,0.0,0.0,0.0,0.0,0.0,0.0,0.0,0.0,0.0,0.0,0.0,0.0,0.0,0.0,0.0,0.0,0.0,0.0,0.529559075832,-9.66935634613,0.294199496508,0.0,0.0,0.0,0.0,0.0,0.0,0.0,0.0,0.0
1484525800,188351,1644542429222693205,1,0.0,0.0,0.0,0.0,0.0,0.0,0.0,0.0,0.0,0.0,0.0,0.0,0.0,0.0,0.0,0.0,0.0,0.0,0.0,0.0,0.0,0.0,0.0,0.0,0.0,0.529559075832,-9.62032318115,0.274586200714,0.0,0.0,0.0,0.0,0.0,0.0,0.0,0.0,0.0
1486720600,188352,1644542429224707127,1,0.0,0.0,0.0,0.0,0.0,0.0,0.0,0.0,0.0,0.0,0.0,0.0,0.0,0.0,0.0,0.0,0.0,0.0,0.0,0.0,0.0,0.0,0.0,0.0,0.0,0.421685934067,-9.61051654816,0.402072638273,0.0,0.0,0.0,0.0,0.0,0.0,0.0,0.0,0.0
1488333800,188353,1644542429226721048,1,0.0,0.0,0.0,0.0,0.0,0.0,0.0,0.0,0.0,0.0,0.0,0.0,0.0,0.0,0.0,0.0,0.0,0.0,0.0,0.0,0.0,0.0,0.0,0.0,0.0,0.509945809841,-9.66935634613,0.402072638273,0.0,0.0,0.0,0.0,0.0,0.0,0.0,0.0,0.0
1490307700,188354,1644542429228735209,1,0.0,0.0,0.0,0.0,0.0,0.0,0.0,0.0,0.0,0.0,0.0,0.0,0.0,0.0,0.0,0.0,0.0,0.0,0.0,0.0,0.0,0.0,0.0,0.0,0.0,0.362846046686,-9.66935634613,0.490332484245,0.0,0.0,0.0,0.0,0.0,0.0,0.0,0.0,0.0
1492711100,188355,1644542429230751038,1,0.0,0.0,0.0,0.0,0.0,0.0,0.0,0.0,0.0,0.0,0.0,0.0,0.0,0.0,0.0,0.0,0.0,0.0,0.0,0.0,0.0,0.0,0.0,0.0,0.0,0.470719188452,-9.61051654816,0.402072638273,0.0,0.0,0.0,0.0,0.0,0.0,0.0,0.0,0.0
1494697200,188356,1644542429232764959,1,0.0,0.0,0.0,0.0,0.0,0.0,0.0,0.0,0.0,0.0,0.0,0.0,0.0,0.0,0.0,0.0,0.0,0.0,0.0,0.0,0.0,0.0,0.0,0.0,0.0,0.529559075832,-9.61051654816,0.313812792301,0.0,0.0,0.0,0.0,0.0,0.0,0.0,0.0,0.0
1496779800,188357,1644542429234778881,1,0.0,0.0,0.0,0.0,0.0,0.0,0.0,0.0,0.0,0.0,0.0,0.0,0.0,0.0,0.0,0.0,0.0,0.0,0.0,0.0,0.0,0.0,0.0,0.0,0.0,0.529559075832,-9.67916297913,0.362846046686,0.0,0.0,0.0,0.0,0.0,0.0,0.0,0.0,0.0
1498598800,188358,1644542429236792803,1,0.0,0.0,0.0,0.0,0.0,0.0,0.0,0.0,0.0,0.0,0.0,0.0,0.0,0.0,0.0,0.0,0.0,0.0,0.0,0.0,0.0,0.0,0.0,0.0,0.0,0.470719188452,-9.58109664917,0.313812792301,0.0,0.0,0.0,0.0,0.0,0.0,0.0,0.0,0.0
1500866400,188359,1644542429238808870,1,0.0,0.0,0.0,0.0,0.0,0.0,0.0,0.0,0.0,0.0,0.0,0.0,0.0,0.0,0.0,0.0,0.0,0.0,0.0,0.0,0.0,0.0,0.0,0.0,0.0,0.470719188452,-9.64974308014,0.245166242123,0.0,0.0,0.0,0.0,0.0,0.0,0.0,0.0,0.0
1502522000,188360,1644542429240822792,1,0.0,0.0,0.0,0.0,0.0,0.0,0.0,0.0,0.0,0.0,0.0,0.0,0.0,0.0,0.0,0.0,0.0,0.0,0.0,0.0,0.0,0.0,0.0,0.0,0.0,0.470719188452,-9.64974308014,0.313812792301,0.0,0.0,0.0,0.0,0.0,0.0,0.0,0.0,0.0
1505076500,188361,1644542429242836714,1,0.0,0.0,0.0,0.0,0.0,0.0,0.0,0.0,0.0,0.0,0.0,0.0,0.0,0.0,0.0,0.0,0.0,0.0,0.0,0.0,0.0,0.0,0.0,0.0,0.0,0.402072638273,-9.62032318115,0.264779537916,0.0,0.0,0.0,0.0,0.0,0.0,0.0,0.0,0.0
1507139900,188362,1644542429244850636,1,0.0,0.0,0.0,0.0,0.0,0.0,0.0,0.0,0.0,0.0,0.0,0.0,0.0,0.0,0.0,0.0,0.0,0.0,0.0,0.0,0.0,0.0,0.0,0.0,0.0,0.38245934248,-9.66935634613,0.264779537916,0.0,0.0,0.0,0.0,0.0,0.0,0.0,0.0,0.0
1509058400,188363,1644542429246864557,1,0.0,0.0,0.0,0.0,0.0,0.0,0.0,0.0,0.0,0.0,0.0,0.0,0.0,0.0,0.0,0.0,0.0,0.0,0.0,0.0,0.0,0.0,0.0,0.0,0.0,0.402072638273,-9.62032318115,0.245166242123,0.0,0.0,0.0,0.0,0.0,0.0,0.0,0.0,0.0
1510612300,188364,1644542429248880386,1,0.0,0.0,0.0,0.0,0.0,0.0,0.0,0.0,0.0,0.0,0.0,0.0,0.0,0.0,0.0,0.0,0.0,0.0,0.0,0.0,0.0,0.0,0.0,0.0,0.0,0.402072638273,-9.62032318115,0.176519691944,0.0,0.0,0.0,0.0,0.0,0.0,0.0,0.0,0.0
1512506900,188365,1644542429250894308,1,0.0,0.0,0.0,0.0,0.0,0.0,0.0,0.0,0.0,0.0,0.0,0.0,0.0,0.0,0.0,0.0,0.0,0.0,0.0,0.0,0.0,0.0,0.0,0.0,0.0,0.402072638273,-9.67916297913,0.264779537916,0.0,0.0,0.0,0.0,0.0,0.0,0.0,0.0,0.0
1514575600,188366,1644542429252908468,1,0.0,0.0,0.0,0.0,0.0,0.0,0.0,0.0,0.0,0.0,0.0,0.0,0.0,0.0,0.0,0.0,0.0,0.0,0.0,0.0,0.0,0.0,0.0,0.0,0.0,0.343232750893,-9.61051654816,0.245166242123,0.0,0.0,0.0,0.0,0.0,0.0,0.0,0.0,0.0
1517112400,188367,1644542429254924297,1,0.0,0.0,0.0,0.0,0.0,0.0,0.0,0.0,0.0,0.0,0.0,0.0,0.0,0.0,0.0,0.0,0.0,0.0,0.0,0.0,0.0,0.0,0.0,0.0,0.0,0.343232750893,-9.61051654816,0.274586200714,0.0,0.0,0.0,0.0,0.0,0.0,0.0,0.0,0.0
1518590200,188368,1644542429256938219,1,0.0,0.0,0.0,0.0,0.0,0.0,0.0,0.0,0.0,0.0,0.0,0.0,0.0,0.0,0.0,0.0,0.0,0.0,0.0,0.0,0.0,0.0,0.0,0.0,0.0,0.294199496508,-9.70858287811,0.264779537916,0.0,0.0,0.0,0.0,0.0,0.0,0.0,0.0,0.0
1520521500,188369,1644542429258952141,1,0.0,0.0,0.0,0.0,0.0,0.0,0.0,0.0,0.0,0.0,0.0,0.0,0.0,0.0,0.0,0.0,0.0,0.0,0.0,0.0,0.0,0.0,0.0,0.0,0.0,0.264779537916,-9.61051654816,0.137293100357,0.0,0.0,0.0,0.0,0.0,0.0,0.0,0.0,0.0
1522668300,188370,1644542429260966063,1,0.0,0.0,0.0,0.0,0.0,0.0,0.0,0.0,0.0,0.0,0.0,0.0,0.0,0.0,0.0,0.0,0.0,0.0,0.0,0.0,0.0,0.0,0.0,0.0,0.0,0.264779537916,-9.62032318115,0.274586200714,0.0,0.0,0.0,0.0,0.0,0.0,0.0,0.0,0.0
1524697400,188371,1644542429262982130,1,0.0,0.0,0.0,0.0,0.0,0.0,0.0,0.0,0.0,0.0,0.0,0.0,0.0,0.0,0.0,0.0,0.0,0.0,0.0,0.0,0.0,0.0,0.0,0.0,0.0,0.362846046686,-9.58109664917,0.245166242123,0.0,0.0,0.0,0.0,0.0,0.0,0.0,0.0,0.0
1526899600,188372,1644542429264996052,1,0.0,0.0,0.0,0.0,0.0,0.0,0.0,0.0,0.0,0.0,0.0,0.0,0.0,0.0,0.0,0.0,0.0,0.0,0.0,0.0,0.0,0.0,0.0,0.0,0.0,0.38245934248,-9.62032318115,0.0980664938688,0.0,0.0,0.0,0.0,0.0,0.0,0.0,0.0,0.0
1528833600,188373,1644542429267009974,1,0.0,0.0,0.0,0.0,0.0,0.0,0.0,0.0,0.0,0.0,0.0,0.0,0.0,0.0,0.0,0.0,0.0,0.0,0.0,0.0,0.0,0.0,0.0,0.0,0.0,0.313812792301,-9.67916297913,0.402072638273,0.0,0.0,0.0,0.0,0.0,0.0,0.0,0.0,0.0
1530954700,188374,1644542429269023895,1,0.0,0.0,0.0,0.0,0.0,0.0,0.0,0.0,0.0,0.0,0.0,0.0,0.0,0.0,0.0,0.0,0.0,0.0,0.0,0.0,0.0,0.0,0.0,0.0,0.0,0.274586200714,-9.62032318115,0.166713044047,0.0,0.0,0.0,0.0,0.0,0.0,0.0,0.0,0.0
1532940800,188375,1644542429271037817,1,0.0,0.0,0.0,0.0,0.0,0.0,0.0,0.0,0.0,0.0,0.0,0.0,0.0,0.0,0.0,0.0,0.0,0.0,0.0,0.0,0.0,0.0,0.0,0.0,0.0,0.343232750893,-9.70858287811,0.166713044047,0.0,0.0,0.0,0.0,0.0,0.0,0.0,0.0,0.0
1534943300,188376,1644542429273053646,1,0.0,0.0,0.0,0.0,0.0,0.0,0.0,0.0,0.0,0.0,0.0,0.0,0.0,0.0,0.0,0.0,0.0,0.0,0.0,0.0,0.0,0.0,0.0,0.0,0.0,0.245166242123,-9.58109664917,0.245166242123,0.0,0.0,0.0,0.0,0.0,0.0,0.0,0.0,0.0
1537234100,188377,1644542429275065660,1,0.0,0.0,0.0,0.0,0.0,0.0,0.0,0.0,0.0,0.0,0.0,0.0,0.0,0.0,0.0,0.0,0.0,0.0,0.0,0.0,0.0,0.0,0.0,0.0,0.0,0.313812792301,-9.61051654816,0.00980664975941,0.0,0.0,0.0,0.0,0.0,0.0,0.0,0.0,0.0
1539283600,188378,1644542429277081728,1,0.0,0.0,0.0,0.0,0.0,0.0,0.0,0.0,0.0,0.0,0.0,0.0,0.0,0.0,0.0,0.0,0.0,0.0,0.0,0.0,0.0,0.0,0.0,0.0,0.0,0.38245934248,-9.70858287811,0.0294199492782,0.0,0.0,0.0,0.0,0.0,0.0,0.0,0.0,0.0
1540919600,188379,1644542429279095650,1,0.0,0.0,0.0,0.0,0.0,0.0,0.0,0.0,0.0,0.0,0.0,0.0,0.0,0.0,0.0,0.0,0.0,0.0,0.0,0.0,0.0,0.0,0.0,0.0,0.0,0.274586200714,-9.53206348419,0.0980664938688,0.0,0.0,0.0,0.0,0.0,0.0,0.0,0.0,0.0
1542849000,188380,1644542429281109571,1,0.0,0.0,0.0,0.0,0.0,0.0,0.0,0.0,0.0,0.0,0.0,0.0,0.0,0.0,0.0,0.0,0.0,0.0,0.0,0.0,0.0,0.0,0.0,0.0,0.0,0.274586200714,-9.58109664917,-0.00980664975941,0.0,0.0,0.0,0.0,0.0,0.0,0.0,0.0,0.0
1544939600,188381,1644542429283123493,1,0.0,0.0,0.0,0.0,0.0,0.0,0.0,0.0,0.0,0.0,0.0,0.0,0.0,0.0,0.0,0.0,0.0,0.0,0.0,0.0,0.0,0.0,0.0,0.0,0.0,0.343232750893,-9.62032318115,0.0392265990376,0.0,0.0,0.0,0.0,0.0,0.0,0.0,0.0,0.0
1546901400,188382,1644542429285139322,1,0.0,0.0,0.0,0.0,0.0,0.0,0.0,0.0,0.0,0.0,0.0,0.0,0.0,0.0,0.0,0.0,0.0,0.0,0.0,0.0,0.0,0.0,0.0,0.0,0.0,0.264779537916,-9.57129001617,0.225552946329,0.0,0.0,0.0,0.0,0.0,0.0,0.0,0.0,0.0
1548834800,188383,1644542429287153244,1,0.0,0.0,0.0,0.0,0.0,0.0,0.0,0.0,0.0,0.0,0.0,0.0,0.0,0.0,0.0,0.0,0.0,0.0,0.0,0.0,0.0,0.0,0.0,0.0,0.0,0.264779537916,-9.67916297913,0.0980664938688,0.0,0.0,0.0,0.0,0.0,0.0,0.0,0.0,0.0
1550770900,188384,1644542429289167404,1,0.0,0.0,0.0,0.0,0.0,0.0,0.0,0.0,0.0,0.0,0.0,0.0,0.0,0.0,0.0,0.0,0.0,0.0,0.0,0.0,0.0,0.0,0.0,0.0,0.0,0.245166242123,-9.64974308014,0.0294199492782,0.0,0.0,0.0,0.0,0.0,0.0,0.0,0.0,0.0
1552868900,188385,1644542429291183233,1,0.0,0.0,0.0,0.0,0.0,0.0,0.0,0.0,0.0,0.0,0.0,0.0,0.0,0.0,0.0,0.0,0.0,0.0,0.0,0.0,0.0,0.0,0.0,0.0,0.0,0.264779537916,-9.57129001617,0.225552946329,0.0,0.0,0.0,0.0,0.0,0.0,0.0,0.0,0.0
1554915400,188386,1644542429293197155,1,0.0,0.0,0.0,0.0,0.0,0.0,0.0,0.0,0.0,0.0,0.0,0.0,0.0,0.0,0.0,0.0,0.0,0.0,0.0,0.0,0.0,0.0,0.0,0.0,0.0,0.245166242123,-9.61051654816,0.0784531980753,0.0,0.0,0.0,0.0,0.0,0.0,0.0,0.0,0.0
1557012600,188387,1644542429295211077,1,0.0,0.0,0.0,0.0,0.0,0.0,0.0,0.0,0.0,0.0,0.0,0.0,0.0,0.0,0.0,0.0,0.0,0.0,0.0,0.0,0.0,0.0,0.0,0.0,0.0,0.176519691944,-9.58109664917,0.166713044047,0.0,0.0,0.0,0.0,0.0,0.0,0.0,0.0,0.0
1559031800,188388,1644542429297227144,1,0.0,0.0,0.0,0.0,0.0,0.0,0.0,0.0,0.0,0.0,0.0,0.0,0.0,0.0,0.0,0.0,0.0,0.0,0.0,0.0,0.0,0.0,0.0,0.0,0.0,0.196132987738,-9.58109664917,0.264779537916,0.0,0.0,0.0,0.0,0.0,0.0,0.0,0.0,0.0
1561040600,188389,1644542429299241066,1,0.0,0.0,0.0,0.0,0.0,0.0,0.0,0.0,0.0,0.0,0.0,0.0,0.0,0.0,0.0,0.0,0.0,0.0,0.0,0.0,0.0,0.0,0.0,0.0,0.0,0.245166242123,-9.61051654816,0.225552946329,0.0,0.0,0.0,0.0,0.0,0.0,0.0,0.0,0.0
1563104800,188390,1644542429301255226,1,0.0,0.0,0.0,0.0,0.0,0.0,0.0,0.0,0.0,0.0,0.0,0.0,0.0,0.0,0.0,0.0,0.0,0.0,0.0,0.0,0.0,0.0,0.0,0.0,0.0,0.225552946329,-9.66935634613,0.274586200714,0.0,0.0,0.0,0.0,0.0,0.0,0.0,0.0,0.0
1565197300,188391,1644542429303269148,1,0.0,0.0,0.0,0.0,0.0,0.0,0.0,0.0,0.0,0.0,0.0,0.0,0.0,0.0,0.0,0.0,0.0,0.0,0.0,0.0,0.0,0.0,0.0,0.0,0.0,0.245166242123,-9.58109664917,0.294199496508,0.0,0.0,0.0,0.0,0.0,0.0,0.0,0.0,0.0
1567056900,188392,1644542429305284977,1,0.0,0.0,0.0,0.0,0.0,0.0,0.0,0.0,0.0,0.0,0.0,0.0,0.0,0.0,0.0,0.0,0.0,0.0,0.0,0.0,0.0,0.0,0.0,0.0,0.0,0.245166242123,-9.62032318115,0.343232750893,0.0,0.0,0.0,0.0,0.0,0.0,0.0,0.0,0.0
1569063800,188393,1644542429307298899,1,0.0,0.0,0.0,0.0,0.0,0.0,0.0,0.0,0.0,0.0,0.0,0.0,0.0,0.0,0.0,0.0,0.0,0.0,0.0,0.0,0.0,0.0,0.0,0.0,0.0,0.264779537916,-9.62032318115,0.38245934248,0.0,0.0,0.0,0.0,0.0,0.0,0.0,0.0,0.0
1571069800,188394,1644542429309312820,1,0.0,0.0,0.0,0.0,0.0,0.0,0.0,0.0,0.0,0.0,0.0,0.0,0.0,0.0,0.0,0.0,0.0,0.0,0.0,0.0,0.0,0.0,0.0,0.0,0.0,0.264779537916,-9.64974308014,0.343232750893,0.0,0.0,0.0,0.0,0.0,0.0,0.0,0.0,0.0
1573175500,188395,1644542429311326742,1,0.0,0.0,0.0,0.0,0.0,0.0,0.0,0.0,0.0,0.0,0.0,0.0,0.0,0.0,0.0,0.0,0.0,0.0,0.0,0.0,0.0,0.0,0.0,0.0,0.0,0.343232750893,-9.61051654816,0.343232750893,0.0,0.0,0.0,0.0,0.0,0.0,0.0,0.0,0.0
1575060000,188396,1644542429313342810,1,0.0,0.0,0.0,0.0,0.0,0.0,0.0,0.0,0.0,0.0,0.0,0.0,0.0,0.0,0.0,0.0,0.0,0.0,0.0,0.0,0.0,0.0,0.0,0.0,0.0,0.294199496508,-9.57129001617,0.245166242123,0.0,0.0,0.0,0.0,0.0,0.0,0.0,0.0,0.0
1577100900,188397,1644542429315356731,1,0.0,0.0,0.0,0.0,0.0,0.0,0.0,0.0,0.0,0.0,0.0,0.0,0.0,0.0,0.0,0.0,0.0,0.0,0.0,0.0,0.0,0.0,0.0,0.0,0.0,0.294199496508,-9.58109664917,0.264779537916,0.0,0.0,0.0,0.0,0.0,0.0,0.0,0.0,0.0
1579092400,188398,1644542429317370653,1,0.0,0.0,0.0,0.0,0.0,0.0,0.0,0.0,0.0,0.0,0.0,0.0,0.0,0.0,0.0,0.0,0.0,0.0,0.0,0.0,0.0,0.0,0.0,0.0,0.0,0.313812792301,-9.61051654816,0.196132987738,0.0,0.0,0.0,0.0,0.0,0.0,0.0,0.0,0.0
1581191500,188399,1644542429319384575,1,0.0,0.0,0.0,0.0,0.0,0.0,0.0,0.0,0.0,0.0,0.0,0.0,0.0,0.0,0.0,0.0,0.0,0.0,0.0,0.0,0.0,0.0,0.0,0.0,0.0,0.294199496508,-9.62032318115,0.274586200714,0.0,0.0,0.0,0.0,0.0,0.0,0.0,0.0,0.0
1583032500,188400,1644542429321400404,1,0.0,0.0,0.0,0.0,0.0,0.0,0.0,0.0,0.0,0.0,0.0,0.0,0.0,0.0,0.0,0.0,0.0,0.0,0.0,0.0,0.0,0.0,0.0,0.0,0.0,0.294199496508,-9.64974308014,0.176519691944,0.0,0.0,0.0,0.0,0.0,0.0,0.0,0.0,0.0
1585015700,188401,1644542429323414564,1,0.0,0.0,0.0,0.0,0.0,0.0,0.0,0.0,0.0,0.0,0.0,0.0,0.0,0.0,0.0,0.0,0.0,0.0,0.0,0.0,0.0,0.0,0.0,0.0,0.0,0.343232750893,-9.61051654816,0.245166242123,0.0,0.0,0.0,0.0,0.0,0.0,0.0,0.0,0.0
1587034600,188402,1644542429325428486,1,0.0,0.0,0.0,0.0,0.0,0.0,0.0,0.0,0.0,0.0,0.0,0.0,0.0,0.0,0.0,0.0,0.0,0.0,0.0,0.0,0.0,0.0,0.0,0.0,0.0,0.38245934248,-9.58109664917,0.264779537916,0.0,0.0,0.0,0.0,0.0,0.0,0.0,0.0,0.0
1589067100,188403,1644542429327444315,1,0.0,0.0,0.0,0.0,0.0,0.0,0.0,0.0,0.0,0.0,0.0,0.0,0.0,0.0,0.0,0.0,0.0,0.0,0.0,0.0,0.0,0.0,0.0,0.0,0.0,0.402072638273,-9.66935634613,0.264779537916,0.0,0.0,0.0,0.0,0.0,0.0,0.0,0.0,0.0
1591101700,188404,1644542429329458237,1,0.0,0.0,0.0,0.0,0.0,0.0,0.0,0.0,0.0,0.0,0.0,0.0,0.0,0.0,0.0,0.0,0.0,0.0,0.0,0.0,0.0,0.0,0.0,0.0,0.0,0.38245934248,-9.67916297913,0.245166242123,0.0,0.0,0.0,0.0,0.0,0.0,0.0,0.0,0.0
1593049800,188405,1644542429331472158,1,0.0,0.0,0.0,0.0,0.0,0.0,0.0,0.0,0.0,0.0,0.0,0.0,0.0,0.0,0.0,0.0,0.0,0.0,0.0,0.0,0.0,0.0,0.0,0.0,0.0,0.38245934248,-9.61051654816,0.274586200714,0.0,0.0,0.0,0.0,0.0,0.0,0.0,0.0,0.0
1595182300,188406,1644542429333488226,1,0.0,0.0,0.0,0.0,0.0,0.0,0.0,0.0,0.0,0.0,0.0,0.0,0.0,0.0,0.0,0.0,0.0,0.0,0.0,0.0,0.0,0.0,0.0,0.0,0.0,0.402072638273,-9.64974308014,0.245166242123,0.0,0.0,0.0,0.0,0.0,0.0,0.0,0.0,0.0
1597313300,188407,1644542429335502148,1,0.0,0.0,0.0,0.0,0.0,0.0,0.0,0.0,0.0,0.0,0.0,0.0,0.0,0.0,0.0,0.0,0.0,0.0,0.0,0.0,0.0,0.0,0.0,0.0,0.0,0.451105892658,-9.67916297913,0.137293100357,0.0,0.0,0.0,0.0,0.0,0.0,0.0,0.0,0.0
1599424600,188408,1644542429337517977,1,0.0,0.0,0.0,0.0,0.0,0.0,0.0,0.0,0.0,0.0,0.0,0.0,0.0,0.0,0.0,0.0,0.0,0.0,0.0,0.0,0.0,0.0,0.0,0.0,0.0,0.402072638273,-9.66935634613,0.225552946329,0.0,0.0,0.0,0.0,0.0,0.0,0.0,0.0,0.0
1601418800,188409,1644542429339531898,1,0.0,0.0,0.0,0.0,0.0,0.0,0.0,0.0,0.0,0.0,0.0,0.0,0.0,0.0,0.0,0.0,0.0,0.0,0.0,0.0,0.0,0.0,0.0,0.0,0.0,0.402072638273,-9.62032318115,0.245166242123,0.0,0.0,0.0,0.0,0.0,0.0,0.0,0.0,0.0
1603425400,188410,1644542429341545820,1,0.0,0.0,0.0,0.0,0.0,0.0,0.0,0.0,0.0,0.0,0.0,0.0,0.0,0.0,0.0,0.0,0.0,0.0,0.0,0.0,0.0,0.0,0.0,0.0,0.0,0.421685934067,-9.66935634613,0.166713044047,0.0,0.0,0.0,0.0,0.0,0.0,0.0,0.0,0.0
1605488200,188411,1644542429343562126,1,0.0,0.0,0.0,0.0,0.0,0.0,0.0,0.0,0.0,0.0,0.0,0.0,0.0,0.0,0.0,0.0,0.0,0.0,0.0,0.0,0.0,0.0,0.0,0.0,0.0,0.362846046686,-9.64974308014,0.196132987738,0.0,0.0,0.0,0.0,0.0,0.0,0.0,0.0,0.0
1607330500,188412,1644542429345575809,1,0.0,0.0,0.0,0.0,0.0,0.0,0.0,0.0,0.0,0.0,0.0,0.0,0.0,0.0,0.0,0.0,0.0,0.0,0.0,0.0,0.0,0.0,0.0,0.0,0.0,0.38245934248,-9.64974308014,0.225552946329,0.0,0.0,0.0,0.0,0.0,0.0,0.0,0.0,0.0
1609279600,188413,1644542429347589731,1,0.0,0.0,0.0,0.0,0.0,0.0,0.0,0.0,0.0,0.0,0.0,0.0,0.0,0.0,0.0,0.0,0.0,0.0,0.0,0.0,0.0,0.0,0.0,0.0,0.0,0.38245934248,-9.67916297913,0.264779537916,0.0,0.0,0.0,0.0,0.0,0.0,0.0,0.0,0.0
1611515800,188414,1644542429349605799,1,0.0,0.0,0.0,0.0,0.0,0.0,0.0,0.0,0.0,0.0,0.0,0.0,0.0,0.0,0.0,0.0,0.0,0.0,0.0,0.0,0.0,0.0,0.0,0.0,0.0,0.362846046686,-9.64974308014,0.225552946329,0.0,0.0,0.0,0.0,0.0,0.0,0.0,0.0,0.0
1613450500,188415,1644542429351619720,1,0.0,0.0,0.0,0.0,0.0,0.0,0.0,0.0,0.0,0.0,0.0,0.0,0.0,0.0,0.0,0.0,0.0,0.0,0.0,0.0,0.0,0.0,0.0,0.0,0.0,0.402072638273,-9.67916297913,0.245166242123,0.0,0.0,0.0,0.0,0.0,0.0,0.0,0.0,0.0
1615413100,188416,1644542429353635788,1,0.0,0.0,0.0,0.0,0.0,0.0,0.0,0.0,0.0,0.0,0.0,0.0,0.0,0.0,0.0,0.0,0.0,0.0,0.0,0.0,0.0,0.0,0.0,0.0,0.0,0.38245934248,-9.66935634613,0.245166242123,0.0,0.0,0.0,0.0,0.0,0.0,0.0,0.0,0.0
1617319400,188417,1644542429355649710,1,0.0,0.0,0.0,0.0,0.0,0.0,0.0,0.0,0.0,0.0,0.0,0.0,0.0,0.0,0.0,0.0,0.0,0.0,0.0,0.0,0.0,0.0,0.0,0.0,0.0,0.294199496508,-9.66935634613,0.225552946329,0.0,0.0,0.0,0.0,0.0,0.0,0.0,0.0,0.0
1619418500,188418,1644542429357663631,1,0.0,0.0,0.0,0.0,0.0,0.0,0.0,0.0,0.0,0.0,0.0,0.0,0.0,0.0,0.0,0.0,0.0,0.0,0.0,0.0,0.0,0.0,0.0,0.0,0.0,0.264779537916,-9.66935634613,0.245166242123,0.0,0.0,0.0,0.0,0.0,0.0,0.0,0.0,0.0
1621324200,188419,1644542429359679461,1,0.0,0.0,0.0,0.0,0.0,0.0,0.0,0.0,0.0,0.0,0.0,0.0,0.0,0.0,0.0,0.0,0.0,0.0,0.0,0.0,0.0,0.0,0.0,0.0,0.0,0.196132987738,-9.64974308014,0.176519691944,0.0,0.0,0.0,0.0,0.0,0.0,0.0,0.0,0.0
1623397100,188420,1644542429361693382,1,0.0,0.0,0.0,0.0,0.0,0.0,0.0,0.0,0.0,0.0,0.0,0.0,0.0,0.0,0.0,0.0,0.0,0.0,0.0,0.0,0.0,0.0,0.0,0.0,0.0,0.225552946329,-9.66935634613,0.225552946329,0.0,0.0,0.0,0.0,0.0,0.0,0.0,0.0,0.0
1625298800,188421,1644542429363707542,1,0.0,0.0,0.0,0.0,0.0,0.0,0.0,0.0,0.0,0.0,0.0,0.0,0.0,0.0,0.0,0.0,0.0,0.0,0.0,0.0,0.0,0.0,0.0,0.0,0.0,0.245166242123,-9.71838951111,0.245166242123,0.0,0.0,0.0,0.0,0.0,0.0,0.0,0.0,0.0
1627329500,188422,1644542429365723372,1,0.0,0.0,0.0,0.0,0.0,0.0,0.0,0.0,0.0,0.0,0.0,0.0,0.0,0.0,0.0,0.0,0.0,0.0,0.0,0.0,0.0,0.0,0.0,0.0,0.0,0.225552946329,-9.62032318115,0.225552946329,0.0,0.0,0.0,0.0,0.0,0.0,0.0,0.0,0.0
1629323400,188423,1644542429367737293,1,0.0,0.0,0.0,0.0,0.0,0.0,0.0,0.0,0.0,0.0,0.0,0.0,0.0,0.0,0.0,0.0,0.0,0.0,0.0,0.0,0.0,0.0,0.0,0.0,0.0,0.274586200714,-9.64974308014,0.176519691944,0.0,0.0,0.0,0.0,0.0,0.0,0.0,0.0,0.0
1631263900,188424,1644542429369751215,1,0.0,0.0,0.0,0.0,0.0,0.0,0.0,0.0,0.0,0.0,0.0,0.0,0.0,0.0,0.0,0.0,0.0,0.0,0.0,0.0,0.0,0.0,0.0,0.0,0.0,0.274586200714,-9.64974308014,0.176519691944,0.0,0.0,0.0,0.0,0.0,0.0,0.0,0.0,0.0
1633698500,188425,1644542429371767044,1,0.0,0.0,0.0,0.0,0.0,0.0,0.0,0.0,0.0,0.0,0.0,0.0,0.0,0.0,0.0,0.0,0.0,0.0,0.0,0.0,0.0,0.0,0.0,0.0,0.0,0.264779537916,-9.64974308014,0.225552946329,0.0,0.0,0.0,0.0,0.0,0.0,0.0,0.0,0.0
1635635700,188426,1644542429373781204,1,0.0,0.0,0.0,0.0,0.0,0.0,0.0,0.0,0.0,0.0,0.0,0.0,0.0,0.0,0.0,0.0,0.0,0.0,0.0,0.0,0.0,0.0,0.0,0.0,0.0,0.274586200714,-9.64974308014,0.245166242123,0.0,0.0,0.0,0.0,0.0,0.0,0.0,0.0,0.0
1637593800,188427,1644542429375795126,1,0.0,0.0,0.0,0.0,0.0,0.0,0.0,0.0,0.0,0.0,0.0,0.0,0.0,0.0,0.0,0.0,0.0,0.0,0.0,0.0,0.0,0.0,0.0,0.0,0.0,0.245166242123,-9.64974308014,0.245166242123,0.0,0.0,0.0,0.0,0.0,0.0,0.0,0.0,0.0
1639547000,188428,1644542429377810955,1,0.0,0.0,0.0,0.0,0.0,0.0,0.0,0.0,0.0,0.0,0.0,0.0,0.0,0.0,0.0,0.0,0.0,0.0,0.0,0.0,0.0,0.0,0.0,0.0,0.0,0.196132987738,-9.61051654816,0.264779537916,0.0,0.0,0.0,0.0,0.0,0.0,0.0,0.0,0.0
1641594800,188429,1644542429379824877,1,0.0,0.0,0.0,0.0,0.0,0.0,0.0,0.0,0.0,0.0,0.0,0.0,0.0,0.0,0.0,0.0,0.0,0.0,0.0,0.0,0.0,0.0,0.0,0.0,0.0,0.196132987738,-9.61051654816,0.274586200714,0.0,0.0,0.0,0.0,0.0,0.0,0.0,0.0,0.0
1643631700,188430,1644542429381838799,1,0.0,0.0,0.0,0.0,0.0,0.0,0.0,0.0,0.0,0.0,0.0,0.0,0.0,0.0,0.0,0.0,0.0,0.0,0.0,0.0,0.0,0.0,0.0,0.0,0.0,0.225552946329,-9.57129001617,0.362846046686,0.0,0.0,0.0,0.0,0.0,0.0,0.0,0.0,0.0
1645555000,188431,1644542429383854866,1,0.0,0.0,0.0,0.0,0.0,0.0,0.0,0.0,0.0,0.0,0.0,0.0,0.0,0.0,0.0,0.0,0.0,0.0,0.0,0.0,0.0,0.0,0.0,0.0,0.0,0.166713044047,-9.61051654816,0.274586200714,0.0,0.0,0.0,0.0,0.0,0.0,0.0,0.0,0.0
1647585700,188432,1644542429385868788,1,0.0,0.0,0.0,0.0,0.0,0.0,0.0,0.0,0.0,0.0,0.0,0.0,0.0,0.0,0.0,0.0,0.0,0.0,0.0,0.0,0.0,0.0,0.0,0.0,0.0,0.196132987738,-9.64974308014,0.313812792301,0.0,0.0,0.0,0.0,0.0,0.0,0.0,0.0,0.0
1649674900,188433,1644542429387884855,1,0.0,0.0,0.0,0.0,0.0,0.0,0.0,0.0,0.0,0.0,0.0,0.0,0.0,0.0,0.0,0.0,0.0,0.0,0.0,0.0,0.0,0.0,0.0,0.0,0.0,0.245166242123,-9.62032318115,0.274586200714,0.0,0.0,0.0,0.0,0.0,0.0,0.0,0.0,0.0
1651696500,188434,1644542429389898777,1,0.0,0.0,0.0,0.0,0.0,0.0,0.0,0.0,0.0,0.0,0.0,0.0,0.0,0.0,0.0,0.0,0.0,0.0,0.0,0.0,0.0,0.0,0.0,0.0,0.0,0.245166242123,-9.62032318115,0.294199496508,0.0,0.0,0.0,0.0,0.0,0.0,0.0,0.0,0.0
1653548000,188435,1644542429391912699,1,0.0,0.0,0.0,0.0,0.0,0.0,0.0,0.0,0.0,0.0,0.0,0.0,0.0,0.0,0.0,0.0,0.0,0.0,0.0,0.0,0.0,0.0,0.0,0.0,0.0,0.264779537916,-9.61051654816,0.274586200714,0.0,0.0,0.0,0.0,0.0,0.0,0.0,0.0,0.0
1655508900,188436,1644542429393928766,1,0.0,0.0,0.0,0.0,0.0,0.0,0.0,0.0,0.0,0.0,0.0,0.0,0.0,0.0,0.0,0.0,0.0,0.0,0.0,0.0,0.0,0.0,0.0,0.0,0.0,0.294199496508,-9.61051654816,0.274586200714,0.0,0.0,0.0,0.0,0.0,0.0,0.0,0.0,0.0
1657617500,188437,1644542429395942688,1,0.0,0.0,0.0,0.0,0.0,0.0,0.0,0.0,0.0,0.0,0.0,0.0,0.0,0.0,0.0,0.0,0.0,0.0,0.0,0.0,0.0,0.0,0.0,0.0,0.0,0.294199496508,-9.62032318115,0.274586200714,0.0,0.0,0.0,0.0,0.0,0.0,0.0,0.0,0.0
1659773200,188438,1644542429397956610,1,0.0,0.0,0.0,0.0,0.0,0.0,0.0,0.0,0.0,0.0,0.0,0.0,0.0,0.0,0.0,0.0,0.0,0.0,0.0,0.0,0.0,0.0,0.0,0.0,0.0,0.313812792301,-9.62032318115,0.264779537916,0.0,0.0,0.0,0.0,0.0,0.0,0.0,0.0,0.0
1661642900,188439,1644542429399972439,1,0.0,0.0,0.0,0.0,0.0,0.0,0.0,0.0,0.0,0.0,0.0,0.0,0.0,0.0,0.0,0.0,0.0,0.0,0.0,0.0,0.0,0.0,0.0,0.0,0.0,0.294199496508,-9.57129001617,0.294199496508,0.0,0.0,0.0,0.0,0.0,0.0,0.0,0.0,0.0
1663521800,188440,1644542429401986361,1,0.0,0.0,0.0,0.0,0.0,0.0,0.0,0.0,0.0,0.0,0.0,0.0,0.0,0.0,0.0,0.0,0.0,0.0,0.0,0.0,0.0,0.0,0.0,0.0,0.0,0.274586200714,-9.62032318115,0.274586200714,0.0,0.0,0.0,0.0,0.0,0.0,0.0,0.0,0.0
1665541500,188441,1644542429404002428,1,0.0,0.0,0.0,0.0,0.0,0.0,0.0,0.0,0.0,0.0,0.0,0.0,0.0,0.0,0.0,0.0,0.0,0.0,0.0,0.0,0.0,0.0,0.0,0.0,0.0,0.274586200714,-9.57129001617,0.196132987738,0.0,0.0,0.0,0.0,0.0,0.0,0.0,0.0,0.0
1667897900,188442,1644542429406016350,1,0.0,0.0,0.0,0.0,0.0,0.0,0.0,0.0,0.0,0.0,0.0,0.0,0.0,0.0,0.0,0.0,0.0,0.0,0.0,0.0,0.0,0.0,0.0,0.0,0.0,0.294199496508,-9.67916297913,0.264779537916,0.0,0.0,0.0,0.0,0.0,0.0,0.0,0.0,0.0
1669876600,188443,1644542429408030272,1,0.0,0.0,0.0,0.0,0.0,0.0,0.0,0.0,0.0,0.0,0.0,0.0,0.0,0.0,0.0,0.0,0.0,0.0,0.0,0.0,0.0,0.0,0.0,0.0,0.0,0.274586200714,-9.61051654816,0.294199496508,0.0,0.0,0.0,0.0,0.0,0.0,0.0,0.0,0.0
1671830500,188444,1644542429410046101,1,0.0,0.0,0.0,0.0,0.0,0.0,0.0,0.0,0.0,0.0,0.0,0.0,0.0,0.0,0.0,0.0,0.0,0.0,0.0,0.0,0.0,0.0,0.0,0.0,0.0,0.274586200714,-9.58109664917,0.245166242123,0.0,0.0,0.0,0.0,0.0,0.0,0.0,0.0,0.0
1673933100,188445,1644542429412060261,1,0.0,0.0,0.0,0.0,0.0,0.0,0.0,0.0,0.0,0.0,0.0,0.0,0.0,0.0,0.0,0.0,0.0,0.0,0.0,0.0,0.0,0.0,0.0,0.0,0.0,0.274586200714,-9.64974308014,0.225552946329,0.0,0.0,0.0,0.0,0.0,0.0,0.0,0.0,0.0
1675980000,188446,1644542429414076090,1,0.0,0.0,0.0,0.0,0.0,0.0,0.0,0.0,0.0,0.0,0.0,0.0,0.0,0.0,0.0,0.0,0.0,0.0,0.0,0.0,0.0,0.0,0.0,0.0,0.0,0.313812792301,-9.61051654816,0.196132987738,0.0,0.0,0.0,0.0,0.0,0.0,0.0,0.0,0.0
1677805800,188447,1644542429416090012,1,0.0,0.0,0.0,0.0,0.0,0.0,0.0,0.0,0.0,0.0,0.0,0.0,0.0,0.0,0.0,0.0,0.0,0.0,0.0,0.0,0.0,0.0,0.0,0.0,0.0,0.313812792301,-9.64974308014,0.176519691944,0.0,0.0,0.0,0.0,0.0,0.0,0.0,0.0,0.0
1680320100,188448,1644542429418103933,1,0.0,0.0,0.0,0.0,0.0,0.0,0.0,0.0,0.0,0.0,0.0,0.0,0.0,0.0,0.0,0.0,0.0,0.0,0.0,0.0,0.0,0.0,0.0,0.0,0.0,0.362846046686,-9.62032318115,0.264779537916,0.0,0.0,0.0,0.0,0.0,0.0,0.0,0.0,0.0
1681940200,188449,1644542429420119762,1,0.0,0.0,0.0,0.0,0.0,0.0,0.0,0.0,0.0,0.0,0.0,0.0,0.0,0.0,0.0,0.0,0.0,0.0,0.0,0.0,0.0,0.0,0.0,0.0,0.0,0.362846046686,-9.62032318115,0.196132987738,0.0,0.0,0.0,0.0,0.0,0.0,0.0,0.0,0.0
1683917500,188450,1644542429422133923,1,0.0,0.0,0.0,0.0,0.0,0.0,0.0,0.0,0.0,0.0,0.0,0.0,0.0,0.0,0.0,0.0,0.0,0.0,0.0,0.0,0.0,0.0,0.0,0.0,0.0,0.402072638273,-9.61051654816,0.196132987738,0.0,0.0,0.0,0.0,0.0,0.0,0.0,0.0,0.0
1685802300,188451,1644542429424149990,1,0.0,0.0,0.0,0.0,0.0,0.0,0.0,0.0,0.0,0.0,0.0,0.0,0.0,0.0,0.0,0.0,0.0,0.0,0.0,0.0,0.0,0.0,0.0,0.0,0.0,0.421685934067,-9.64974308014,0.196132987738,0.0,0.0,0.0,0.0,0.0,0.0,0.0,0.0,0.0
1687817200,188452,1644542429426163912,1,0.0,0.0,0.0,0.0,0.0,0.0,0.0,0.0,0.0,0.0,0.0,0.0,0.0,0.0,0.0,0.0,0.0,0.0,0.0,0.0,0.0,0.0,0.0,0.0,0.0,0.421685934067,-9.66935634613,0.176519691944,0.0,0.0,0.0,0.0,0.0,0.0,0.0,0.0,0.0
1689806500,188453,1644542429428177834,1,0.0,0.0,0.0,0.0,0.0,0.0,0.0,0.0,0.0,0.0,0.0,0.0,0.0,0.0,0.0,0.0,0.0,0.0,0.0,0.0,0.0,0.0,0.0,0.0,0.0,0.451105892658,-9.62032318115,0.166713044047,0.0,0.0,0.0,0.0,0.0,0.0,0.0,0.0,0.0
1692139400,188454,1644542429430193901,1,0.0,0.0,0.0,0.0,0.0,0.0,0.0,0.0,0.0,0.0,0.0,0.0,0.0,0.0,0.0,0.0,0.0,0.0,0.0,0.0,0.0,0.0,0.0,0.0,0.0,0.421685934067,-9.66935634613,0.137293100357,0.0,0.0,0.0,0.0,0.0,0.0,0.0,0.0,0.0
1693802800,188455,1644542429432207823,1,0.0,0.0,0.0,0.0,0.0,0.0,0.0,0.0,0.0,0.0,0.0,0.0,0.0,0.0,0.0,0.0,0.0,0.0,0.0,0.0,0.0,0.0,0.0,0.0,0.0,0.402072638273,-9.67916297913,0.176519691944,0.0,0.0,0.0,0.0,0.0,0.0,0.0,0.0,0.0
1695757000,188456,1644542429434221745,1,0.0,0.0,0.0,0.0,0.0,0.0,0.0,0.0,0.0,0.0,0.0,0.0,0.0,0.0,0.0,0.0,0.0,0.0,0.0,0.0,0.0,0.0,0.0,0.0,0.0,0.402072638273,-9.64974308014,0.176519691944,0.0,0.0,0.0,0.0,0.0,0.0,0.0,0.0,0.0
1697794200,188457,1644542429436237574,1,0.0,0.0,0.0,0.0,0.0,0.0,0.0,0.0,0.0,0.0,0.0,0.0,0.0,0.0,0.0,0.0,0.0,0.0,0.0,0.0,0.0,0.0,0.0,0.0,0.0,0.402072638273,-9.64974308014,0.196132987738,0.0,0.0,0.0,0.0,0.0,0.0,0.0,0.0,0.0
1699894700,188458,1644542429438251495,1,0.0,0.0,0.0,0.0,0.0,0.0,0.0,0.0,0.0,0.0,0.0,0.0,0.0,0.0,0.0,0.0,0.0,0.0,0.0,0.0,0.0,0.0,0.0,0.0,0.0,0.451105892658,-9.64974308014,0.225552946329,0.0,0.0,0.0,0.0,0.0,0.0,0.0,0.0,0.0
1702174000,188459,1644542429440265417,1,0.0,0.0,0.0,0.0,0.0,0.0,0.0,0.0,0.0,0.0,0.0,0.0,0.0,0.0,0.0,0.0,0.0,0.0,0.0,0.0,0.0,0.0,0.0,0.0,0.0,0.421685934067,-9.61051654816,0.196132987738,0.0,0.0,0.0,0.0,0.0,0.0,0.0,0.0,0.0
1704296500,188460,1644542429442279577,1,0.0,0.0,0.0,0.0,0.0,0.0,0.0,0.0,0.0,0.0,0.0,0.0,0.0,0.0,0.0,0.0,0.0,0.0,0.0,0.0,0.0,0.0,0.0,0.0,0.0,0.421685934067,-9.64974308014,0.176519691944,0.0,0.0,0.0,0.0,0.0,0.0,0.0,0.0,0.0
1706364900,188461,1644542429444295406,1,0.0,0.0,0.0,0.0,0.0,0.0,0.0,0.0,0.0,0.0,0.0,0.0,0.0,0.0,0.0,0.0,0.0,0.0,0.0,0.0,0.0,0.0,0.0,0.0,0.0,0.451105892658,-9.66935634613,0.176519691944,0.0,0.0,0.0,0.0,0.0,0.0,0.0,0.0,0.0
1708511800,188462,1644542429446309328,1,0.0,0.0,0.0,0.0,0.0,0.0,0.0,0.0,0.0,0.0,0.0,0.0,0.0,0.0,0.0,0.0,0.0,0.0,0.0,0.0,0.0,0.0,0.0,0.0,0.0,0.421685934067,-9.64974308014,0.176519691944,0.0,0.0,0.0,0.0,0.0,0.0,0.0,0.0,0.0
1710258100,188463,1644542429448323250,1,0.0,0.0,0.0,0.0,0.0,0.0,0.0,0.0,0.0,0.0,0.0,0.0,0.0,0.0,0.0,0.0,0.0,0.0,0.0,0.0,0.0,0.0,0.0,0.0,0.0,0.451105892658,-9.66935634613,0.294199496508,0.0,0.0,0.0,0.0,0.0,0.0,0.0,0.0,0.0
1712296500,188464,1644542429450339317,1,0.0,0.0,0.0,0.0,0.0,0.0,0.0,0.0,0.0,0.0,0.0,0.0,0.0,0.0,0.0,0.0,0.0,0.0,0.0,0.0,0.0,0.0,0.0,0.0,0.0,0.421685934067,-9.67916297913,0.245166242123,0.0,0.0,0.0,0.0,0.0,0.0,0.0,0.0,0.0
1714233500,188465,1644542429452353239,1,0.0,0.0,0.0,0.0,0.0,0.0,0.0,0.0,0.0,0.0,0.0,0.0,0.0,0.0,0.0,0.0,0.0,0.0,0.0,0.0,0.0,0.0,0.0,0.0,0.0,0.421685934067,-9.64974308014,0.225552946329,0.0,0.0,0.0,0.0,0.0,0.0,0.0,0.0,0.0
1716057900,188466,1644542429454367161,1,0.0,0.0,0.0,0.0,0.0,0.0,0.0,0.0,0.0,0.0,0.0,0.0,0.0,0.0,0.0,0.0,0.0,0.0,0.0,0.0,0.0,0.0,0.0,0.0,0.0,0.402072638273,-9.66935634613,0.196132987738,0.0,0.0,0.0,0.0,0.0,0.0,0.0,0.0,0.0
1718052000,188467,1644542429456382990,1,0.0,0.0,0.0,0.0,0.0,0.0,0.0,0.0,0.0,0.0,0.0,0.0,0.0,0.0,0.0,0.0,0.0,0.0,0.0,0.0,0.0,0.0,0.0,0.0,0.0,0.402072638273,-9.67916297913,0.196132987738,0.0,0.0,0.0,0.0,0.0,0.0,0.0,0.0,0.0
1720026000,188468,1644542429458396912,1,0.0,0.0,0.0,0.0,0.0,0.0,0.0,0.0,0.0,0.0,0.0,0.0,0.0,0.0,0.0,0.0,0.0,0.0,0.0,0.0,0.0,0.0,0.0,0.0,0.0,0.38245934248,-9.70858287811,0.176519691944,0.0,0.0,0.0,0.0,0.0,0.0,0.0,0.0,0.0
1722120500,188469,1644542429460410833,1,0.0,0.0,0.0,0.0,0.0,0.0,0.0,0.0,0.0,0.0,0.0,0.0,0.0,0.0,0.0,0.0,0.0,0.0,0.0,0.0,0.0,0.0,0.0,0.0,0.0,0.313812792301,-9.64974308014,0.0980664938688,0.0,0.0,0.0,0.0,0.0,0.0,0.0,0.0,0.0
1724157300,188470,1644542429462424994,1,0.0,0.0,0.0,0.0,0.0,0.0,0.0,0.0,0.0,0.0,0.0,0.0,0.0,0.0,0.0,0.0,0.0,0.0,0.0,0.0,0.0,0.0,0.0,0.0,0.0,0.294199496508,-9.64974308014,0.137293100357,0.0,0.0,0.0,0.0,0.0,0.0,0.0,0.0,0.0
1726134400,188471,1644542429464440823,1,0.0,0.0,0.0,0.0,0.0,0.0,0.0,0.0,0.0,0.0,0.0,0.0,0.0,0.0,0.0,0.0,0.0,0.0,0.0,0.0,0.0,0.0,0.0,0.0,0.0,0.313812792301,-9.64974308014,0.176519691944,0.0,0.0,0.0,0.0,0.0,0.0,0.0,0.0,0.0
1728054800,188472,1644542429466454744,1,0.0,0.0,0.0,0.0,0.0,0.0,0.0,0.0,0.0,0.0,0.0,0.0,0.0,0.0,0.0,0.0,0.0,0.0,0.0,0.0,0.0,0.0,0.0,0.0,0.0,0.264779537916,-9.7478094101,0.627625584602,0.0,0.0,0.0,0.0,0.0,0.0,0.0,0.0,0.0
1730105800,188473,1644542429468468666,1,0.0,0.0,0.0,0.0,0.0,0.0,0.0,0.0,0.0,0.0,0.0,0.0,0.0,0.0,0.0,0.0,0.0,0.0,0.0,0.0,0.0,0.0,0.0,0.0,0.0,0.0784531980753,-9.53206348419,0.225552946329,0.0,0.0,0.0,0.0,0.0,0.0,0.0,0.0,0.0
1732428100,188474,1644542429470482588,1,0.0,0.0,0.0,0.0,0.0,0.0,0.0,0.0,0.0,0.0,0.0,0.0,0.0,0.0,0.0,0.0,0.0,0.0,0.0,0.0,0.0,0.0,0.0,0.0,0.0,0.421685934067,-9.57129001617,0.00980664975941,0.0,0.0,0.0,0.0,0.0,0.0,0.0,0.0,0.0
1734188100,188475,1644542429472498894,1,0.0,0.0,0.0,0.0,0.0,0.0,0.0,0.0,0.0,0.0,0.0,0.0,0.0,0.0,0.0,0.0,0.0,0.0,0.0,0.0,0.0,0.0,0.0,0.0,0.0,0.402072638273,-9.64974308014,0.137293100357,0.0,0.0,0.0,0.0,0.0,0.0,0.0,0.0,0.0
1736516300,188476,1644542429474512577,1,0.0,0.0,0.0,0.0,0.0,0.0,0.0,0.0,0.0,0.0,0.0,0.0,0.0,0.0,0.0,0.0,0.0,0.0,0.0,0.0,0.0,0.0,0.0,0.0,0.0,0.264779537916,-9.61051654816,0.0784531980753,0.0,0.0,0.0,0.0,0.0,0.0,0.0,0.0,0.0
1738427200,188477,1644542429476528645,1,0.0,0.0,0.0,0.0,0.0,0.0,0.0,0.0,0.0,0.0,0.0,0.0,0.0,0.0,0.0,0.0,0.0,0.0,0.0,0.0,0.0,0.0,0.0,0.0,0.0,0.176519691944,-9.66935634613,0.343232750893,0.0,0.0,0.0,0.0,0.0,0.0,0.0,0.0,0.0
1740322000,188478,1644542429478542566,1,0.0,0.0,0.0,0.0,0.0,0.0,0.0,0.0,0.0,0.0,0.0,0.0,0.0,0.0,0.0,0.0,0.0,0.0,0.0,0.0,0.0,0.0,0.0,0.0,0.0,0.245166242123,-9.64974308014,0.402072638273,0.0,0.0,0.0,0.0,0.0,0.0,0.0,0.0,0.0
1742410500,188479,1644542429480556250,1,0.0,0.0,0.0,0.0,0.0,0.0,0.0,0.0,0.0,0.0,0.0,0.0,0.0,0.0,0.0,0.0,0.0,0.0,0.0,0.0,0.0,0.0,0.0,0.0,0.0,0.313812792301,-9.66935634613,0.421685934067,0.0,0.0,0.0,0.0,0.0,0.0,0.0,0.0,0.0
1744401400,188480,1644542429482570171,1,0.0,0.0,0.0,0.0,0.0,0.0,0.0,0.0,0.0,0.0,0.0,0.0,0.0,0.0,0.0,0.0,0.0,0.0,0.0,0.0,0.0,0.0,0.0,0.0,0.0,0.362846046686,-9.58109664917,0.402072638273,0.0,0.0,0.0,0.0,0.0,0.0,0.0,0.0,0.0
1746351600,188481,1644542429484584093,1,0.0,0.0,0.0,0.0,0.0,0.0,0.0,0.0,0.0,0.0,0.0,0.0,0.0,0.0,0.0,0.0,0.0,0.0,0.0,0.0,0.0,0.0,0.0,0.0,0.0,0.294199496508,-9.67916297913,0.294199496508,0.0,0.0,0.0,0.0,0.0,0.0,0.0,0.0,0.0
1748315000,188482,1644542429486599922,1,0.0,0.0,0.0,0.0,0.0,0.0,0.0,0.0,0.0,0.0,0.0,0.0,0.0,0.0,0.0,0.0,0.0,0.0,0.0,0.0,0.0,0.0,0.0,0.0,0.0,0.225552946329,-9.66935634613,0.402072638273,0.0,0.0,0.0,0.0,0.0,0.0,0.0,0.0,0.0
1750261000,188483,1644542429488613844,1,0.0,0.0,0.0,0.0,0.0,0.0,0.0,0.0,0.0,0.0,0.0,0.0,0.0,0.0,0.0,0.0,0.0,0.0,0.0,0.0,0.0,0.0,0.0,0.0,0.0,0.196132987738,-9.64974308014,0.38245934248,0.0,0.0,0.0,0.0,0.0,0.0,0.0,0.0,0.0
1752281800,188484,1644542429490627527,1,0.0,0.0,0.0,0.0,0.0,0.0,0.0,0.0,0.0,0.0,0.0,0.0,0.0,0.0,0.0,0.0,0.0,0.0,0.0,0.0,0.0,0.0,0.0,0.0,0.0,0.245166242123,-9.62032318115,0.343232750893,0.0,0.0,0.0,0.0,0.0,0.0,0.0,0.0,0.0
1754347100,188485,1644542429492643356,1,0.0,0.0,0.0,0.0,0.0,0.0,0.0,0.0,0.0,0.0,0.0,0.0,0.0,0.0,0.0,0.0,0.0,0.0,0.0,0.0,0.0,0.0,0.0,0.0,0.0,0.274586200714,-9.64974308014,0.274586200714,0.0,0.0,0.0,0.0,0.0,0.0,0.0,0.0,0.0
1756420800,188486,1644542429494657278,1,0.0,0.0,0.0,0.0,0.0,0.0,0.0,0.0,0.0,0.0,0.0,0.0,0.0,0.0,0.0,0.0,0.0,0.0,0.0,0.0,0.0,0.0,0.0,0.0,0.0,0.245166242123,-9.66935634613,0.343232750893,0.0,0.0,0.0,0.0,0.0,0.0,0.0,0.0,0.0
1758285900,188487,1644542429496671200,1,0.0,0.0,0.0,0.0,0.0,0.0,0.0,0.0,0.0,0.0,0.0,0.0,0.0,0.0,0.0,0.0,0.0,0.0,0.0,0.0,0.0,0.0,0.0,0.0,0.0,0.264779537916,-9.62032318115,0.264779537916,0.0,0.0,0.0,0.0,0.0,0.0,0.0,0.0,0.0
1760428600,188488,1644542429498685122,1,0.0,0.0,0.0,0.0,0.0,0.0,0.0,0.0,0.0,0.0,0.0,0.0,0.0,0.0,0.0,0.0,0.0,0.0,0.0,0.0,0.0,0.0,0.0,0.0,0.0,0.274586200714,-9.66935634613,0.225552946329,0.0,0.0,0.0,0.0,0.0,0.0,0.0,0.0,0.0
1762303600,188489,1644542429500700712,1,0.0,0.0,0.0,0.0,0.0,0.0,0.0,0.0,0.0,0.0,0.0,0.0,0.0,0.0,0.0,0.0,0.0,0.0,0.0,0.0,0.0,0.0,0.0,0.0,0.0,0.274586200714,-9.62032318115,0.245166242123,0.0,0.0,0.0,0.0,0.0,0.0,0.0,0.0,0.0
1764340800,188490,1644542429502714634,1,0.0,0.0,0.0,0.0,0.0,0.0,0.0,0.0,0.0,0.0,0.0,0.0,0.0,0.0,0.0,0.0,0.0,0.0,0.0,0.0,0.0,0.0,0.0,0.0,0.0,0.264779537916,-9.61051654816,0.264779537916,0.0,0.0,0.0,0.0,0.0,0.0,0.0,0.0,0.0
1766321100,188491,1644542429504728556,1,0.0,0.0,0.0,0.0,0.0,0.0,0.0,0.0,0.0,0.0,0.0,0.0,0.0,0.0,0.0,0.0,0.0,0.0,0.0,0.0,0.0,0.0,0.0,0.0,0.0,0.264779537916,-9.64974308014,0.264779537916,0.0,0.0,0.0,0.0,0.0,0.0,0.0,0.0,0.0
1768333800,188492,1644542429506744385,1,0.0,0.0,0.0,0.0,0.0,0.0,0.0,0.0,0.0,0.0,0.0,0.0,0.0,0.0,0.0,0.0,0.0,0.0,0.0,0.0,0.0,0.0,0.0,0.0,0.0,0.245166242123,-9.66935634613,0.264779537916,0.0,0.0,0.0,0.0,0.0,0.0,0.0,0.0,0.0
1770300300,188493,1644542429508758307,1,0.0,0.0,0.0,0.0,0.0,0.0,0.0,0.0,0.0,0.0,0.0,0.0,0.0,0.0,0.0,0.0,0.0,0.0,0.0,0.0,0.0,0.0,0.0,0.0,0.0,0.294199496508,-9.64974308014,0.245166242123,0.0,0.0,0.0,0.0,0.0,0.0,0.0,0.0,0.0
1772542400,188494,1644542429510771990,1,0.0,0.0,0.0,0.0,0.0,0.0,0.0,0.0,0.0,0.0,0.0,0.0,0.0,0.0,0.0,0.0,0.0,0.0,0.0,0.0,0.0,0.0,0.0,0.0,0.0,0.294199496508,-9.66935634613,0.245166242123,0.0,0.0,0.0,0.0,0.0,0.0,0.0,0.0,0.0
1774663200,188495,1644542429512787819,1,0.0,0.0,0.0,0.0,0.0,0.0,0.0,0.0,0.0,0.0,0.0,0.0,0.0,0.0,0.0,0.0,0.0,0.0,0.0,0.0,0.0,0.0,0.0,0.0,0.0,0.245166242123,-9.62032318115,0.264779537916,0.0,0.0,0.0,0.0,0.0,0.0,0.0,0.0,0.0
1776542200,188496,1644542429514801741,1,0.0,0.0,0.0,0.0,0.0,0.0,0.0,0.0,0.0,0.0,0.0,0.0,0.0,0.0,0.0,0.0,0.0,0.0,0.0,0.0,0.0,0.0,0.0,0.0,0.0,0.294199496508,-9.62032318115,0.245166242123,0.0,0.0,0.0,0.0,0.0,0.0,0.0,0.0,0.0
1778561200,188497,1644542429516815662,1,0.0,0.0,0.0,0.0,0.0,0.0,0.0,0.0,0.0,0.0,0.0,0.0,0.0,0.0,0.0,0.0,0.0,0.0,0.0,0.0,0.0,0.0,0.0,0.0,0.0,0.274586200714,-9.61051654816,0.176519691944,0.0,0.0,0.0,0.0,0.0,0.0,0.0,0.0,0.0
1780522300,188498,1644542429518831491,1,0.0,0.0,0.0,0.0,0.0,0.0,0.0,0.0,0.0,0.0,0.0,0.0,0.0,0.0,0.0,0.0,0.0,0.0,0.0,0.0,0.0,0.0,0.0,0.0,0.0,0.294199496508,-9.61051654816,0.166713044047,0.0,0.0,0.0,0.0,0.0,0.0,0.0,0.0,0.0
1782462400,188499,1644542429520845413,1,0.0,0.0,0.0,0.0,0.0,0.0,0.0,0.0,0.0,0.0,0.0,0.0,0.0,0.0,0.0,0.0,0.0,0.0,0.0,0.0,0.0,0.0,0.0,0.0,0.0,0.264779537916,-9.64974308014,0.166713044047,0.0,0.0,0.0,0.0,0.0,0.0,0.0,0.0,0.0
1784443000,188500,1644542429522859097,1,0.0,0.0,0.0,0.0,0.0,0.0,0.0,0.0,0.0,0.0,0.0,0.0,0.0,0.0,0.0,0.0,0.0,0.0,0.0,0.0,0.0,0.0,0.0,0.0,0.0,0.274586200714,-9.64974308014,0.274586200714,0.0,0.0,0.0,0.0,0.0,0.0,0.0,0.0,0.0
1786580800,188501,1644542429524872780,1,0.0,0.0,0.0,0.0,0.0,0.0,0.0,0.0,0.0,0.0,0.0,0.0,0.0,0.0,0.0,0.0,0.0,0.0,0.0,0.0,0.0,0.0,0.0,0.0,0.0,0.264779537916,-9.62032318115,0.166713044047,0.0,0.0,0.0,0.0,0.0,0.0,0.0,0.0,0.0
1788578000,188502,1644542429526886702,1,0.0,0.0,0.0,0.0,0.0,0.0,0.0,0.0,0.0,0.0,0.0,0.0,0.0,0.0,0.0,0.0,0.0,0.0,0.0,0.0,0.0,0.0,0.0,0.0,0.0,0.245166242123,-9.64974308014,0.245166242123,0.0,0.0,0.0,0.0,0.0,0.0,0.0,0.0,0.0
1790563400,188503,1644542429528902292,1,0.0,0.0,0.0,0.0,0.0,0.0,0.0,0.0,0.0,0.0,0.0,0.0,0.0,0.0,0.0,0.0,0.0,0.0,0.0,0.0,0.0,0.0,0.0,0.0,0.0,0.313812792301,-9.64974308014,0.264779537916,0.0,0.0,0.0,0.0,0.0,0.0,0.0,0.0,0.0
1792560500,188504,1644542429530915976,1,0.0,0.0,0.0,0.0,0.0,0.0,0.0,0.0,0.0,0.0,0.0,0.0,0.0,0.0,0.0,0.0,0.0,0.0,0.0,0.0,0.0,0.0,0.0,0.0,0.0,0.313812792301,-9.62032318115,0.264779537916,0.0,0.0,0.0,0.0,0.0,0.0,0.0,0.0,0.0
1794607600,188505,1644542429532929659,1,0.0,0.0,0.0,0.0,0.0,0.0,0.0,0.0,0.0,0.0,0.0,0.0,0.0,0.0,0.0,0.0,0.0,0.0,0.0,0.0,0.0,0.0,0.0,0.0,0.0,0.294199496508,-9.62032318115,0.225552946329,0.0,0.0,0.0,0.0,0.0,0.0,0.0,0.0,0.0
1796770300,188506,1644542429534943342,1,0.0,0.0,0.0,0.0,0.0,0.0,0.0,0.0,0.0,0.0,0.0,0.0,0.0,0.0,0.0,0.0,0.0,0.0,0.0,0.0,0.0,0.0,0.0,0.0,0.0,0.294199496508,-9.62032318115,0.274586200714,0.0,0.0,0.0,0.0,0.0,0.0,0.0,0.0,0.0
1798712900,188507,1644542429536957026,1,0.0,0.0,0.0,0.0,0.0,0.0,0.0,0.0,0.0,0.0,0.0,0.0,0.0,0.0,0.0,0.0,0.0,0.0,0.0,0.0,0.0,0.0,0.0,0.0,0.0,0.274586200714,-9.64974308014,0.264779537916,0.0,0.0,0.0,0.0,0.0,0.0,0.0,0.0,0.0
1800684200,188508,1644542429538970709,1,0.0,0.0,0.0,0.0,0.0,0.0,0.0,0.0,0.0,0.0,0.0,0.0,0.0,0.0,0.0,0.0,0.0,0.0,0.0,0.0,0.0,0.0,0.0,0.0,0.0,0.294199496508,-9.62032318115,0.294199496508,0.0,0.0,0.0,0.0,0.0,0.0,0.0,0.0,0.0
1802561800,188509,1644542429540986538,1,0.0,0.0,0.0,0.0,0.0,0.0,0.0,0.0,0.0,0.0,0.0,0.0,0.0,0.0,0.0,0.0,0.0,0.0,0.0,0.0,0.0,0.0,0.0,0.0,0.0,0.294199496508,-9.61051654816,0.274586200714,0.0,0.0,0.0,0.0,0.0,0.0,0.0,0.0,0.0
1804545200,188510,1644542429543000221,1,0.0,0.0,0.0,0.0,0.0,0.0,0.0,0.0,0.0,0.0,0.0,0.0,0.0,0.0,0.0,0.0,0.0,0.0,0.0,0.0,0.0,0.0,0.0,0.0,0.0,0.274586200714,-9.61051654816,0.294199496508,0.0,0.0,0.0,0.0,0.0,0.0,0.0,0.0,0.0
1806819800,188511,1644542429545013905,1,0.0,0.0,0.0,0.0,0.0,0.0,0.0,0.0,0.0,0.0,0.0,0.0,0.0,0.0,0.0,0.0,0.0,0.0,0.0,0.0,0.0,0.0,0.0,0.0,0.0,0.313812792301,-9.64974308014,0.264779537916,0.0,0.0,0.0,0.0,0.0,0.0,0.0,0.0,0.0
1808846700,188512,1644542429547027588,1,0.0,0.0,0.0,0.0,0.0,0.0,0.0,0.0,0.0,0.0,0.0,0.0,0.0,0.0,0.0,0.0,0.0,0.0,0.0,0.0,0.0,0.0,0.0,0.0,0.0,0.343232750893,-9.62032318115,0.245166242123,0.0,0.0,0.0,0.0,0.0,0.0,0.0,0.0,0.0
1811088100,188513,1644542429549043179,1,0.0,0.0,0.0,0.0,0.0,0.0,0.0,0.0,0.0,0.0,0.0,0.0,0.0,0.0,0.0,0.0,0.0,0.0,0.0,0.0,0.0,0.0,0.0,0.0,0.0,0.38245934248,-9.62032318115,0.264779537916,0.0,0.0,0.0,0.0,0.0,0.0,0.0,0.0,0.0
1813019100,188514,1644542429551057100,1,0.0,0.0,0.0,0.0,0.0,0.0,0.0,0.0,0.0,0.0,0.0,0.0,0.0,0.0,0.0,0.0,0.0,0.0,0.0,0.0,0.0,0.0,0.0,0.0,0.0,0.38245934248,-9.66935634613,0.225552946329,0.0,0.0,0.0,0.0,0.0,0.0,0.0,0.0,0.0
1814806500,188515,1644542429553070784,1,0.0,0.0,0.0,0.0,0.0,0.0,0.0,0.0,0.0,0.0,0.0,0.0,0.0,0.0,0.0,0.0,0.0,0.0,0.0,0.0,0.0,0.0,0.0,0.0,0.0,0.362846046686,-9.66935634613,0.245166242123,0.0,0.0,0.0,0.0,0.0,0.0,0.0,0.0,0.0
