%time,field.header.seq,field.header.stamp,field.header.frame_id,field.orientation.x,field.orientation.y,field.orientation.z,field.orientation.w,field.orientation_covariance0,field.orientation_covariance1,field.orientation_covariance2,field.orientation_covariance3,field.orientation_covariance4,field.orientation_covariance5,field.orientation_covariance6,field.orientation_covariance7,field.orientation_covariance8,field.angular_velocity.x,field.angular_velocity.y,field.angular_velocity.z,field.angular_velocity_covariance0,field.angular_velocity_covariance1,field.angular_velocity_covariance2,field.angular_velocity_covariance3,field.angular_velocity_covariance4,field.angular_velocity_covariance5,field.angular_velocity_covariance6,field.angular_velocity_covariance7,field.angular_velocity_covariance8,field.linear_acceleration.x,field.linear_acceleration.y,field.linear_acceleration.z,field.linear_acceleration_covariance0,field.linear_acceleration_covariance1,field.linear_acceleration_covariance2,field.linear_acceleration_covariance3,field.linear_acceleration_covariance4,field.linear_acceleration_covariance5,field.linear_acceleration_covariance6,field.linear_acceleration_covariance7,field.linear_acceleration_covariance8
500,168092,1644542388414987803,1,0.0,0.0,0.0,0.0,0.0,0.0,0.0,0.0,0.0,0.0,0.0,0.0,0.0,0.0,0.0,0.0,0.0,0.0,0.0,0.0,0.0,0.0,0.0,0.0,0.0,0.598205626011,-9.62032318115,0.245166242123,0.0,0.0,0.0,0.0,0.0,0.0,0.0,0.0,0.0
1775900,168093,1644542388417003632,1,0.0,0.0,0.0,0.0,0.0,0.0,0.0,0.0,0.0,0.0,0.0,0.0,0.0,0.0,0.0,0.0,0.0,0.0,0.0,0.0,0.0,0.0,0.0,0.0,0.0,0.598205626011,-9.64974308014,0.225552946329,0.0,0.0,0.0,0.0,0.0,0.0,0.0,0.0,0.0
3995400,168094,1644542388419017553,1,0.0,0.0,0.0,0.0,0.0,0.0,0.0,0.0,0.0,0.0,0.0,0.0,0.0,0.0,0.0,0.0,0.0,0.0,0.0,0.0,0.0,0.0,0.0,0.0,0.0,0.57859236002,-9.64974308014,0.196132987738,0.0,0.0,0.0,0.0,0.0,0.0,0.0,0.0,0.0
6048300,168095,1644542388421031475,1,0.0,0.0,0.0,0.0,0.0,0.0,0.0,0.0,0.0,0.0,0.0,0.0,0.0,0.0,0.0,0.0,0.0,0.0,0.0,0.0,0.0,0.0,0.0,0.0,0.0,0.57859236002,-9.61051654816,0.196132987738,0.0,0.0,0.0,0.0,0.0,0.0,0.0,0.0,0.0
7999700,168096,1644542388423047304,1,0.0,0.0,0.0,0.0,0.0,0.0,0.0,0.0,0.0,0.0,0.0,0.0,0.0,0.0,0.0,0.0,0.0,0.0,0.0,0.0,0.0,0.0,0.0,0.0,0.0,0.598205626011,-9.66935634613,0.166713044047,0.0,0.0,0.0,0.0,0.0,0.0,0.0,0.0,0.0
10058900,168097,1644542388425061226,1,0.0,0.0,0.0,0.0,0.0,0.0,0.0,0.0,0.0,0.0,0.0,0.0,0.0,0.0,0.0,0.0,0.0,0.0,0.0,0.0,0.0,0.0,0.0,0.0,0.0,0.558979034424,-9.62032318115,0.245166242123,0.0,0.0,0.0,0.0,0.0,0.0,0.0,0.0,0.0
11935500,168098,1644542388427075148,1,0.0,0.0,0.0,0.0,0.0,0.0,0.0,0.0,0.0,0.0,0.0,0.0,0.0,0.0,0.0,0.0,0.0,0.0,0.0,0.0,0.0,0.0,0.0,0.0,0.0,0.509945809841,-9.56148338318,0.245166242123,0.0,0.0,0.0,0.0,0.0,0.0,0.0,0.0,0.0
13994400,168099,1644542388429091215,1,0.0,0.0,0.0,0.0,0.0,0.0,0.0,0.0,0.0,0.0,0.0,0.0,0.0,0.0,0.0,0.0,0.0,0.0,0.0,0.0,0.0,0.0,0.0,0.0,0.0,0.558979034424,-9.61051654816,0.137293100357,0.0,0.0,0.0,0.0,0.0,0.0,0.0,0.0,0.0
16011500,168100,1644542388431105137,1,0.0,0.0,0.0,0.0,0.0,0.0,0.0,0.0,0.0,0.0,0.0,0.0,0.0,0.0,0.0,0.0,0.0,0.0,0.0,0.0,0.0,0.0,0.0,0.0,0.0,0.558979034424,-9.62032318115,0.137293100357,0.0,0.0,0.0,0.0,0.0,0.0,0.0,0.0,0.0
17992200,168101,1644542388433119059,1,0.0,0.0,0.0,0.0,0.0,0.0,0.0,0.0,0.0,0.0,0.0,0.0,0.0,0.0,0.0,0.0,0.0,0.0,0.0,0.0,0.0,0.0,0.0,0.0,0.0,0.598205626011,-9.62032318115,0.176519691944,0.0,0.0,0.0,0.0,0.0,0.0,0.0,0.0,0.0
20074800,168102,1644542388435135126,1,0.0,0.0,0.0,0.0,0.0,0.0,0.0,0.0,0.0,0.0,0.0,0.0,0.0,0.0,0.0,0.0,0.0,0.0,0.0,0.0,0.0,0.0,0.0,0.0,0.0,0.57859236002,-9.64974308014,0.196132987738,0.0,0.0,0.0,0.0,0.0,0.0,0.0,0.0,0.0
22142100,168103,1644542388437148809,1,0.0,0.0,0.0,0.0,0.0,0.0,0.0,0.0,0.0,0.0,0.0,0.0,0.0,0.0,0.0,0.0,0.0,0.0,0.0,0.0,0.0,0.0,0.0,0.0,0.0,0.558979034424,-9.64974308014,0.137293100357,0.0,0.0,0.0,0.0,0.0,0.0,0.0,0.0,0.0
24146500,168104,1644542388439164877,1,0.0,0.0,0.0,0.0,0.0,0.0,0.0,0.0,0.0,0.0,0.0,0.0,0.0,0.0,0.0,0.0,0.0,0.0,0.0,0.0,0.0,0.0,0.0,0.0,0.0,0.558979034424,-9.58109664917,0.0980664938688,0.0,0.0,0.0,0.0,0.0,0.0,0.0,0.0,0.0
26105400,168105,1644542388441178799,1,0.0,0.0,0.0,0.0,0.0,0.0,0.0,0.0,0.0,0.0,0.0,0.0,0.0,0.0,0.0,0.0,0.0,0.0,0.0,0.0,0.0,0.0,0.0,0.0,0.0,0.549172401428,-9.56148338318,0.137293100357,0.0,0.0,0.0,0.0,0.0,0.0,0.0,0.0,0.0
28065600,168106,1644542388443194628,1,0.0,0.0,0.0,0.0,0.0,0.0,0.0,0.0,0.0,0.0,0.0,0.0,0.0,0.0,0.0,0.0,0.0,0.0,0.0,0.0,0.0,0.0,0.0,0.0,0.0,0.57859236002,-9.57129001617,0.137293100357,0.0,0.0,0.0,0.0,0.0,0.0,0.0,0.0,0.0
30200100,168107,1644542388445208549,1,0.0,0.0,0.0,0.0,0.0,0.0,0.0,0.0,0.0,0.0,0.0,0.0,0.0,0.0,0.0,0.0,0.0,0.0,0.0,0.0,0.0,0.0,0.0,0.0,0.0,0.549172401428,-9.56148338318,0.137293100357,0.0,0.0,0.0,0.0,0.0,0.0,0.0,0.0,0.0
765399100,168472,1644542389180496693,1,0.0,0.0,0.0,0.0,0.0,0.0,0.0,0.0,0.0,0.0,0.0,0.0,0.0,0.0,0.0,0.0,0.0,0.0,0.0,0.0,0.0,0.0,0.0,0.0,0.0,0.627625584602,-9.61051654816,0.12748645246,0.0,0.0,0.0,0.0,0.0,0.0,0.0,0.0,0.0
767415200,168473,1644542389182510614,1,0.0,0.0,0.0,0.0,0.0,0.0,0.0,0.0,0.0,0.0,0.0,0.0,0.0,0.0,0.0,0.0,0.0,0.0,0.0,0.0,0.0,0.0,0.0,0.0,0.0,0.627625584602,-9.66935634613,0.0686465501785,0.0,0.0,0.0,0.0,0.0,0.0,0.0,0.0,0.0
769358500,168474,1644542389184524298,1,0.0,0.0,0.0,0.0,0.0,0.0,0.0,0.0,0.0,0.0,0.0,0.0,0.0,0.0,0.0,0.0,0.0,0.0,0.0,0.0,0.0,0.0,0.0,0.0,0.0,0.627625584602,-9.66935634613,0.0686465501785,0.0,0.0,0.0,0.0,0.0,0.0,0.0,0.0,0.0
771651700,168475,1644542389186540365,1,0.0,0.0,0.0,0.0,0.0,0.0,0.0,0.0,0.0,0.0,0.0,0.0,0.0,0.0,0.0,0.0,0.0,0.0,0.0,0.0,0.0,0.0,0.0,0.0,0.0,0.637432217598,-9.61051654816,0.12748645246,0.0,0.0,0.0,0.0,0.0,0.0,0.0,0.0,0.0
773527100,168476,1644542389188554287,1,0.0,0.0,0.0,0.0,0.0,0.0,0.0,0.0,0.0,0.0,0.0,0.0,0.0,0.0,0.0,0.0,0.0,0.0,0.0,0.0,0.0,0.0,0.0,0.0,0.0,0.598205626011,-9.66935634613,0.137293100357,0.0,0.0,0.0,0.0,0.0,0.0,0.0,0.0,0.0
776182300,168477,1644542389190568209,1,0.0,0.0,0.0,0.0,0.0,0.0,0.0,0.0,0.0,0.0,0.0,0.0,0.0,0.0,0.0,0.0,0.0,0.0,0.0,0.0,0.0,0.0,0.0,0.0,0.0,0.57859236002,-9.64974308014,0.137293100357,0.0,0.0,0.0,0.0,0.0,0.0,0.0,0.0,0.0
778133400,168478,1644542389192584038,1,0.0,0.0,0.0,0.0,0.0,0.0,0.0,0.0,0.0,0.0,0.0,0.0,0.0,0.0,0.0,0.0,0.0,0.0,0.0,0.0,0.0,0.0,0.0,0.0,0.0,0.57859236002,-9.61051654816,0.12748645246,0.0,0.0,0.0,0.0,0.0,0.0,0.0,0.0,0.0
780275800,168479,1644542389194597960,1,0.0,0.0,0.0,0.0,0.0,0.0,0.0,0.0,0.0,0.0,0.0,0.0,0.0,0.0,0.0,0.0,0.0,0.0,0.0,0.0,0.0,0.0,0.0,0.0,0.0,0.627625584602,-9.70858287811,0.166713044047,0.0,0.0,0.0,0.0,0.0,0.0,0.0,0.0,0.0
782019500,168480,1644542389196611881,1,0.0,0.0,0.0,0.0,0.0,0.0,0.0,0.0,0.0,0.0,0.0,0.0,0.0,0.0,0.0,0.0,0.0,0.0,0.0,0.0,0.0,0.0,0.0,0.0,0.0,0.558979034424,-9.62032318115,0.12748645246,0.0,0.0,0.0,0.0,0.0,0.0,0.0,0.0,0.0
783570300,168481,1644542389198627710,1,0.0,0.0,0.0,0.0,0.0,0.0,0.0,0.0,0.0,0.0,0.0,0.0,0.0,0.0,0.0,0.0,0.0,0.0,0.0,0.0,0.0,0.0,0.0,0.0,0.0,0.549172401428,-9.62032318115,0.12748645246,0.0,0.0,0.0,0.0,0.0,0.0,0.0,0.0,0.0
785627800,168482,1644542389200641632,1,0.0,0.0,0.0,0.0,0.0,0.0,0.0,0.0,0.0,0.0,0.0,0.0,0.0,0.0,0.0,0.0,0.0,0.0,0.0,0.0,0.0,0.0,0.0,0.0,0.0,0.57859236002,-9.67916297913,0.137293100357,0.0,0.0,0.0,0.0,0.0,0.0,0.0,0.0,0.0
787572700,168483,1644542389202655554,1,0.0,0.0,0.0,0.0,0.0,0.0,0.0,0.0,0.0,0.0,0.0,0.0,0.0,0.0,0.0,0.0,0.0,0.0,0.0,0.0,0.0,0.0,0.0,0.0,0.0,0.598205626011,-9.58109664917,0.166713044047,0.0,0.0,0.0,0.0,0.0,0.0,0.0,0.0,0.0
789775400,168484,1644542389204669476,1,0.0,0.0,0.0,0.0,0.0,0.0,0.0,0.0,0.0,0.0,0.0,0.0,0.0,0.0,0.0,0.0,0.0,0.0,0.0,0.0,0.0,0.0,0.0,0.0,0.0,0.57859236002,-9.61051654816,0.12748645246,0.0,0.0,0.0,0.0,0.0,0.0,0.0,0.0,0.0
791674800,168485,1644542389206685305,1,0.0,0.0,0.0,0.0,0.0,0.0,0.0,0.0,0.0,0.0,0.0,0.0,0.0,0.0,0.0,0.0,0.0,0.0,0.0,0.0,0.0,0.0,0.0,0.0,0.0,0.598205626011,-9.62032318115,0.176519691944,0.0,0.0,0.0,0.0,0.0,0.0,0.0,0.0,0.0
793510300,168486,1644542389208699226,1,0.0,0.0,0.0,0.0,0.0,0.0,0.0,0.0,0.0,0.0,0.0,0.0,0.0,0.0,0.0,0.0,0.0,0.0,0.0,0.0,0.0,0.0,0.0,0.0,0.0,0.549172401428,-9.62032318115,0.176519691944,0.0,0.0,0.0,0.0,0.0,0.0,0.0,0.0,0.0
795593200,168487,1644542389210713148,1,0.0,0.0,0.0,0.0,0.0,0.0,0.0,0.0,0.0,0.0,0.0,0.0,0.0,0.0,0.0,0.0,0.0,0.0,0.0,0.0,0.0,0.0,0.0,0.0,0.0,0.57859236002,-9.58109664917,0.12748645246,0.0,0.0,0.0,0.0,0.0,0.0,0.0,0.0,0.0
797592500,168488,1644542389212727070,1,0.0,0.0,0.0,0.0,0.0,0.0,0.0,0.0,0.0,0.0,0.0,0.0,0.0,0.0,0.0,0.0,0.0,0.0,0.0,0.0,0.0,0.0,0.0,0.0,0.0,0.57859236002,-9.62032318115,0.137293100357,0.0,0.0,0.0,0.0,0.0,0.0,0.0,0.0,0.0
799721300,168489,1644542389214740992,1,0.0,0.0,0.0,0.0,0.0,0.0,0.0,0.0,0.0,0.0,0.0,0.0,0.0,0.0,0.0,0.0,0.0,0.0,0.0,0.0,0.0,0.0,0.0,0.0,0.0,0.549172401428,-9.62032318115,0.166713044047,0.0,0.0,0.0,0.0,0.0,0.0,0.0,0.0,0.0
801606200,168490,1644542389216754913,1,0.0,0.0,0.0,0.0,0.0,0.0,0.0,0.0,0.0,0.0,0.0,0.0,0.0,0.0,0.0,0.0,0.0,0.0,0.0,0.0,0.0,0.0,0.0,0.0,0.0,0.549172401428,-9.62032318115,0.137293100357,0.0,0.0,0.0,0.0,0.0,0.0,0.0,0.0,0.0
803564400,168491,1644542389218770981,1,0.0,0.0,0.0,0.0,0.0,0.0,0.0,0.0,0.0,0.0,0.0,0.0,0.0,0.0,0.0,0.0,0.0,0.0,0.0,0.0,0.0,0.0,0.0,0.0,0.0,0.549172401428,-9.62032318115,0.166713044047,0.0,0.0,0.0,0.0,0.0,0.0,0.0,0.0,0.0
805848200,168492,1644542389220784903,1,0.0,0.0,0.0,0.0,0.0,0.0,0.0,0.0,0.0,0.0,0.0,0.0,0.0,0.0,0.0,0.0,0.0,0.0,0.0,0.0,0.0,0.0,0.0,0.0,0.0,0.558979034424,-9.62032318115,0.137293100357,0.0,0.0,0.0,0.0,0.0,0.0,0.0,0.0,0.0
808002300,168493,1644542389222798824,1,0.0,0.0,0.0,0.0,0.0,0.0,0.0,0.0,0.0,0.0,0.0,0.0,0.0,0.0,0.0,0.0,0.0,0.0,0.0,0.0,0.0,0.0,0.0,0.0,0.0,0.558979034424,-9.64974308014,0.137293100357,0.0,0.0,0.0,0.0,0.0,0.0,0.0,0.0,0.0
809898700,168494,1644542389224812746,1,0.0,0.0,0.0,0.0,0.0,0.0,0.0,0.0,0.0,0.0,0.0,0.0,0.0,0.0,0.0,0.0,0.0,0.0,0.0,0.0,0.0,0.0,0.0,0.0,0.0,0.549172401428,-9.64974308014,0.176519691944,0.0,0.0,0.0,0.0,0.0,0.0,0.0,0.0,0.0
811876100,168495,1644542389226826668,1,0.0,0.0,0.0,0.0,0.0,0.0,0.0,0.0,0.0,0.0,0.0,0.0,0.0,0.0,0.0,0.0,0.0,0.0,0.0,0.0,0.0,0.0,0.0,0.0,0.0,0.529559075832,-9.62032318115,0.0980664938688,0.0,0.0,0.0,0.0,0.0,0.0,0.0,0.0,0.0
813857300,168496,1644542389228840590,1,0.0,0.0,0.0,0.0,0.0,0.0,0.0,0.0,0.0,0.0,0.0,0.0,0.0,0.0,0.0,0.0,0.0,0.0,0.0,0.0,0.0,0.0,0.0,0.0,0.0,0.549172401428,-9.61051654816,0.137293100357,0.0,0.0,0.0,0.0,0.0,0.0,0.0,0.0,0.0
816011600,168497,1644542389230856419,1,0.0,0.0,0.0,0.0,0.0,0.0,0.0,0.0,0.0,0.0,0.0,0.0,0.0,0.0,0.0,0.0,0.0,0.0,0.0,0.0,0.0,0.0,0.0,0.0,0.0,0.558979034424,-9.64974308014,0.196132987738,0.0,0.0,0.0,0.0,0.0,0.0,0.0,0.0,0.0
817831800,168498,1644542389232870340,1,0.0,0.0,0.0,0.0,0.0,0.0,0.0,0.0,0.0,0.0,0.0,0.0,0.0,0.0,0.0,0.0,0.0,0.0,0.0,0.0,0.0,0.0,0.0,0.0,0.0,0.549172401428,-9.61051654816,0.137293100357,0.0,0.0,0.0,0.0,0.0,0.0,0.0,0.0,0.0
819802000,168499,1644542389234884262,1,0.0,0.0,0.0,0.0,0.0,0.0,0.0,0.0,0.0,0.0,0.0,0.0,0.0,0.0,0.0,0.0,0.0,0.0,0.0,0.0,0.0,0.0,0.0,0.0,0.0,0.549172401428,-9.61051654816,0.196132987738,0.0,0.0,0.0,0.0,0.0,0.0,0.0,0.0,0.0
821966700,168500,1644542389236898184,1,0.0,0.0,0.0,0.0,0.0,0.0,0.0,0.0,0.0,0.0,0.0,0.0,0.0,0.0,0.0,0.0,0.0,0.0,0.0,0.0,0.0,0.0,0.0,0.0,0.0,0.549172401428,-9.61051654816,0.176519691944,0.0,0.0,0.0,0.0,0.0,0.0,0.0,0.0,0.0
823824700,168501,1644542389238912106,1,0.0,0.0,0.0,0.0,0.0,0.0,0.0,0.0,0.0,0.0,0.0,0.0,0.0,0.0,0.0,0.0,0.0,0.0,0.0,0.0,0.0,0.0,0.0,0.0,0.0,0.549172401428,-9.58109664917,0.176519691944,0.0,0.0,0.0,0.0,0.0,0.0,0.0,0.0,0.0
825880900,168502,1644542389240927935,1,0.0,0.0,0.0,0.0,0.0,0.0,0.0,0.0,0.0,0.0,0.0,0.0,0.0,0.0,0.0,0.0,0.0,0.0,0.0,0.0,0.0,0.0,0.0,0.0,0.0,0.558979034424,-9.64974308014,0.225552946329,0.0,0.0,0.0,0.0,0.0,0.0,0.0,0.0,0.0
827877400,168503,1644542389242941856,1,0.0,0.0,0.0,0.0,0.0,0.0,0.0,0.0,0.0,0.0,0.0,0.0,0.0,0.0,0.0,0.0,0.0,0.0,0.0,0.0,0.0,0.0,0.0,0.0,0.0,0.57859236002,-9.64974308014,0.225552946329,0.0,0.0,0.0,0.0,0.0,0.0,0.0,0.0,0.0
829891600,168504,1644542389244955778,1,0.0,0.0,0.0,0.0,0.0,0.0,0.0,0.0,0.0,0.0,0.0,0.0,0.0,0.0,0.0,0.0,0.0,0.0,0.0,0.0,0.0,0.0,0.0,0.0,0.0,0.57859236002,-9.58109664917,0.225552946329,0.0,0.0,0.0,0.0,0.0,0.0,0.0,0.0,0.0
831911400,168505,1644542389246969700,1,0.0,0.0,0.0,0.0,0.0,0.0,0.0,0.0,0.0,0.0,0.0,0.0,0.0,0.0,0.0,0.0,0.0,0.0,0.0,0.0,0.0,0.0,0.0,0.0,0.0,0.57859236002,-9.62032318115,0.196132987738,0.0,0.0,0.0,0.0,0.0,0.0,0.0,0.0,0.0
833770500,168506,1644542389248983622,1,0.0,0.0,0.0,0.0,0.0,0.0,0.0,0.0,0.0,0.0,0.0,0.0,0.0,0.0,0.0,0.0,0.0,0.0,0.0,0.0,0.0,0.0,0.0,0.0,0.0,0.549172401428,-9.62032318115,0.196132987738,0.0,0.0,0.0,0.0,0.0,0.0,0.0,0.0,0.0
835900800,168507,1644542389250999451,1,0.0,0.0,0.0,0.0,0.0,0.0,0.0,0.0,0.0,0.0,0.0,0.0,0.0,0.0,0.0,0.0,0.0,0.0,0.0,0.0,0.0,0.0,0.0,0.0,0.0,0.558979034424,-9.61051654816,0.196132987738,0.0,0.0,0.0,0.0,0.0,0.0,0.0,0.0,0.0
837766400,168508,1644542389253013372,1,0.0,0.0,0.0,0.0,0.0,0.0,0.0,0.0,0.0,0.0,0.0,0.0,0.0,0.0,0.0,0.0,0.0,0.0,0.0,0.0,0.0,0.0,0.0,0.0,0.0,0.549172401428,-9.61051654816,0.225552946329,0.0,0.0,0.0,0.0,0.0,0.0,0.0,0.0,0.0
839807100,168509,1644542389255027294,1,0.0,0.0,0.0,0.0,0.0,0.0,0.0,0.0,0.0,0.0,0.0,0.0,0.0,0.0,0.0,0.0,0.0,0.0,0.0,0.0,0.0,0.0,0.0,0.0,0.0,0.598205626011,-9.58109664917,0.245166242123,0.0,0.0,0.0,0.0,0.0,0.0,0.0,0.0,0.0
842181600,168510,1644542389257041216,1,0.0,0.0,0.0,0.0,0.0,0.0,0.0,0.0,0.0,0.0,0.0,0.0,0.0,0.0,0.0,0.0,0.0,0.0,0.0,0.0,0.0,0.0,0.0,0.0,0.0,0.549172401428,-9.62032318115,0.245166242123,0.0,0.0,0.0,0.0,0.0,0.0,0.0,0.0,0.0
844258600,168511,1644542389259055138,1,0.0,0.0,0.0,0.0,0.0,0.0,0.0,0.0,0.0,0.0,0.0,0.0,0.0,0.0,0.0,0.0,0.0,0.0,0.0,0.0,0.0,0.0,0.0,0.0,0.0,0.549172401428,-9.62032318115,0.225552946329,0.0,0.0,0.0,0.0,0.0,0.0,0.0,0.0,0.0
846220800,168512,1644542389261070967,1,0.0,0.0,0.0,0.0,0.0,0.0,0.0,0.0,0.0,0.0,0.0,0.0,0.0,0.0,0.0,0.0,0.0,0.0,0.0,0.0,0.0,0.0,0.0,0.0,0.0,0.558979034424,-9.66935634613,0.196132987738,0.0,0.0,0.0,0.0,0.0,0.0,0.0,0.0,0.0
848103100,168513,1644542389263084888,1,0.0,0.0,0.0,0.0,0.0,0.0,0.0,0.0,0.0,0.0,0.0,0.0,0.0,0.0,0.0,0.0,0.0,0.0,0.0,0.0,0.0,0.0,0.0,0.0,0.0,0.558979034424,-9.64974308014,0.225552946329,0.0,0.0,0.0,0.0,0.0,0.0,0.0,0.0,0.0
850100900,168514,1644542389265098810,1,0.0,0.0,0.0,0.0,0.0,0.0,0.0,0.0,0.0,0.0,0.0,0.0,0.0,0.0,0.0,0.0,0.0,0.0,0.0,0.0,0.0,0.0,0.0,0.0,0.0,0.627625584602,-9.62032318115,0.176519691944,0.0,0.0,0.0,0.0,0.0,0.0,0.0,0.0,0.0
852025500,168515,1644542389267112732,1,0.0,0.0,0.0,0.0,0.0,0.0,0.0,0.0,0.0,0.0,0.0,0.0,0.0,0.0,0.0,0.0,0.0,0.0,0.0,0.0,0.0,0.0,0.0,0.0,0.0,0.598205626011,-9.64974308014,0.225552946329,0.0,0.0,0.0,0.0,0.0,0.0,0.0,0.0,0.0
854120700,168516,1644542389269126654,1,0.0,0.0,0.0,0.0,0.0,0.0,0.0,0.0,0.0,0.0,0.0,0.0,0.0,0.0,0.0,0.0,0.0,0.0,0.0,0.0,0.0,0.0,0.0,0.0,0.0,0.637432217598,-9.62032318115,0.264779537916,0.0,0.0,0.0,0.0,0.0,0.0,0.0,0.0,0.0
856141000,168517,1644542389271142483,1,0.0,0.0,0.0,0.0,0.0,0.0,0.0,0.0,0.0,0.0,0.0,0.0,0.0,0.0,0.0,0.0,0.0,0.0,0.0,0.0,0.0,0.0,0.0,0.0,0.0,0.627625584602,-9.62032318115,0.225552946329,0.0,0.0,0.0,0.0,0.0,0.0,0.0,0.0,0.0
858031000,168518,1644542389273156404,1,0.0,0.0,0.0,0.0,0.0,0.0,0.0,0.0,0.0,0.0,0.0,0.0,0.0,0.0,0.0,0.0,0.0,0.0,0.0,0.0,0.0,0.0,0.0,0.0,0.0,0.57859236002,-9.61051654816,0.274586200714,0.0,0.0,0.0,0.0,0.0,0.0,0.0,0.0,0.0
860102000,168519,1644542389275170326,1,0.0,0.0,0.0,0.0,0.0,0.0,0.0,0.0,0.0,0.0,0.0,0.0,0.0,0.0,0.0,0.0,0.0,0.0,0.0,0.0,0.0,0.0,0.0,0.0,0.0,0.57859236002,-9.66935634613,0.274586200714,0.0,0.0,0.0,0.0,0.0,0.0,0.0,0.0,0.0
862097900,168520,1644542389277184248,1,0.0,0.0,0.0,0.0,0.0,0.0,0.0,0.0,0.0,0.0,0.0,0.0,0.0,0.0,0.0,0.0,0.0,0.0,0.0,0.0,0.0,0.0,0.0,0.0,0.0,0.598205626011,-9.66935634613,0.313812792301,0.0,0.0,0.0,0.0,0.0,0.0,0.0,0.0,0.0
864053800,168521,1644542389279198170,1,0.0,0.0,0.0,0.0,0.0,0.0,0.0,0.0,0.0,0.0,0.0,0.0,0.0,0.0,0.0,0.0,0.0,0.0,0.0,0.0,0.0,0.0,0.0,0.0,0.0,0.598205626011,-9.62032318115,0.196132987738,0.0,0.0,0.0,0.0,0.0,0.0,0.0,0.0,0.0
866030300,168522,1644542389281213999,1,0.0,0.0,0.0,0.0,0.0,0.0,0.0,0.0,0.0,0.0,0.0,0.0,0.0,0.0,0.0,0.0,0.0,0.0,0.0,0.0,0.0,0.0,0.0,0.0,0.0,0.598205626011,-9.67916297913,0.274586200714,0.0,0.0,0.0,0.0,0.0,0.0,0.0,0.0,0.0
868051300,168523,1644542389283227921,1,0.0,0.0,0.0,0.0,0.0,0.0,0.0,0.0,0.0,0.0,0.0,0.0,0.0,0.0,0.0,0.0,0.0,0.0,0.0,0.0,0.0,0.0,0.0,0.0,0.0,0.598205626011,-9.66935634613,0.225552946329,0.0,0.0,0.0,0.0,0.0,0.0,0.0,0.0,0.0
870252400,168524,1644542389285241842,1,0.0,0.0,0.0,0.0,0.0,0.0,0.0,0.0,0.0,0.0,0.0,0.0,0.0,0.0,0.0,0.0,0.0,0.0,0.0,0.0,0.0,0.0,0.0,0.0,0.0,0.57859236002,-9.64974308014,0.225552946329,0.0,0.0,0.0,0.0,0.0,0.0,0.0,0.0,0.0
872123600,168525,1644542389287255764,1,0.0,0.0,0.0,0.0,0.0,0.0,0.0,0.0,0.0,0.0,0.0,0.0,0.0,0.0,0.0,0.0,0.0,0.0,0.0,0.0,0.0,0.0,0.0,0.0,0.0,0.627625584602,-9.61051654816,0.264779537916,0.0,0.0,0.0,0.0,0.0,0.0,0.0,0.0,0.0
874075100,168526,1644542389289269686,1,0.0,0.0,0.0,0.0,0.0,0.0,0.0,0.0,0.0,0.0,0.0,0.0,0.0,0.0,0.0,0.0,0.0,0.0,0.0,0.0,0.0,0.0,0.0,0.0,0.0,0.57859236002,-9.64974308014,0.245166242123,0.0,0.0,0.0,0.0,0.0,0.0,0.0,0.0,0.0
876165900,168527,1644542389291283607,1,0.0,0.0,0.0,0.0,0.0,0.0,0.0,0.0,0.0,0.0,0.0,0.0,0.0,0.0,0.0,0.0,0.0,0.0,0.0,0.0,0.0,0.0,0.0,0.0,0.0,0.598205626011,-9.62032318115,0.225552946329,0.0,0.0,0.0,0.0,0.0,0.0,0.0,0.0,0.0
878402900,168528,1644542389293297529,1,0.0,0.0,0.0,0.0,0.0,0.0,0.0,0.0,0.0,0.0,0.0,0.0,0.0,0.0,0.0,0.0,0.0,0.0,0.0,0.0,0.0,0.0,0.0,0.0,0.0,0.57859236002,-9.62032318115,0.245166242123,0.0,0.0,0.0,0.0,0.0,0.0,0.0,0.0,0.0
880386200,168529,1644542389295311451,1,0.0,0.0,0.0,0.0,0.0,0.0,0.0,0.0,0.0,0.0,0.0,0.0,0.0,0.0,0.0,0.0,0.0,0.0,0.0,0.0,0.0,0.0,0.0,0.0,0.0,0.627625584602,-9.64974308014,0.294199496508,0.0,0.0,0.0,0.0,0.0,0.0,0.0,0.0,0.0
882361700,168530,1644542389297325373,1,0.0,0.0,0.0,0.0,0.0,0.0,0.0,0.0,0.0,0.0,0.0,0.0,0.0,0.0,0.0,0.0,0.0,0.0,0.0,0.0,0.0,0.0,0.0,0.0,0.0,0.57859236002,-9.62032318115,0.196132987738,0.0,0.0,0.0,0.0,0.0,0.0,0.0,0.0,0.0
884398300,168531,1644542389299339294,1,0.0,0.0,0.0,0.0,0.0,0.0,0.0,0.0,0.0,0.0,0.0,0.0,0.0,0.0,0.0,0.0,0.0,0.0,0.0,0.0,0.0,0.0,0.0,0.0,0.0,0.627625584602,-9.64974308014,0.245166242123,0.0,0.0,0.0,0.0,0.0,0.0,0.0,0.0,0.0
886426600,168532,1644542389301353216,1,0.0,0.0,0.0,0.0,0.0,0.0,0.0,0.0,0.0,0.0,0.0,0.0,0.0,0.0,0.0,0.0,0.0,0.0,0.0,0.0,0.0,0.0,0.0,0.0,0.0,0.627625584602,-9.66935634613,0.196132987738,0.0,0.0,0.0,0.0,0.0,0.0,0.0,0.0,0.0
888714600,168533,1644542389303367138,1,0.0,0.0,0.0,0.0,0.0,0.0,0.0,0.0,0.0,0.0,0.0,0.0,0.0,0.0,0.0,0.0,0.0,0.0,0.0,0.0,0.0,0.0,0.0,0.0,0.0,0.598205626011,-9.64974308014,0.225552946329,0.0,0.0,0.0,0.0,0.0,0.0,0.0,0.0,0.0
890352600,168534,1644542389305382967,1,0.0,0.0,0.0,0.0,0.0,0.0,0.0,0.0,0.0,0.0,0.0,0.0,0.0,0.0,0.0,0.0,0.0,0.0,0.0,0.0,0.0,0.0,0.0,0.0,0.0,0.598205626011,-9.66935634613,0.176519691944,0.0,0.0,0.0,0.0,0.0,0.0,0.0,0.0,0.0
892355500,168535,1644542389307396889,1,0.0,0.0,0.0,0.0,0.0,0.0,0.0,0.0,0.0,0.0,0.0,0.0,0.0,0.0,0.0,0.0,0.0,0.0,0.0,0.0,0.0,0.0,0.0,0.0,0.0,0.598205626011,-9.64974308014,0.176519691944,0.0,0.0,0.0,0.0,0.0,0.0,0.0,0.0,0.0
894364100,168536,1644542389309410810,1,0.0,0.0,0.0,0.0,0.0,0.0,0.0,0.0,0.0,0.0,0.0,0.0,0.0,0.0,0.0,0.0,0.0,0.0,0.0,0.0,0.0,0.0,0.0,0.0,0.0,0.558979034424,-9.62032318115,0.176519691944,0.0,0.0,0.0,0.0,0.0,0.0,0.0,0.0,0.0
896293800,168537,1644542389311424732,1,0.0,0.0,0.0,0.0,0.0,0.0,0.0,0.0,0.0,0.0,0.0,0.0,0.0,0.0,0.0,0.0,0.0,0.0,0.0,0.0,0.0,0.0,0.0,0.0,0.0,0.598205626011,-9.66935634613,0.176519691944,0.0,0.0,0.0,0.0,0.0,0.0,0.0,0.0,0.0
898650700,168538,1644542389313438654,1,0.0,0.0,0.0,0.0,0.0,0.0,0.0,0.0,0.0,0.0,0.0,0.0,0.0,0.0,0.0,0.0,0.0,0.0,0.0,0.0,0.0,0.0,0.0,0.0,0.0,0.598205626011,-9.61051654816,0.196132987738,0.0,0.0,0.0,0.0,0.0,0.0,0.0,0.0,0.0
900310800,168539,1644542389315452576,1,0.0,0.0,0.0,0.0,0.0,0.0,0.0,0.0,0.0,0.0,0.0,0.0,0.0,0.0,0.0,0.0,0.0,0.0,0.0,0.0,0.0,0.0,0.0,0.0,0.0,0.549172401428,-9.62032318115,0.166713044047,0.0,0.0,0.0,0.0,0.0,0.0,0.0,0.0,0.0
902422300,168540,1644542389317466497,1,0.0,0.0,0.0,0.0,0.0,0.0,0.0,0.0,0.0,0.0,0.0,0.0,0.0,0.0,0.0,0.0,0.0,0.0,0.0,0.0,0.0,0.0,0.0,0.0,0.0,0.57859236002,-9.62032318115,0.225552946329,0.0,0.0,0.0,0.0,0.0,0.0,0.0,0.0,0.0
904290800,168541,1644542389319480419,1,0.0,0.0,0.0,0.0,0.0,0.0,0.0,0.0,0.0,0.0,0.0,0.0,0.0,0.0,0.0,0.0,0.0,0.0,0.0,0.0,0.0,0.0,0.0,0.0,0.0,0.57859236002,-9.58109664917,0.12748645246,0.0,0.0,0.0,0.0,0.0,0.0,0.0,0.0,0.0
906333900,168542,1644542389321494341,1,0.0,0.0,0.0,0.0,0.0,0.0,0.0,0.0,0.0,0.0,0.0,0.0,0.0,0.0,0.0,0.0,0.0,0.0,0.0,0.0,0.0,0.0,0.0,0.0,0.0,0.598205626011,-9.64974308014,0.196132987738,0.0,0.0,0.0,0.0,0.0,0.0,0.0,0.0,0.0
908825600,168543,1644542389323508263,1,0.0,0.0,0.0,0.0,0.0,0.0,0.0,0.0,0.0,0.0,0.0,0.0,0.0,0.0,0.0,0.0,0.0,0.0,0.0,0.0,0.0,0.0,0.0,0.0,0.0,0.558979034424,-9.64974308014,0.0784531980753,0.0,0.0,0.0,0.0,0.0,0.0,0.0,0.0,0.0
910401600,168544,1644542389325522184,1,0.0,0.0,0.0,0.0,0.0,0.0,0.0,0.0,0.0,0.0,0.0,0.0,0.0,0.0,0.0,0.0,0.0,0.0,0.0,0.0,0.0,0.0,0.0,0.0,0.0,0.57859236002,-9.57129001617,0.137293100357,0.0,0.0,0.0,0.0,0.0,0.0,0.0,0.0,0.0
912704000,168545,1644542389327538252,1,0.0,0.0,0.0,0.0,0.0,0.0,0.0,0.0,0.0,0.0,0.0,0.0,0.0,0.0,0.0,0.0,0.0,0.0,0.0,0.0,0.0,0.0,0.0,0.0,0.0,0.57859236002,-9.61051654816,0.176519691944,0.0,0.0,0.0,0.0,0.0,0.0,0.0,0.0,0.0
914644900,168546,1644542389329552174,1,0.0,0.0,0.0,0.0,0.0,0.0,0.0,0.0,0.0,0.0,0.0,0.0,0.0,0.0,0.0,0.0,0.0,0.0,0.0,0.0,0.0,0.0,0.0,0.0,0.0,0.598205626011,-9.62032318115,0.12748645246,0.0,0.0,0.0,0.0,0.0,0.0,0.0,0.0,0.0
916570000,168547,1644542389331566095,1,0.0,0.0,0.0,0.0,0.0,0.0,0.0,0.0,0.0,0.0,0.0,0.0,0.0,0.0,0.0,0.0,0.0,0.0,0.0,0.0,0.0,0.0,0.0,0.0,0.0,0.598205626011,-9.61051654816,0.137293100357,0.0,0.0,0.0,0.0,0.0,0.0,0.0,0.0,0.0
918745100,168548,1644542389333580017,1,0.0,0.0,0.0,0.0,0.0,0.0,0.0,0.0,0.0,0.0,0.0,0.0,0.0,0.0,0.0,0.0,0.0,0.0,0.0,0.0,0.0,0.0,0.0,0.0,0.0,0.549172401428,-9.61051654816,0.0980664938688,0.0,0.0,0.0,0.0,0.0,0.0,0.0,0.0,0.0
921143300,168549,1644542389335593939,1,0.0,0.0,0.0,0.0,0.0,0.0,0.0,0.0,0.0,0.0,0.0,0.0,0.0,0.0,0.0,0.0,0.0,0.0,0.0,0.0,0.0,0.0,0.0,0.0,0.0,0.529559075832,-9.61051654816,0.12748645246,0.0,0.0,0.0,0.0,0.0,0.0,0.0,0.0,0.0
922641400,168550,1644542389337607861,1,0.0,0.0,0.0,0.0,0.0,0.0,0.0,0.0,0.0,0.0,0.0,0.0,0.0,0.0,0.0,0.0,0.0,0.0,0.0,0.0,0.0,0.0,0.0,0.0,0.0,0.57859236002,-9.57129001617,0.0686465501785,0.0,0.0,0.0,0.0,0.0,0.0,0.0,0.0,0.0
924583900,168551,1644542389339621782,1,0.0,0.0,0.0,0.0,0.0,0.0,0.0,0.0,0.0,0.0,0.0,0.0,0.0,0.0,0.0,0.0,0.0,0.0,0.0,0.0,0.0,0.0,0.0,0.0,0.0,0.558979034424,-9.61051654816,0.0980664938688,0.0,0.0,0.0,0.0,0.0,0.0,0.0,0.0,0.0
926615200,168552,1644542389341637611,1,0.0,0.0,0.0,0.0,0.0,0.0,0.0,0.0,0.0,0.0,0.0,0.0,0.0,0.0,0.0,0.0,0.0,0.0,0.0,0.0,0.0,0.0,0.0,0.0,0.0,0.549172401428,-9.58109664917,0.137293100357,0.0,0.0,0.0,0.0,0.0,0.0,0.0,0.0,0.0
928720900,168553,1644542389343651533,1,0.0,0.0,0.0,0.0,0.0,0.0,0.0,0.0,0.0,0.0,0.0,0.0,0.0,0.0,0.0,0.0,0.0,0.0,0.0,0.0,0.0,0.0,0.0,0.0,0.0,0.57859236002,-9.62032318115,0.137293100357,0.0,0.0,0.0,0.0,0.0,0.0,0.0,0.0,0.0
930583300,168554,1644542389345665455,1,0.0,0.0,0.0,0.0,0.0,0.0,0.0,0.0,0.0,0.0,0.0,0.0,0.0,0.0,0.0,0.0,0.0,0.0,0.0,0.0,0.0,0.0,0.0,0.0,0.0,0.529559075832,-9.58109664917,0.12748645246,0.0,0.0,0.0,0.0,0.0,0.0,0.0,0.0,0.0
932537200,168555,1644542389347679377,1,0.0,0.0,0.0,0.0,0.0,0.0,0.0,0.0,0.0,0.0,0.0,0.0,0.0,0.0,0.0,0.0,0.0,0.0,0.0,0.0,0.0,0.0,0.0,0.0,0.0,0.549172401428,-9.61051654816,0.12748645246,0.0,0.0,0.0,0.0,0.0,0.0,0.0,0.0,0.0
934720100,168556,1644542389349693298,1,0.0,0.0,0.0,0.0,0.0,0.0,0.0,0.0,0.0,0.0,0.0,0.0,0.0,0.0,0.0,0.0,0.0,0.0,0.0,0.0,0.0,0.0,0.0,0.0,0.0,0.549172401428,-9.62032318115,0.137293100357,0.0,0.0,0.0,0.0,0.0,0.0,0.0,0.0,0.0
936588400,168557,1644542389351707220,1,0.0,0.0,0.0,0.0,0.0,0.0,0.0,0.0,0.0,0.0,0.0,0.0,0.0,0.0,0.0,0.0,0.0,0.0,0.0,0.0,0.0,0.0,0.0,0.0,0.0,0.549172401428,-9.61051654816,0.0980664938688,0.0,0.0,0.0,0.0,0.0,0.0,0.0,0.0,0.0
938906800,168558,1644542389353721142,1,0.0,0.0,0.0,0.0,0.0,0.0,0.0,0.0,0.0,0.0,0.0,0.0,0.0,0.0,0.0,0.0,0.0,0.0,0.0,0.0,0.0,0.0,0.0,0.0,0.0,0.549172401428,-9.61051654816,0.166713044047,0.0,0.0,0.0,0.0,0.0,0.0,0.0,0.0,0.0
940610400,168559,1644542389355735064,1,0.0,0.0,0.0,0.0,0.0,0.0,0.0,0.0,0.0,0.0,0.0,0.0,0.0,0.0,0.0,0.0,0.0,0.0,0.0,0.0,0.0,0.0,0.0,0.0,0.0,0.57859236002,-9.58109664917,0.12748645246,0.0,0.0,0.0,0.0,0.0,0.0,0.0,0.0,0.0
942627600,168560,1644542389357748985,1,0.0,0.0,0.0,0.0,0.0,0.0,0.0,0.0,0.0,0.0,0.0,0.0,0.0,0.0,0.0,0.0,0.0,0.0,0.0,0.0,0.0,0.0,0.0,0.0,0.0,0.549172401428,-9.58109664917,0.12748645246,0.0,0.0,0.0,0.0,0.0,0.0,0.0,0.0,0.0
944902600,168561,1644542389359762907,1,0.0,0.0,0.0,0.0,0.0,0.0,0.0,0.0,0.0,0.0,0.0,0.0,0.0,0.0,0.0,0.0,0.0,0.0,0.0,0.0,0.0,0.0,0.0,0.0,0.0,0.529559075832,-9.62032318115,0.137293100357,0.0,0.0,0.0,0.0,0.0,0.0,0.0,0.0,0.0
947070800,168562,1644542389361776829,1,0.0,0.0,0.0,0.0,0.0,0.0,0.0,0.0,0.0,0.0,0.0,0.0,0.0,0.0,0.0,0.0,0.0,0.0,0.0,0.0,0.0,0.0,0.0,0.0,0.0,0.529559075832,-9.62032318115,0.12748645246,0.0,0.0,0.0,0.0,0.0,0.0,0.0,0.0,0.0
948660300,168563,1644542389363790751,1,0.0,0.0,0.0,0.0,0.0,0.0,0.0,0.0,0.0,0.0,0.0,0.0,0.0,0.0,0.0,0.0,0.0,0.0,0.0,0.0,0.0,0.0,0.0,0.0,0.0,0.57859236002,-9.61051654816,0.0980664938688,0.0,0.0,0.0,0.0,0.0,0.0,0.0,0.0,0.0
951105000,168564,1644542389365804672,1,0.0,0.0,0.0,0.0,0.0,0.0,0.0,0.0,0.0,0.0,0.0,0.0,0.0,0.0,0.0,0.0,0.0,0.0,0.0,0.0,0.0,0.0,0.0,0.0,0.0,0.558979034424,-9.64974308014,0.137293100357,0.0,0.0,0.0,0.0,0.0,0.0,0.0,0.0,0.0
953309500,168565,1644542389367818594,1,0.0,0.0,0.0,0.0,0.0,0.0,0.0,0.0,0.0,0.0,0.0,0.0,0.0,0.0,0.0,0.0,0.0,0.0,0.0,0.0,0.0,0.0,0.0,0.0,0.0,0.57859236002,-9.62032318115,0.137293100357,0.0,0.0,0.0,0.0,0.0,0.0,0.0,0.0,0.0
954913200,168566,1644542389369834423,1,0.0,0.0,0.0,0.0,0.0,0.0,0.0,0.0,0.0,0.0,0.0,0.0,0.0,0.0,0.0,0.0,0.0,0.0,0.0,0.0,0.0,0.0,0.0,0.0,0.0,0.57859236002,-9.58109664917,0.225552946329,0.0,0.0,0.0,0.0,0.0,0.0,0.0,0.0,0.0
956837400,168567,1644542389371848345,1,0.0,0.0,0.0,0.0,0.0,0.0,0.0,0.0,0.0,0.0,0.0,0.0,0.0,0.0,0.0,0.0,0.0,0.0,0.0,0.0,0.0,0.0,0.0,0.0,0.0,0.598205626011,-9.64974308014,0.166713044047,0.0,0.0,0.0,0.0,0.0,0.0,0.0,0.0,0.0
958828000,168568,1644542389373862267,1,0.0,0.0,0.0,0.0,0.0,0.0,0.0,0.0,0.0,0.0,0.0,0.0,0.0,0.0,0.0,0.0,0.0,0.0,0.0,0.0,0.0,0.0,0.0,0.0,0.0,0.598205626011,-9.62032318115,0.225552946329,0.0,0.0,0.0,0.0,0.0,0.0,0.0,0.0,0.0
960965500,168569,1644542389375876188,1,0.0,0.0,0.0,0.0,0.0,0.0,0.0,0.0,0.0,0.0,0.0,0.0,0.0,0.0,0.0,0.0,0.0,0.0,0.0,0.0,0.0,0.0,0.0,0.0,0.0,0.549172401428,-9.67916297913,0.225552946329,0.0,0.0,0.0,0.0,0.0,0.0,0.0,0.0,0.0
962812800,168570,1644542389377892017,1,0.0,0.0,0.0,0.0,0.0,0.0,0.0,0.0,0.0,0.0,0.0,0.0,0.0,0.0,0.0,0.0,0.0,0.0,0.0,0.0,0.0,0.0,0.0,0.0,0.0,0.627625584602,-9.64974308014,0.225552946329,0.0,0.0,0.0,0.0,0.0,0.0,0.0,0.0,0.0
964824400,168571,1644542389379905939,1,0.0,0.0,0.0,0.0,0.0,0.0,0.0,0.0,0.0,0.0,0.0,0.0,0.0,0.0,0.0,0.0,0.0,0.0,0.0,0.0,0.0,0.0,0.0,0.0,0.0,0.598205626011,-9.61051654816,0.176519691944,0.0,0.0,0.0,0.0,0.0,0.0,0.0,0.0,0.0
966875600,168572,1644542389381919861,1,0.0,0.0,0.0,0.0,0.0,0.0,0.0,0.0,0.0,0.0,0.0,0.0,0.0,0.0,0.0,0.0,0.0,0.0,0.0,0.0,0.0,0.0,0.0,0.0,0.0,0.57859236002,-9.64974308014,0.166713044047,0.0,0.0,0.0,0.0,0.0,0.0,0.0,0.0,0.0
968827600,168573,1644542389383933783,1,0.0,0.0,0.0,0.0,0.0,0.0,0.0,0.0,0.0,0.0,0.0,0.0,0.0,0.0,0.0,0.0,0.0,0.0,0.0,0.0,0.0,0.0,0.0,0.0,0.0,0.627625584602,-9.64974308014,0.176519691944,0.0,0.0,0.0,0.0,0.0,0.0,0.0,0.0,0.0
970894900,168574,1644542389385947704,1,0.0,0.0,0.0,0.0,0.0,0.0,0.0,0.0,0.0,0.0,0.0,0.0,0.0,0.0,0.0,0.0,0.0,0.0,0.0,0.0,0.0,0.0,0.0,0.0,0.0,0.598205626011,-9.70858287811,0.245166242123,0.0,0.0,0.0,0.0,0.0,0.0,0.0,0.0,0.0
972835800,168575,1644542389387961626,1,0.0,0.0,0.0,0.0,0.0,0.0,0.0,0.0,0.0,0.0,0.0,0.0,0.0,0.0,0.0,0.0,0.0,0.0,0.0,0.0,0.0,0.0,0.0,0.0,0.0,0.637432217598,-9.62032318115,0.274586200714,0.0,0.0,0.0,0.0,0.0,0.0,0.0,0.0,0.0
974830500,168576,1644542389389977455,1,0.0,0.0,0.0,0.0,0.0,0.0,0.0,0.0,0.0,0.0,0.0,0.0,0.0,0.0,0.0,0.0,0.0,0.0,0.0,0.0,0.0,0.0,0.0,0.0,0.0,0.598205626011,-9.64974308014,0.196132987738,0.0,0.0,0.0,0.0,0.0,0.0,0.0,0.0,0.0
976979600,168577,1644542389391991377,1,0.0,0.0,0.0,0.0,0.0,0.0,0.0,0.0,0.0,0.0,0.0,0.0,0.0,0.0,0.0,0.0,0.0,0.0,0.0,0.0,0.0,0.0,0.0,0.0,0.0,0.637432217598,-9.62032318115,0.245166242123,0.0,0.0,0.0,0.0,0.0,0.0,0.0,0.0,0.0
978809500,168578,1644542389394005299,1,0.0,0.0,0.0,0.0,0.0,0.0,0.0,0.0,0.0,0.0,0.0,0.0,0.0,0.0,0.0,0.0,0.0,0.0,0.0,0.0,0.0,0.0,0.0,0.0,0.0,0.598205626011,-9.66935634613,0.196132987738,0.0,0.0,0.0,0.0,0.0,0.0,0.0,0.0,0.0
980980900,168579,1644542389396019220,1,0.0,0.0,0.0,0.0,0.0,0.0,0.0,0.0,0.0,0.0,0.0,0.0,0.0,0.0,0.0,0.0,0.0,0.0,0.0,0.0,0.0,0.0,0.0,0.0,0.0,0.637432217598,-9.64974308014,0.245166242123,0.0,0.0,0.0,0.0,0.0,0.0,0.0,0.0,0.0
982970800,168580,1644542389398033142,1,0.0,0.0,0.0,0.0,0.0,0.0,0.0,0.0,0.0,0.0,0.0,0.0,0.0,0.0,0.0,0.0,0.0,0.0,0.0,0.0,0.0,0.0,0.0,0.0,0.0,0.598205626011,-9.62032318115,0.264779537916,0.0,0.0,0.0,0.0,0.0,0.0,0.0,0.0,0.0
985165100,168581,1644542389400049210,1,0.0,0.0,0.0,0.0,0.0,0.0,0.0,0.0,0.0,0.0,0.0,0.0,0.0,0.0,0.0,0.0,0.0,0.0,0.0,0.0,0.0,0.0,0.0,0.0,0.0,0.627625584602,-9.66935634613,0.176519691944,0.0,0.0,0.0,0.0,0.0,0.0,0.0,0.0,0.0
987133900,168582,1644542389402063131,1,0.0,0.0,0.0,0.0,0.0,0.0,0.0,0.0,0.0,0.0,0.0,0.0,0.0,0.0,0.0,0.0,0.0,0.0,0.0,0.0,0.0,0.0,0.0,0.0,0.0,0.598205626011,-9.64974308014,0.245166242123,0.0,0.0,0.0,0.0,0.0,0.0,0.0,0.0,0.0
989164200,168583,1644542389404077053,1,0.0,0.0,0.0,0.0,0.0,0.0,0.0,0.0,0.0,0.0,0.0,0.0,0.0,0.0,0.0,0.0,0.0,0.0,0.0,0.0,0.0,0.0,0.0,0.0,0.0,0.598205626011,-9.64974308014,0.225552946329,0.0,0.0,0.0,0.0,0.0,0.0,0.0,0.0,0.0
991213100,168584,1644542389406090975,1,0.0,0.0,0.0,0.0,0.0,0.0,0.0,0.0,0.0,0.0,0.0,0.0,0.0,0.0,0.0,0.0,0.0,0.0,0.0,0.0,0.0,0.0,0.0,0.0,0.0,0.57859236002,-9.64974308014,0.196132987738,0.0,0.0,0.0,0.0,0.0,0.0,0.0,0.0,0.0
993129800,168585,1644542389408107042,1,0.0,0.0,0.0,0.0,0.0,0.0,0.0,0.0,0.0,0.0,0.0,0.0,0.0,0.0,0.0,0.0,0.0,0.0,0.0,0.0,0.0,0.0,0.0,0.0,0.0,0.637432217598,-9.67916297913,0.225552946329,0.0,0.0,0.0,0.0,0.0,0.0,0.0,0.0,0.0
995024300,168586,1644542389410120964,1,0.0,0.0,0.0,0.0,0.0,0.0,0.0,0.0,0.0,0.0,0.0,0.0,0.0,0.0,0.0,0.0,0.0,0.0,0.0,0.0,0.0,0.0,0.0,0.0,0.0,0.637432217598,-9.64974308014,0.264779537916,0.0,0.0,0.0,0.0,0.0,0.0,0.0,0.0,0.0
997083700,168587,1644542389412134647,1,0.0,0.0,0.0,0.0,0.0,0.0,0.0,0.0,0.0,0.0,0.0,0.0,0.0,0.0,0.0,0.0,0.0,0.0,0.0,0.0,0.0,0.0,0.0,0.0,0.0,0.558979034424,-9.64974308014,0.274586200714,0.0,0.0,0.0,0.0,0.0,0.0,0.0,0.0,0.0
999208000,168588,1644542389414148569,1,0.0,0.0,0.0,0.0,0.0,0.0,0.0,0.0,0.0,0.0,0.0,0.0,0.0,0.0,0.0,0.0,0.0,0.0,0.0,0.0,0.0,0.0,0.0,0.0,0.0,0.627625584602,-9.64974308014,0.245166242123,0.0,0.0,0.0,0.0,0.0,0.0,0.0,0.0,0.0
1001208500,168589,1644542389416162491,1,0.0,0.0,0.0,0.0,0.0,0.0,0.0,0.0,0.0,0.0,0.0,0.0,0.0,0.0,0.0,0.0,0.0,0.0,0.0,0.0,0.0,0.0,0.0,0.0,0.0,0.627625584602,-9.66935634613,0.245166242123,0.0,0.0,0.0,0.0,0.0,0.0,0.0,0.0,0.0
1003190000,168590,1644542389418176413,1,0.0,0.0,0.0,0.0,0.0,0.0,0.0,0.0,0.0,0.0,0.0,0.0,0.0,0.0,0.0,0.0,0.0,0.0,0.0,0.0,0.0,0.0,0.0,0.0,0.0,0.598205626011,-9.66935634613,0.225552946329,0.0,0.0,0.0,0.0,0.0,0.0,0.0,0.0,0.0
1005118300,168591,1644542389420192480,1,0.0,0.0,0.0,0.0,0.0,0.0,0.0,0.0,0.0,0.0,0.0,0.0,0.0,0.0,0.0,0.0,0.0,0.0,0.0,0.0,0.0,0.0,0.0,0.0,0.0,0.627625584602,-9.66935634613,0.245166242123,0.0,0.0,0.0,0.0,0.0,0.0,0.0,0.0,0.0
1007204200,168592,1644542389422206402,1,0.0,0.0,0.0,0.0,0.0,0.0,0.0,0.0,0.0,0.0,0.0,0.0,0.0,0.0,0.0,0.0,0.0,0.0,0.0,0.0,0.0,0.0,0.0,0.0,0.0,0.598205626011,-9.58109664917,0.196132987738,0.0,0.0,0.0,0.0,0.0,0.0,0.0,0.0,0.0
1009086600,168593,1644542389424220324,1,0.0,0.0,0.0,0.0,0.0,0.0,0.0,0.0,0.0,0.0,0.0,0.0,0.0,0.0,0.0,0.0,0.0,0.0,0.0,0.0,0.0,0.0,0.0,0.0,0.0,0.598205626011,-9.62032318115,0.274586200714,0.0,0.0,0.0,0.0,0.0,0.0,0.0,0.0,0.0
1011134300,168594,1644542389426236153,1,0.0,0.0,0.0,0.0,0.0,0.0,0.0,0.0,0.0,0.0,0.0,0.0,0.0,0.0,0.0,0.0,0.0,0.0,0.0,0.0,0.0,0.0,0.0,0.0,0.0,0.558979034424,-9.64974308014,0.245166242123,0.0,0.0,0.0,0.0,0.0,0.0,0.0,0.0,0.0
1013079000,168595,1644542389428250074,1,0.0,0.0,0.0,0.0,0.0,0.0,0.0,0.0,0.0,0.0,0.0,0.0,0.0,0.0,0.0,0.0,0.0,0.0,0.0,0.0,0.0,0.0,0.0,0.0,0.0,0.598205626011,-9.61051654816,0.245166242123,0.0,0.0,0.0,0.0,0.0,0.0,0.0,0.0,0.0
1015092400,168596,1644542389430263996,1,0.0,0.0,0.0,0.0,0.0,0.0,0.0,0.0,0.0,0.0,0.0,0.0,0.0,0.0,0.0,0.0,0.0,0.0,0.0,0.0,0.0,0.0,0.0,0.0,0.0,0.627625584602,-9.66935634613,0.196132987738,0.0,0.0,0.0,0.0,0.0,0.0,0.0,0.0,0.0
1017021500,168597,1644542389432277918,1,0.0,0.0,0.0,0.0,0.0,0.0,0.0,0.0,0.0,0.0,0.0,0.0,0.0,0.0,0.0,0.0,0.0,0.0,0.0,0.0,0.0,0.0,0.0,0.0,0.0,0.549172401428,-9.61051654816,0.294199496508,0.0,0.0,0.0,0.0,0.0,0.0,0.0,0.0,0.0
1019235500,168598,1644542389434291840,1,0.0,0.0,0.0,0.0,0.0,0.0,0.0,0.0,0.0,0.0,0.0,0.0,0.0,0.0,0.0,0.0,0.0,0.0,0.0,0.0,0.0,0.0,0.0,0.0,0.0,0.558979034424,-9.66935634613,0.264779537916,0.0,0.0,0.0,0.0,0.0,0.0,0.0,0.0,0.0
1021287600,168599,1644542389436307669,1,0.0,0.0,0.0,0.0,0.0,0.0,0.0,0.0,0.0,0.0,0.0,0.0,0.0,0.0,0.0,0.0,0.0,0.0,0.0,0.0,0.0,0.0,0.0,0.0,0.0,0.549172401428,-9.62032318115,0.225552946329,0.0,0.0,0.0,0.0,0.0,0.0,0.0,0.0,0.0
1023376500,168600,1644542389438321590,1,0.0,0.0,0.0,0.0,0.0,0.0,0.0,0.0,0.0,0.0,0.0,0.0,0.0,0.0,0.0,0.0,0.0,0.0,0.0,0.0,0.0,0.0,0.0,0.0,0.0,0.558979034424,-9.61051654816,0.196132987738,0.0,0.0,0.0,0.0,0.0,0.0,0.0,0.0,0.0
1025272100,168601,1644542389440335512,1,0.0,0.0,0.0,0.0,0.0,0.0,0.0,0.0,0.0,0.0,0.0,0.0,0.0,0.0,0.0,0.0,0.0,0.0,0.0,0.0,0.0,0.0,0.0,0.0,0.0,0.549172401428,-9.61051654816,0.225552946329,0.0,0.0,0.0,0.0,0.0,0.0,0.0,0.0,0.0
1027296100,168602,1644542389442349434,1,0.0,0.0,0.0,0.0,0.0,0.0,0.0,0.0,0.0,0.0,0.0,0.0,0.0,0.0,0.0,0.0,0.0,0.0,0.0,0.0,0.0,0.0,0.0,0.0,0.0,0.549172401428,-9.58109664917,0.264779537916,0.0,0.0,0.0,0.0,0.0,0.0,0.0,0.0,0.0
1029410900,168603,1644542389444365501,1,0.0,0.0,0.0,0.0,0.0,0.0,0.0,0.0,0.0,0.0,0.0,0.0,0.0,0.0,0.0,0.0,0.0,0.0,0.0,0.0,0.0,0.0,0.0,0.0,0.0,0.549172401428,-9.61051654816,0.166713044047,0.0,0.0,0.0,0.0,0.0,0.0,0.0,0.0,0.0
1031404000,168604,1644542389446379423,1,0.0,0.0,0.0,0.0,0.0,0.0,0.0,0.0,0.0,0.0,0.0,0.0,0.0,0.0,0.0,0.0,0.0,0.0,0.0,0.0,0.0,0.0,0.0,0.0,0.0,0.509945809841,-9.62032318115,0.264779537916,0.0,0.0,0.0,0.0,0.0,0.0,0.0,0.0,0.0
1033365600,168605,1644542389448393345,1,0.0,0.0,0.0,0.0,0.0,0.0,0.0,0.0,0.0,0.0,0.0,0.0,0.0,0.0,0.0,0.0,0.0,0.0,0.0,0.0,0.0,0.0,0.0,0.0,0.0,0.549172401428,-9.61051654816,0.264779537916,0.0,0.0,0.0,0.0,0.0,0.0,0.0,0.0,0.0
1035355200,168606,1644542389450407267,1,0.0,0.0,0.0,0.0,0.0,0.0,0.0,0.0,0.0,0.0,0.0,0.0,0.0,0.0,0.0,0.0,0.0,0.0,0.0,0.0,0.0,0.0,0.0,0.0,0.0,0.57859236002,-9.61051654816,0.225552946329,0.0,0.0,0.0,0.0,0.0,0.0,0.0,0.0,0.0
1037342700,168607,1644542389452423096,1,0.0,0.0,0.0,0.0,0.0,0.0,0.0,0.0,0.0,0.0,0.0,0.0,0.0,0.0,0.0,0.0,0.0,0.0,0.0,0.0,0.0,0.0,0.0,0.0,0.0,0.529559075832,-9.61051654816,0.245166242123,0.0,0.0,0.0,0.0,0.0,0.0,0.0,0.0,0.0
1039314300,168608,1644542389454437017,1,0.0,0.0,0.0,0.0,0.0,0.0,0.0,0.0,0.0,0.0,0.0,0.0,0.0,0.0,0.0,0.0,0.0,0.0,0.0,0.0,0.0,0.0,0.0,0.0,0.0,0.549172401428,-9.62032318115,0.176519691944,0.0,0.0,0.0,0.0,0.0,0.0,0.0,0.0,0.0
1041324400,168609,1644542389456450939,1,0.0,0.0,0.0,0.0,0.0,0.0,0.0,0.0,0.0,0.0,0.0,0.0,0.0,0.0,0.0,0.0,0.0,0.0,0.0,0.0,0.0,0.0,0.0,0.0,0.0,0.529559075832,-9.58109664917,0.176519691944,0.0,0.0,0.0,0.0,0.0,0.0,0.0,0.0,0.0
1043472500,168610,1644542389458464861,1,0.0,0.0,0.0,0.0,0.0,0.0,0.0,0.0,0.0,0.0,0.0,0.0,0.0,0.0,0.0,0.0,0.0,0.0,0.0,0.0,0.0,0.0,0.0,0.0,0.0,0.549172401428,-9.56148338318,0.245166242123,0.0,0.0,0.0,0.0,0.0,0.0,0.0,0.0,0.0
1045460200,168611,1644542389460480690,1,0.0,0.0,0.0,0.0,0.0,0.0,0.0,0.0,0.0,0.0,0.0,0.0,0.0,0.0,0.0,0.0,0.0,0.0,0.0,0.0,0.0,0.0,0.0,0.0,0.0,0.57859236002,-9.58109664917,0.176519691944,0.0,0.0,0.0,0.0,0.0,0.0,0.0,0.0,0.0
1047383200,168612,1644542389462494612,1,0.0,0.0,0.0,0.0,0.0,0.0,0.0,0.0,0.0,0.0,0.0,0.0,0.0,0.0,0.0,0.0,0.0,0.0,0.0,0.0,0.0,0.0,0.0,0.0,0.0,0.558979034424,-9.61051654816,0.166713044047,0.0,0.0,0.0,0.0,0.0,0.0,0.0,0.0,0.0
1049309700,168613,1644542389464508533,1,0.0,0.0,0.0,0.0,0.0,0.0,0.0,0.0,0.0,0.0,0.0,0.0,0.0,0.0,0.0,0.0,0.0,0.0,0.0,0.0,0.0,0.0,0.0,0.0,0.0,0.529559075832,-9.64974308014,0.0980664938688,0.0,0.0,0.0,0.0,0.0,0.0,0.0,0.0,0.0
1051469700,168614,1644542389466522455,1,0.0,0.0,0.0,0.0,0.0,0.0,0.0,0.0,0.0,0.0,0.0,0.0,0.0,0.0,0.0,0.0,0.0,0.0,0.0,0.0,0.0,0.0,0.0,0.0,0.0,0.549172401428,-9.64974308014,0.196132987738,0.0,0.0,0.0,0.0,0.0,0.0,0.0,0.0,0.0
1053304400,168615,1644542389468538284,1,0.0,0.0,0.0,0.0,0.0,0.0,0.0,0.0,0.0,0.0,0.0,0.0,0.0,0.0,0.0,0.0,0.0,0.0,0.0,0.0,0.0,0.0,0.0,0.0,0.0,0.529559075832,-9.58109664917,0.176519691944,0.0,0.0,0.0,0.0,0.0,0.0,0.0,0.0,0.0
1055640800,168616,1644542389470552206,1,0.0,0.0,0.0,0.0,0.0,0.0,0.0,0.0,0.0,0.0,0.0,0.0,0.0,0.0,0.0,0.0,0.0,0.0,0.0,0.0,0.0,0.0,0.0,0.0,0.0,0.558979034424,-9.64974308014,0.196132987738,0.0,0.0,0.0,0.0,0.0,0.0,0.0,0.0,0.0
1057640600,168617,1644542389472566128,1,0.0,0.0,0.0,0.0,0.0,0.0,0.0,0.0,0.0,0.0,0.0,0.0,0.0,0.0,0.0,0.0,0.0,0.0,0.0,0.0,0.0,0.0,0.0,0.0,0.0,0.558979034424,-9.61051654816,0.166713044047,0.0,0.0,0.0,0.0,0.0,0.0,0.0,0.0,0.0
1059775200,168618,1644542389474582195,1,0.0,0.0,0.0,0.0,0.0,0.0,0.0,0.0,0.0,0.0,0.0,0.0,0.0,0.0,0.0,0.0,0.0,0.0,0.0,0.0,0.0,0.0,0.0,0.0,0.0,0.57859236002,-9.62032318115,0.166713044047,0.0,0.0,0.0,0.0,0.0,0.0,0.0,0.0,0.0
1061743800,168619,1644542389476596117,1,0.0,0.0,0.0,0.0,0.0,0.0,0.0,0.0,0.0,0.0,0.0,0.0,0.0,0.0,0.0,0.0,0.0,0.0,0.0,0.0,0.0,0.0,0.0,0.0,0.0,0.549172401428,-9.61051654816,0.0980664938688,0.0,0.0,0.0,0.0,0.0,0.0,0.0,0.0,0.0
1063617800,168620,1644542389478610039,1,0.0,0.0,0.0,0.0,0.0,0.0,0.0,0.0,0.0,0.0,0.0,0.0,0.0,0.0,0.0,0.0,0.0,0.0,0.0,0.0,0.0,0.0,0.0,0.0,0.0,0.549172401428,-9.62032318115,0.12748645246,0.0,0.0,0.0,0.0,0.0,0.0,0.0,0.0,0.0
1065725000,168621,1644542389480625868,1,0.0,0.0,0.0,0.0,0.0,0.0,0.0,0.0,0.0,0.0,0.0,0.0,0.0,0.0,0.0,0.0,0.0,0.0,0.0,0.0,0.0,0.0,0.0,0.0,0.0,0.598205626011,-9.61051654816,0.166713044047,0.0,0.0,0.0,0.0,0.0,0.0,0.0,0.0,0.0
1067701600,168622,1644542389482639790,1,0.0,0.0,0.0,0.0,0.0,0.0,0.0,0.0,0.0,0.0,0.0,0.0,0.0,0.0,0.0,0.0,0.0,0.0,0.0,0.0,0.0,0.0,0.0,0.0,0.0,0.627625584602,-9.66935634613,0.137293100357,0.0,0.0,0.0,0.0,0.0,0.0,0.0,0.0,0.0
1069579900,168623,1644542389484653711,1,0.0,0.0,0.0,0.0,0.0,0.0,0.0,0.0,0.0,0.0,0.0,0.0,0.0,0.0,0.0,0.0,0.0,0.0,0.0,0.0,0.0,0.0,0.0,0.0,0.0,0.598205626011,-9.62032318115,0.0980664938688,0.0,0.0,0.0,0.0,0.0,0.0,0.0,0.0,0.0
1071589300,168624,1644542389486667633,1,0.0,0.0,0.0,0.0,0.0,0.0,0.0,0.0,0.0,0.0,0.0,0.0,0.0,0.0,0.0,0.0,0.0,0.0,0.0,0.0,0.0,0.0,0.0,0.0,0.0,0.57859236002,-9.64974308014,0.12748645246,0.0,0.0,0.0,0.0,0.0,0.0,0.0,0.0,0.0
1073560500,168625,1644542389488681555,1,0.0,0.0,0.0,0.0,0.0,0.0,0.0,0.0,0.0,0.0,0.0,0.0,0.0,0.0,0.0,0.0,0.0,0.0,0.0,0.0,0.0,0.0,0.0,0.0,0.0,0.666852176189,-9.64974308014,0.176519691944,0.0,0.0,0.0,0.0,0.0,0.0,0.0,0.0,0.0
1075548300,168626,1644542389490697622,1,0.0,0.0,0.0,0.0,0.0,0.0,0.0,0.0,0.0,0.0,0.0,0.0,0.0,0.0,0.0,0.0,0.0,0.0,0.0,0.0,0.0,0.0,0.0,0.0,0.0,0.57859236002,-9.62032318115,0.12748645246,0.0,0.0,0.0,0.0,0.0,0.0,0.0,0.0,0.0
1077775600,168627,1644542389492711544,1,0.0,0.0,0.0,0.0,0.0,0.0,0.0,0.0,0.0,0.0,0.0,0.0,0.0,0.0,0.0,0.0,0.0,0.0,0.0,0.0,0.0,0.0,0.0,0.0,0.0,0.627625584602,-9.64974308014,0.12748645246,0.0,0.0,0.0,0.0,0.0,0.0,0.0,0.0,0.0
1079728400,168628,1644542389494725227,1,0.0,0.0,0.0,0.0,0.0,0.0,0.0,0.0,0.0,0.0,0.0,0.0,0.0,0.0,0.0,0.0,0.0,0.0,0.0,0.0,0.0,0.0,0.0,0.0,0.0,0.598205626011,-9.61051654816,0.166713044047,0.0,0.0,0.0,0.0,0.0,0.0,0.0,0.0,0.0
1081608200,168629,1644542389496739149,1,0.0,0.0,0.0,0.0,0.0,0.0,0.0,0.0,0.0,0.0,0.0,0.0,0.0,0.0,0.0,0.0,0.0,0.0,0.0,0.0,0.0,0.0,0.0,0.0,0.0,0.598205626011,-9.67916297913,0.176519691944,0.0,0.0,0.0,0.0,0.0,0.0,0.0,0.0,0.0
1083558900,168630,1644542389498753071,1,0.0,0.0,0.0,0.0,0.0,0.0,0.0,0.0,0.0,0.0,0.0,0.0,0.0,0.0,0.0,0.0,0.0,0.0,0.0,0.0,0.0,0.0,0.0,0.0,0.0,0.598205626011,-9.64974308014,0.12748645246,0.0,0.0,0.0,0.0,0.0,0.0,0.0,0.0,0.0
1085631000,168631,1644542389500769138,1,0.0,0.0,0.0,0.0,0.0,0.0,0.0,0.0,0.0,0.0,0.0,0.0,0.0,0.0,0.0,0.0,0.0,0.0,0.0,0.0,0.0,0.0,0.0,0.0,0.0,0.637432217598,-9.64974308014,0.0784531980753,0.0,0.0,0.0,0.0,0.0,0.0,0.0,0.0,0.0
1087757300,168632,1644542389502783060,1,0.0,0.0,0.0,0.0,0.0,0.0,0.0,0.0,0.0,0.0,0.0,0.0,0.0,0.0,0.0,0.0,0.0,0.0,0.0,0.0,0.0,0.0,0.0,0.0,0.0,0.598205626011,-9.64974308014,0.12748645246,0.0,0.0,0.0,0.0,0.0,0.0,0.0,0.0,0.0
1089854100,168633,1644542389504796982,1,0.0,0.0,0.0,0.0,0.0,0.0,0.0,0.0,0.0,0.0,0.0,0.0,0.0,0.0,0.0,0.0,0.0,0.0,0.0,0.0,0.0,0.0,0.0,0.0,0.0,0.598205626011,-9.66935634613,0.137293100357,0.0,0.0,0.0,0.0,0.0,0.0,0.0,0.0,0.0
1091987700,168634,1644542389506812811,1,0.0,0.0,0.0,0.0,0.0,0.0,0.0,0.0,0.0,0.0,0.0,0.0,0.0,0.0,0.0,0.0,0.0,0.0,0.0,0.0,0.0,0.0,0.0,0.0,0.0,0.598205626011,-9.66935634613,0.12748645246,0.0,0.0,0.0,0.0,0.0,0.0,0.0,0.0,0.0
1094010000,168635,1644542389508826971,1,0.0,0.0,0.0,0.0,0.0,0.0,0.0,0.0,0.0,0.0,0.0,0.0,0.0,0.0,0.0,0.0,0.0,0.0,0.0,0.0,0.0,0.0,0.0,0.0,0.0,0.598205626011,-9.64974308014,0.166713044047,0.0,0.0,0.0,0.0,0.0,0.0,0.0,0.0,0.0
1095826300,168636,1644542389510840893,1,0.0,0.0,0.0,0.0,0.0,0.0,0.0,0.0,0.0,0.0,0.0,0.0,0.0,0.0,0.0,0.0,0.0,0.0,0.0,0.0,0.0,0.0,0.0,0.0,0.0,0.627625584602,-9.66935634613,0.12748645246,0.0,0.0,0.0,0.0,0.0,0.0,0.0,0.0,0.0
1097959200,168637,1644542389512856722,1,0.0,0.0,0.0,0.0,0.0,0.0,0.0,0.0,0.0,0.0,0.0,0.0,0.0,0.0,0.0,0.0,0.0,0.0,0.0,0.0,0.0,0.0,0.0,0.0,0.0,0.57859236002,-9.61051654816,0.12748645246,0.0,0.0,0.0,0.0,0.0,0.0,0.0,0.0,0.0
1099956400,168638,1644542389514870644,1,0.0,0.0,0.0,0.0,0.0,0.0,0.0,0.0,0.0,0.0,0.0,0.0,0.0,0.0,0.0,0.0,0.0,0.0,0.0,0.0,0.0,0.0,0.0,0.0,0.0,0.627625584602,-9.64974308014,0.176519691944,0.0,0.0,0.0,0.0,0.0,0.0,0.0,0.0,0.0
1101963600,168639,1644542389516884565,1,0.0,0.0,0.0,0.0,0.0,0.0,0.0,0.0,0.0,0.0,0.0,0.0,0.0,0.0,0.0,0.0,0.0,0.0,0.0,0.0,0.0,0.0,0.0,0.0,0.0,0.598205626011,-9.64974308014,0.166713044047,0.0,0.0,0.0,0.0,0.0,0.0,0.0,0.0,0.0
1104830800,168640,1644542389518900394,1,0.0,0.0,0.0,0.0,0.0,0.0,0.0,0.0,0.0,0.0,0.0,0.0,0.0,0.0,0.0,0.0,0.0,0.0,0.0,0.0,0.0,0.0,0.0,0.0,0.0,0.627625584602,-9.62032318115,0.176519691944,0.0,0.0,0.0,0.0,0.0,0.0,0.0,0.0,0.0
1105848600,168641,1644542389520914316,1,0.0,0.0,0.0,0.0,0.0,0.0,0.0,0.0,0.0,0.0,0.0,0.0,0.0,0.0,0.0,0.0,0.0,0.0,0.0,0.0,0.0,0.0,0.0,0.0,0.0,0.598205626011,-9.64974308014,0.137293100357,0.0,0.0,0.0,0.0,0.0,0.0,0.0,0.0,0.0
1107755700,168642,1644542389522928238,1,0.0,0.0,0.0,0.0,0.0,0.0,0.0,0.0,0.0,0.0,0.0,0.0,0.0,0.0,0.0,0.0,0.0,0.0,0.0,0.0,0.0,0.0,0.0,0.0,0.0,0.57859236002,-9.64974308014,0.137293100357,0.0,0.0,0.0,0.0,0.0,0.0,0.0,0.0,0.0
1110381800,168643,1644542389524942160,1,0.0,0.0,0.0,0.0,0.0,0.0,0.0,0.0,0.0,0.0,0.0,0.0,0.0,0.0,0.0,0.0,0.0,0.0,0.0,0.0,0.0,0.0,0.0,0.0,0.0,0.558979034424,-9.61051654816,0.196132987738,0.0,0.0,0.0,0.0,0.0,0.0,0.0,0.0,0.0
1111972500,168644,1644542389526957989,1,0.0,0.0,0.0,0.0,0.0,0.0,0.0,0.0,0.0,0.0,0.0,0.0,0.0,0.0,0.0,0.0,0.0,0.0,0.0,0.0,0.0,0.0,0.0,0.0,0.0,0.558979034424,-9.61051654816,0.264779537916,0.0,0.0,0.0,0.0,0.0,0.0,0.0,0.0,0.0
1114147500,168645,1644542389528971910,1,0.0,0.0,0.0,0.0,0.0,0.0,0.0,0.0,0.0,0.0,0.0,0.0,0.0,0.0,0.0,0.0,0.0,0.0,0.0,0.0,0.0,0.0,0.0,0.0,0.0,0.57859236002,-9.62032318115,0.245166242123,0.0,0.0,0.0,0.0,0.0,0.0,0.0,0.0,0.0
1115759300,168646,1644542389530985832,1,0.0,0.0,0.0,0.0,0.0,0.0,0.0,0.0,0.0,0.0,0.0,0.0,0.0,0.0,0.0,0.0,0.0,0.0,0.0,0.0,0.0,0.0,0.0,0.0,0.0,0.558979034424,-9.67916297913,0.176519691944,0.0,0.0,0.0,0.0,0.0,0.0,0.0,0.0,0.0
1117906800,168647,1644542389532999754,1,0.0,0.0,0.0,0.0,0.0,0.0,0.0,0.0,0.0,0.0,0.0,0.0,0.0,0.0,0.0,0.0,0.0,0.0,0.0,0.0,0.0,0.0,0.0,0.0,0.0,0.598205626011,-9.62032318115,0.264779537916,0.0,0.0,0.0,0.0,0.0,0.0,0.0,0.0,0.0
1119915900,168648,1644542389535013676,1,0.0,0.0,0.0,0.0,0.0,0.0,0.0,0.0,0.0,0.0,0.0,0.0,0.0,0.0,0.0,0.0,0.0,0.0,0.0,0.0,0.0,0.0,0.0,0.0,0.0,0.549172401428,-9.61051654816,0.245166242123,0.0,0.0,0.0,0.0,0.0,0.0,0.0,0.0,0.0
1122256000,168649,1644542389537029505,1,0.0,0.0,0.0,0.0,0.0,0.0,0.0,0.0,0.0,0.0,0.0,0.0,0.0,0.0,0.0,0.0,0.0,0.0,0.0,0.0,0.0,0.0,0.0,0.0,0.0,0.627625584602,-9.64974308014,0.264779537916,0.0,0.0,0.0,0.0,0.0,0.0,0.0,0.0,0.0
1124585300,168650,1644542389539043427,1,0.0,0.0,0.0,0.0,0.0,0.0,0.0,0.0,0.0,0.0,0.0,0.0,0.0,0.0,0.0,0.0,0.0,0.0,0.0,0.0,0.0,0.0,0.0,0.0,0.0,0.627625584602,-9.66935634613,0.264779537916,0.0,0.0,0.0,0.0,0.0,0.0,0.0,0.0,0.0
1126207000,168651,1644542389541057587,1,0.0,0.0,0.0,0.0,0.0,0.0,0.0,0.0,0.0,0.0,0.0,0.0,0.0,0.0,0.0,0.0,0.0,0.0,0.0,0.0,0.0,0.0,0.0,0.0,0.0,0.558979034424,-9.62032318115,0.225552946329,0.0,0.0,0.0,0.0,0.0,0.0,0.0,0.0,0.0
1128531700,168652,1644542389543073416,1,0.0,0.0,0.0,0.0,0.0,0.0,0.0,0.0,0.0,0.0,0.0,0.0,0.0,0.0,0.0,0.0,0.0,0.0,0.0,0.0,0.0,0.0,0.0,0.0,0.0,0.558979034424,-9.62032318115,0.245166242123,0.0,0.0,0.0,0.0,0.0,0.0,0.0,0.0,0.0
1130151000,168653,1644542389545087337,1,0.0,0.0,0.0,0.0,0.0,0.0,0.0,0.0,0.0,0.0,0.0,0.0,0.0,0.0,0.0,0.0,0.0,0.0,0.0,0.0,0.0,0.0,0.0,0.0,0.0,0.558979034424,-9.58109664917,0.264779537916,0.0,0.0,0.0,0.0,0.0,0.0,0.0,0.0,0.0
1132619400,168654,1644542389547101259,1,0.0,0.0,0.0,0.0,0.0,0.0,0.0,0.0,0.0,0.0,0.0,0.0,0.0,0.0,0.0,0.0,0.0,0.0,0.0,0.0,0.0,0.0,0.0,0.0,0.0,0.598205626011,-9.58109664917,0.245166242123,0.0,0.0,0.0,0.0,0.0,0.0,0.0,0.0,0.0
1134534700,168655,1644542389549117088,1,0.0,0.0,0.0,0.0,0.0,0.0,0.0,0.0,0.0,0.0,0.0,0.0,0.0,0.0,0.0,0.0,0.0,0.0,0.0,0.0,0.0,0.0,0.0,0.0,0.0,0.529559075832,-9.61051654816,0.245166242123,0.0,0.0,0.0,0.0,0.0,0.0,0.0,0.0,0.0
1136364200,168656,1644542389551131010,1,0.0,0.0,0.0,0.0,0.0,0.0,0.0,0.0,0.0,0.0,0.0,0.0,0.0,0.0,0.0,0.0,0.0,0.0,0.0,0.0,0.0,0.0,0.0,0.0,0.0,0.558979034424,-9.62032318115,0.274586200714,0.0,0.0,0.0,0.0,0.0,0.0,0.0,0.0,0.0
1138569400,168657,1644542389553144932,1,0.0,0.0,0.0,0.0,0.0,0.0,0.0,0.0,0.0,0.0,0.0,0.0,0.0,0.0,0.0,0.0,0.0,0.0,0.0,0.0,0.0,0.0,0.0,0.0,0.0,0.529559075832,-9.61051654816,0.264779537916,0.0,0.0,0.0,0.0,0.0,0.0,0.0,0.0,0.0
1140172600,168658,1644542389555158854,1,0.0,0.0,0.0,0.0,0.0,0.0,0.0,0.0,0.0,0.0,0.0,0.0,0.0,0.0,0.0,0.0,0.0,0.0,0.0,0.0,0.0,0.0,0.0,0.0,0.0,0.549172401428,-9.58109664917,0.245166242123,0.0,0.0,0.0,0.0,0.0,0.0,0.0,0.0,0.0
1142120000,168659,1644542389557174921,1,0.0,0.0,0.0,0.0,0.0,0.0,0.0,0.0,0.0,0.0,0.0,0.0,0.0,0.0,0.0,0.0,0.0,0.0,0.0,0.0,0.0,0.0,0.0,0.0,0.0,0.549172401428,-9.64974308014,0.274586200714,0.0,0.0,0.0,0.0,0.0,0.0,0.0,0.0,0.0
1144656700,168660,1644542389559188604,1,0.0,0.0,0.0,0.0,0.0,0.0,0.0,0.0,0.0,0.0,0.0,0.0,0.0,0.0,0.0,0.0,0.0,0.0,0.0,0.0,0.0,0.0,0.0,0.0,0.0,0.598205626011,-9.62032318115,0.245166242123,0.0,0.0,0.0,0.0,0.0,0.0,0.0,0.0,0.0
1146554200,168661,1644542389561202526,1,0.0,0.0,0.0,0.0,0.0,0.0,0.0,0.0,0.0,0.0,0.0,0.0,0.0,0.0,0.0,0.0,0.0,0.0,0.0,0.0,0.0,0.0,0.0,0.0,0.0,0.549172401428,-9.62032318115,0.225552946329,0.0,0.0,0.0,0.0,0.0,0.0,0.0,0.0,0.0
1148557100,168662,1644542389563218594,1,0.0,0.0,0.0,0.0,0.0,0.0,0.0,0.0,0.0,0.0,0.0,0.0,0.0,0.0,0.0,0.0,0.0,0.0,0.0,0.0,0.0,0.0,0.0,0.0,0.0,0.57859236002,-9.58109664917,0.245166242123,0.0,0.0,0.0,0.0,0.0,0.0,0.0,0.0,0.0
1150272600,168663,1644542389565232515,1,0.0,0.0,0.0,0.0,0.0,0.0,0.0,0.0,0.0,0.0,0.0,0.0,0.0,0.0,0.0,0.0,0.0,0.0,0.0,0.0,0.0,0.0,0.0,0.0,0.0,0.558979034424,-9.58109664917,0.245166242123,0.0,0.0,0.0,0.0,0.0,0.0,0.0,0.0,0.0
1152392700,168664,1644542389567246675,1,0.0,0.0,0.0,0.0,0.0,0.0,0.0,0.0,0.0,0.0,0.0,0.0,0.0,0.0,0.0,0.0,0.0,0.0,0.0,0.0,0.0,0.0,0.0,0.0,0.0,0.558979034424,-9.62032318115,0.225552946329,0.0,0.0,0.0,0.0,0.0,0.0,0.0,0.0,0.0
1154092500,168665,1644542389569260597,1,0.0,0.0,0.0,0.0,0.0,0.0,0.0,0.0,0.0,0.0,0.0,0.0,0.0,0.0,0.0,0.0,0.0,0.0,0.0,0.0,0.0,0.0,0.0,0.0,0.0,0.558979034424,-9.62032318115,0.225552946329,0.0,0.0,0.0,0.0,0.0,0.0,0.0,0.0,0.0
1156072400,168666,1644542389571276426,1,0.0,0.0,0.0,0.0,0.0,0.0,0.0,0.0,0.0,0.0,0.0,0.0,0.0,0.0,0.0,0.0,0.0,0.0,0.0,0.0,0.0,0.0,0.0,0.0,0.0,0.558979034424,-9.61051654816,0.196132987738,0.0,0.0,0.0,0.0,0.0,0.0,0.0,0.0,0.0
1158378800,168667,1644542389573290348,1,0.0,0.0,0.0,0.0,0.0,0.0,0.0,0.0,0.0,0.0,0.0,0.0,0.0,0.0,0.0,0.0,0.0,0.0,0.0,0.0,0.0,0.0,0.0,0.0,0.0,0.57859236002,-9.62032318115,0.264779537916,0.0,0.0,0.0,0.0,0.0,0.0,0.0,0.0,0.0
1160412500,168668,1644542389575304270,1,0.0,0.0,0.0,0.0,0.0,0.0,0.0,0.0,0.0,0.0,0.0,0.0,0.0,0.0,0.0,0.0,0.0,0.0,0.0,0.0,0.0,0.0,0.0,0.0,0.0,0.627625584602,-9.64974308014,0.294199496508,0.0,0.0,0.0,0.0,0.0,0.0,0.0,0.0,0.0
1162391000,168669,1644542389577320099,1,0.0,0.0,0.0,0.0,0.0,0.0,0.0,0.0,0.0,0.0,0.0,0.0,0.0,0.0,0.0,0.0,0.0,0.0,0.0,0.0,0.0,0.0,0.0,0.0,0.0,0.558979034424,-9.61051654816,0.313812792301,0.0,0.0,0.0,0.0,0.0,0.0,0.0,0.0,0.0
1164299900,168670,1644542389579334021,1,0.0,0.0,0.0,0.0,0.0,0.0,0.0,0.0,0.0,0.0,0.0,0.0,0.0,0.0,0.0,0.0,0.0,0.0,0.0,0.0,0.0,0.0,0.0,0.0,0.0,0.598205626011,-9.66935634613,0.313812792301,0.0,0.0,0.0,0.0,0.0,0.0,0.0,0.0,0.0
1166328200,168671,1644542389581347942,1,0.0,0.0,0.0,0.0,0.0,0.0,0.0,0.0,0.0,0.0,0.0,0.0,0.0,0.0,0.0,0.0,0.0,0.0,0.0,0.0,0.0,0.0,0.0,0.0,0.0,0.627625584602,-9.66935634613,0.362846046686,0.0,0.0,0.0,0.0,0.0,0.0,0.0,0.0,0.0
1168874600,168672,1644542389583361864,1,0.0,0.0,0.0,0.0,0.0,0.0,0.0,0.0,0.0,0.0,0.0,0.0,0.0,0.0,0.0,0.0,0.0,0.0,0.0,0.0,0.0,0.0,0.0,0.0,0.0,0.666852176189,-9.71838951111,0.38245934248,0.0,0.0,0.0,0.0,0.0,0.0,0.0,0.0,0.0
1170448900,168673,1644542389585377693,1,0.0,0.0,0.0,0.0,0.0,0.0,0.0,0.0,0.0,0.0,0.0,0.0,0.0,0.0,0.0,0.0,0.0,0.0,0.0,0.0,0.0,0.0,0.0,0.0,0.0,0.637432217598,-9.67916297913,0.38245934248,0.0,0.0,0.0,0.0,0.0,0.0,0.0,0.0,0.0
1172354200,168674,1644542389587391615,1,0.0,0.0,0.0,0.0,0.0,0.0,0.0,0.0,0.0,0.0,0.0,0.0,0.0,0.0,0.0,0.0,0.0,0.0,0.0,0.0,0.0,0.0,0.0,0.0,0.0,0.666852176189,-9.67916297913,0.313812792301,0.0,0.0,0.0,0.0,0.0,0.0,0.0,0.0,0.0
1174343800,168675,1644542389589405537,1,0.0,0.0,0.0,0.0,0.0,0.0,0.0,0.0,0.0,0.0,0.0,0.0,0.0,0.0,0.0,0.0,0.0,0.0,0.0,0.0,0.0,0.0,0.0,0.0,0.0,0.725692093372,-9.70858287811,0.343232750893,0.0,0.0,0.0,0.0,0.0,0.0,0.0,0.0,0.0
1176334700,168676,1644542389591419458,1,0.0,0.0,0.0,0.0,0.0,0.0,0.0,0.0,0.0,0.0,0.0,0.0,0.0,0.0,0.0,0.0,0.0,0.0,0.0,0.0,0.0,0.0,0.0,0.0,0.0,0.686465501785,-9.75761604309,0.402072638273,0.0,0.0,0.0,0.0,0.0,0.0,0.0,0.0,0.0
1178291800,168677,1644542389593435526,1,0.0,0.0,0.0,0.0,0.0,0.0,0.0,0.0,0.0,0.0,0.0,0.0,0.0,0.0,0.0,0.0,0.0,0.0,0.0,0.0,0.0,0.0,0.0,0.0,0.0,0.598205626011,-9.66935634613,0.313812792301,0.0,0.0,0.0,0.0,0.0,0.0,0.0,0.0,0.0
1180468900,168678,1644542389595449448,1,0.0,0.0,0.0,0.0,0.0,0.0,0.0,0.0,0.0,0.0,0.0,0.0,0.0,0.0,0.0,0.0,0.0,0.0,0.0,0.0,0.0,0.0,0.0,0.0,0.0,0.598205626011,-9.71838951111,0.294199496508,0.0,0.0,0.0,0.0,0.0,0.0,0.0,0.0,0.0
1182466900,168679,1644542389597463369,1,0.0,0.0,0.0,0.0,0.0,0.0,0.0,0.0,0.0,0.0,0.0,0.0,0.0,0.0,0.0,0.0,0.0,0.0,0.0,0.0,0.0,0.0,0.0,0.0,0.0,0.529559075832,-9.61051654816,0.137293100357,0.0,0.0,0.0,0.0,0.0,0.0,0.0,0.0,0.0
1184405800,168680,1644542389599479198,1,0.0,0.0,0.0,0.0,0.0,0.0,0.0,0.0,0.0,0.0,0.0,0.0,0.0,0.0,0.0,0.0,0.0,0.0,0.0,0.0,0.0,0.0,0.0,0.0,0.0,0.490332484245,-9.58109664917,0.0784531980753,0.0,0.0,0.0,0.0,0.0,0.0,0.0,0.0,0.0
1186289300,168681,1644542389601493120,1,0.0,0.0,0.0,0.0,0.0,0.0,0.0,0.0,0.0,0.0,0.0,0.0,0.0,0.0,0.0,0.0,0.0,0.0,0.0,0.0,0.0,0.0,0.0,0.0,0.0,0.490332484245,-9.57129001617,0.0784531980753,0.0,0.0,0.0,0.0,0.0,0.0,0.0,0.0,0.0
1188340700,168682,1644542389603507042,1,0.0,0.0,0.0,0.0,0.0,0.0,0.0,0.0,0.0,0.0,0.0,0.0,0.0,0.0,0.0,0.0,0.0,0.0,0.0,0.0,0.0,0.0,0.0,0.0,0.0,0.490332484245,-9.57129001617,0.0294199492782,0.0,0.0,0.0,0.0,0.0,0.0,0.0,0.0,0.0
1190395100,168683,1644542389605520964,1,0.0,0.0,0.0,0.0,0.0,0.0,0.0,0.0,0.0,0.0,0.0,0.0,0.0,0.0,0.0,0.0,0.0,0.0,0.0,0.0,0.0,0.0,0.0,0.0,0.0,0.490332484245,-9.57129001617,0.0294199492782,0.0,0.0,0.0,0.0,0.0,0.0,0.0,0.0,0.0
1192407500,168684,1644542389607536793,1,0.0,0.0,0.0,0.0,0.0,0.0,0.0,0.0,0.0,0.0,0.0,0.0,0.0,0.0,0.0,0.0,0.0,0.0,0.0,0.0,0.0,0.0,0.0,0.0,0.0,0.490332484245,-9.57129001617,0.0686465501785,0.0,0.0,0.0,0.0,0.0,0.0,0.0,0.0,0.0
1194583400,168685,1644542389609550714,1,0.0,0.0,0.0,0.0,0.0,0.0,0.0,0.0,0.0,0.0,0.0,0.0,0.0,0.0,0.0,0.0,0.0,0.0,0.0,0.0,0.0,0.0,0.0,0.0,0.0,0.509945809841,-9.58109664917,0.0686465501785,0.0,0.0,0.0,0.0,0.0,0.0,0.0,0.0,0.0
1196570300,168686,1644542389611564636,1,0.0,0.0,0.0,0.0,0.0,0.0,0.0,0.0,0.0,0.0,0.0,0.0,0.0,0.0,0.0,0.0,0.0,0.0,0.0,0.0,0.0,0.0,0.0,0.0,0.0,0.529559075832,-9.58109664917,0.0392265990376,0.0,0.0,0.0,0.0,0.0,0.0,0.0,0.0,0.0
1198574300,168687,1644542389613580465,1,0.0,0.0,0.0,0.0,0.0,0.0,0.0,0.0,0.0,0.0,0.0,0.0,0.0,0.0,0.0,0.0,0.0,0.0,0.0,0.0,0.0,0.0,0.0,0.0,0.0,0.529559075832,-9.61051654816,0.0686465501785,0.0,0.0,0.0,0.0,0.0,0.0,0.0,0.0,0.0
1200725000,168688,1644542389615594387,1,0.0,0.0,0.0,0.0,0.0,0.0,0.0,0.0,0.0,0.0,0.0,0.0,0.0,0.0,0.0,0.0,0.0,0.0,0.0,0.0,0.0,0.0,0.0,0.0,0.0,0.549172401428,-9.61051654816,0.0392265990376,0.0,0.0,0.0,0.0,0.0,0.0,0.0,0.0,0.0
1202550900,168689,1644542389617610693,1,0.0,0.0,0.0,0.0,0.0,0.0,0.0,0.0,0.0,0.0,0.0,0.0,0.0,0.0,0.0,0.0,0.0,0.0,0.0,0.0,0.0,0.0,0.0,0.0,0.0,0.558979034424,-9.61051654816,0.0686465501785,0.0,0.0,0.0,0.0,0.0,0.0,0.0,0.0,0.0
1204591200,168690,1644542389619624615,1,0.0,0.0,0.0,0.0,0.0,0.0,0.0,0.0,0.0,0.0,0.0,0.0,0.0,0.0,0.0,0.0,0.0,0.0,0.0,0.0,0.0,0.0,0.0,0.0,0.0,0.549172401428,-9.64974308014,0.137293100357,0.0,0.0,0.0,0.0,0.0,0.0,0.0,0.0,0.0
1206723400,168691,1644542389621638536,1,0.0,0.0,0.0,0.0,0.0,0.0,0.0,0.0,0.0,0.0,0.0,0.0,0.0,0.0,0.0,0.0,0.0,0.0,0.0,0.0,0.0,0.0,0.0,0.0,0.0,0.637432217598,-9.66935634613,0.12748645246,0.0,0.0,0.0,0.0,0.0,0.0,0.0,0.0,0.0
1208610000,168692,1644542389623654366,1,0.0,0.0,0.0,0.0,0.0,0.0,0.0,0.0,0.0,0.0,0.0,0.0,0.0,0.0,0.0,0.0,0.0,0.0,0.0,0.0,0.0,0.0,0.0,0.0,0.0,0.57859236002,-9.61051654816,0.0784531980753,0.0,0.0,0.0,0.0,0.0,0.0,0.0,0.0,0.0
1210679900,168693,1644542389625668287,1,0.0,0.0,0.0,0.0,0.0,0.0,0.0,0.0,0.0,0.0,0.0,0.0,0.0,0.0,0.0,0.0,0.0,0.0,0.0,0.0,0.0,0.0,0.0,0.0,0.0,0.57859236002,-9.62032318115,0.0784531980753,0.0,0.0,0.0,0.0,0.0,0.0,0.0,0.0,0.0
1212699900,168694,1644542389627684116,1,0.0,0.0,0.0,0.0,0.0,0.0,0.0,0.0,0.0,0.0,0.0,0.0,0.0,0.0,0.0,0.0,0.0,0.0,0.0,0.0,0.0,0.0,0.0,0.0,0.0,0.558979034424,-9.61051654816,0.0392265990376,0.0,0.0,0.0,0.0,0.0,0.0,0.0,0.0,0.0
1214615400,168695,1644542389629698038,1,0.0,0.0,0.0,0.0,0.0,0.0,0.0,0.0,0.0,0.0,0.0,0.0,0.0,0.0,0.0,0.0,0.0,0.0,0.0,0.0,0.0,0.0,0.0,0.0,0.0,0.529559075832,-9.61051654816,0.0784531980753,0.0,0.0,0.0,0.0,0.0,0.0,0.0,0.0,0.0
1216687200,168696,1644542389631711960,1,0.0,0.0,0.0,0.0,0.0,0.0,0.0,0.0,0.0,0.0,0.0,0.0,0.0,0.0,0.0,0.0,0.0,0.0,0.0,0.0,0.0,0.0,0.0,0.0,0.0,0.57859236002,-9.61051654816,0.0686465501785,0.0,0.0,0.0,0.0,0.0,0.0,0.0,0.0,0.0
1218586600,168697,1644542389633727789,1,0.0,0.0,0.0,0.0,0.0,0.0,0.0,0.0,0.0,0.0,0.0,0.0,0.0,0.0,0.0,0.0,0.0,0.0,0.0,0.0,0.0,0.0,0.0,0.0,0.0,0.57859236002,-9.62032318115,0.0686465501785,0.0,0.0,0.0,0.0,0.0,0.0,0.0,0.0,0.0
1220619600,168698,1644542389635741711,1,0.0,0.0,0.0,0.0,0.0,0.0,0.0,0.0,0.0,0.0,0.0,0.0,0.0,0.0,0.0,0.0,0.0,0.0,0.0,0.0,0.0,0.0,0.0,0.0,0.0,0.598205626011,-9.66935634613,0.12748645246,0.0,0.0,0.0,0.0,0.0,0.0,0.0,0.0,0.0
1222561200,168699,1644542389637757778,1,0.0,0.0,0.0,0.0,0.0,0.0,0.0,0.0,0.0,0.0,0.0,0.0,0.0,0.0,0.0,0.0,0.0,0.0,0.0,0.0,0.0,0.0,0.0,0.0,0.0,0.598205626011,-9.62032318115,0.0784531980753,0.0,0.0,0.0,0.0,0.0,0.0,0.0,0.0,0.0
1224637300,168700,1644542389639771700,1,0.0,0.0,0.0,0.0,0.0,0.0,0.0,0.0,0.0,0.0,0.0,0.0,0.0,0.0,0.0,0.0,0.0,0.0,0.0,0.0,0.0,0.0,0.0,0.0,0.0,0.598205626011,-9.66935634613,0.0686465501785,0.0,0.0,0.0,0.0,0.0,0.0,0.0,0.0,0.0
1226678400,168701,1644542389641785622,1,0.0,0.0,0.0,0.0,0.0,0.0,0.0,0.0,0.0,0.0,0.0,0.0,0.0,0.0,0.0,0.0,0.0,0.0,0.0,0.0,0.0,0.0,0.0,0.0,0.0,0.57859236002,-9.64974308014,0.0686465501785,0.0,0.0,0.0,0.0,0.0,0.0,0.0,0.0,0.0
1228809800,168702,1644542389643799543,1,0.0,0.0,0.0,0.0,0.0,0.0,0.0,0.0,0.0,0.0,0.0,0.0,0.0,0.0,0.0,0.0,0.0,0.0,0.0,0.0,0.0,0.0,0.0,0.0,0.0,0.57859236002,-9.62032318115,0.12748645246,0.0,0.0,0.0,0.0,0.0,0.0,0.0,0.0,0.0
1230960000,168703,1644542389645815372,1,0.0,0.0,0.0,0.0,0.0,0.0,0.0,0.0,0.0,0.0,0.0,0.0,0.0,0.0,0.0,0.0,0.0,0.0,0.0,0.0,0.0,0.0,0.0,0.0,0.0,0.558979034424,-9.62032318115,0.12748645246,0.0,0.0,0.0,0.0,0.0,0.0,0.0,0.0,0.0
1232834400,168704,1644542389647829294,1,0.0,0.0,0.0,0.0,0.0,0.0,0.0,0.0,0.0,0.0,0.0,0.0,0.0,0.0,0.0,0.0,0.0,0.0,0.0,0.0,0.0,0.0,0.0,0.0,0.0,0.558979034424,-9.66935634613,0.12748645246,0.0,0.0,0.0,0.0,0.0,0.0,0.0,0.0,0.0
1234827000,168705,1644542389649843216,1,0.0,0.0,0.0,0.0,0.0,0.0,0.0,0.0,0.0,0.0,0.0,0.0,0.0,0.0,0.0,0.0,0.0,0.0,0.0,0.0,0.0,0.0,0.0,0.0,0.0,0.57859236002,-9.71838951111,0.137293100357,0.0,0.0,0.0,0.0,0.0,0.0,0.0,0.0,0.0
1236822100,168706,1644542389651859045,1,0.0,0.0,0.0,0.0,0.0,0.0,0.0,0.0,0.0,0.0,0.0,0.0,0.0,0.0,0.0,0.0,0.0,0.0,0.0,0.0,0.0,0.0,0.0,0.0,0.0,0.598205626011,-9.66935634613,0.137293100357,0.0,0.0,0.0,0.0,0.0,0.0,0.0,0.0,0.0
1239073900,168707,1644542389653872967,1,0.0,0.0,0.0,0.0,0.0,0.0,0.0,0.0,0.0,0.0,0.0,0.0,0.0,0.0,0.0,0.0,0.0,0.0,0.0,0.0,0.0,0.0,0.0,0.0,0.0,0.598205626011,-9.66935634613,0.196132987738,0.0,0.0,0.0,0.0,0.0,0.0,0.0,0.0,0.0
1240884700,168708,1644542389655886889,1,0.0,0.0,0.0,0.0,0.0,0.0,0.0,0.0,0.0,0.0,0.0,0.0,0.0,0.0,0.0,0.0,0.0,0.0,0.0,0.0,0.0,0.0,0.0,0.0,0.0,0.627625584602,-9.66935634613,0.166713044047,0.0,0.0,0.0,0.0,0.0,0.0,0.0,0.0,0.0
1242910100,168709,1644542389657902718,1,0.0,0.0,0.0,0.0,0.0,0.0,0.0,0.0,0.0,0.0,0.0,0.0,0.0,0.0,0.0,0.0,0.0,0.0,0.0,0.0,0.0,0.0,0.0,0.0,0.0,0.57859236002,-9.70858287811,0.176519691944,0.0,0.0,0.0,0.0,0.0,0.0,0.0,0.0,0.0
1244821300,168710,1644542389659916639,1,0.0,0.0,0.0,0.0,0.0,0.0,0.0,0.0,0.0,0.0,0.0,0.0,0.0,0.0,0.0,0.0,0.0,0.0,0.0,0.0,0.0,0.0,0.0,0.0,0.0,0.57859236002,-9.67916297913,0.176519691944,0.0,0.0,0.0,0.0,0.0,0.0,0.0,0.0,0.0
1246902100,168711,1644542389661930561,1,0.0,0.0,0.0,0.0,0.0,0.0,0.0,0.0,0.0,0.0,0.0,0.0,0.0,0.0,0.0,0.0,0.0,0.0,0.0,0.0,0.0,0.0,0.0,0.0,0.0,0.598205626011,-9.66935634613,0.137293100357,0.0,0.0,0.0,0.0,0.0,0.0,0.0,0.0,0.0
1249178400,168712,1644542389663944483,1,0.0,0.0,0.0,0.0,0.0,0.0,0.0,0.0,0.0,0.0,0.0,0.0,0.0,0.0,0.0,0.0,0.0,0.0,0.0,0.0,0.0,0.0,0.0,0.0,0.0,0.57859236002,-9.62032318115,0.176519691944,0.0,0.0,0.0,0.0,0.0,0.0,0.0,0.0,0.0
1250880500,168713,1644542389665960312,1,0.0,0.0,0.0,0.0,0.0,0.0,0.0,0.0,0.0,0.0,0.0,0.0,0.0,0.0,0.0,0.0,0.0,0.0,0.0,0.0,0.0,0.0,0.0,0.0,0.0,0.549172401428,-9.67916297913,0.176519691944,0.0,0.0,0.0,0.0,0.0,0.0,0.0,0.0,0.0
1252827900,168714,1644542389667974234,1,0.0,0.0,0.0,0.0,0.0,0.0,0.0,0.0,0.0,0.0,0.0,0.0,0.0,0.0,0.0,0.0,0.0,0.0,0.0,0.0,0.0,0.0,0.0,0.0,0.0,0.549172401428,-9.67916297913,0.196132987738,0.0,0.0,0.0,0.0,0.0,0.0,0.0,0.0,0.0
1254860800,168715,1644542389669988155,1,0.0,0.0,0.0,0.0,0.0,0.0,0.0,0.0,0.0,0.0,0.0,0.0,0.0,0.0,0.0,0.0,0.0,0.0,0.0,0.0,0.0,0.0,0.0,0.0,0.0,0.549172401428,-9.64974308014,0.0980664938688,0.0,0.0,0.0,0.0,0.0,0.0,0.0,0.0,0.0
1256765400,168716,1644542389672003984,1,0.0,0.0,0.0,0.0,0.0,0.0,0.0,0.0,0.0,0.0,0.0,0.0,0.0,0.0,0.0,0.0,0.0,0.0,0.0,0.0,0.0,0.0,0.0,0.0,0.0,0.529559075832,-9.64974308014,0.196132987738,0.0,0.0,0.0,0.0,0.0,0.0,0.0,0.0,0.0
1258771700,168717,1644542389674017906,1,0.0,0.0,0.0,0.0,0.0,0.0,0.0,0.0,0.0,0.0,0.0,0.0,0.0,0.0,0.0,0.0,0.0,0.0,0.0,0.0,0.0,0.0,0.0,0.0,0.0,0.529559075832,-9.64974308014,0.166713044047,0.0,0.0,0.0,0.0,0.0,0.0,0.0,0.0,0.0
1260802700,168718,1644542389676031590,1,0.0,0.0,0.0,0.0,0.0,0.0,0.0,0.0,0.0,0.0,0.0,0.0,0.0,0.0,0.0,0.0,0.0,0.0,0.0,0.0,0.0,0.0,0.0,0.0,0.0,0.549172401428,-9.62032318115,0.176519691944,0.0,0.0,0.0,0.0,0.0,0.0,0.0,0.0,0.0
1262787700,168719,1644542389678045511,1,0.0,0.0,0.0,0.0,0.0,0.0,0.0,0.0,0.0,0.0,0.0,0.0,0.0,0.0,0.0,0.0,0.0,0.0,0.0,0.0,0.0,0.0,0.0,0.0,0.0,0.529559075832,-9.62032318115,0.166713044047,0.0,0.0,0.0,0.0,0.0,0.0,0.0,0.0,0.0
1265083400,168720,1644542389680061340,1,0.0,0.0,0.0,0.0,0.0,0.0,0.0,0.0,0.0,0.0,0.0,0.0,0.0,0.0,0.0,0.0,0.0,0.0,0.0,0.0,0.0,0.0,0.0,0.0,0.0,0.529559075832,-9.66935634613,0.196132987738,0.0,0.0,0.0,0.0,0.0,0.0,0.0,0.0,0.0
1266993800,168721,1644542389682075262,1,0.0,0.0,0.0,0.0,0.0,0.0,0.0,0.0,0.0,0.0,0.0,0.0,0.0,0.0,0.0,0.0,0.0,0.0,0.0,0.0,0.0,0.0,0.0,0.0,0.0,0.549172401428,-9.66935634613,0.245166242123,0.0,0.0,0.0,0.0,0.0,0.0,0.0,0.0,0.0
1269035400,168722,1644542389684089184,1,0.0,0.0,0.0,0.0,0.0,0.0,0.0,0.0,0.0,0.0,0.0,0.0,0.0,0.0,0.0,0.0,0.0,0.0,0.0,0.0,0.0,0.0,0.0,0.0,0.0,0.529559075832,-9.66935634613,0.245166242123,0.0,0.0,0.0,0.0,0.0,0.0,0.0,0.0,0.0
1271053500,168723,1644542389686104774,1,0.0,0.0,0.0,0.0,0.0,0.0,0.0,0.0,0.0,0.0,0.0,0.0,0.0,0.0,0.0,0.0,0.0,0.0,0.0,0.0,0.0,0.0,0.0,0.0,0.0,0.549172401428,-9.70858287811,0.274586200714,0.0,0.0,0.0,0.0,0.0,0.0,0.0,0.0,0.0
1273045400,168724,1644542389688118696,1,0.0,0.0,0.0,0.0,0.0,0.0,0.0,0.0,0.0,0.0,0.0,0.0,0.0,0.0,0.0,0.0,0.0,0.0,0.0,0.0,0.0,0.0,0.0,0.0,0.0,0.529559075832,-9.66935634613,0.196132987738,0.0,0.0,0.0,0.0,0.0,0.0,0.0,0.0,0.0
1275085100,168725,1644542389690132618,1,0.0,0.0,0.0,0.0,0.0,0.0,0.0,0.0,0.0,0.0,0.0,0.0,0.0,0.0,0.0,0.0,0.0,0.0,0.0,0.0,0.0,0.0,0.0,0.0,0.0,0.529559075832,-9.67916297913,0.196132987738,0.0,0.0,0.0,0.0,0.0,0.0,0.0,0.0,0.0
1277060500,168726,1644542389692148447,1,0.0,0.0,0.0,0.0,0.0,0.0,0.0,0.0,0.0,0.0,0.0,0.0,0.0,0.0,0.0,0.0,0.0,0.0,0.0,0.0,0.0,0.0,0.0,0.0,0.0,0.558979034424,-9.66935634613,0.245166242123,0.0,0.0,0.0,0.0,0.0,0.0,0.0,0.0,0.0
1279043100,168727,1644542389694162369,1,0.0,0.0,0.0,0.0,0.0,0.0,0.0,0.0,0.0,0.0,0.0,0.0,0.0,0.0,0.0,0.0,0.0,0.0,0.0,0.0,0.0,0.0,0.0,0.0,0.0,0.529559075832,-9.58109664917,0.176519691944,0.0,0.0,0.0,0.0,0.0,0.0,0.0,0.0,0.0
1281137100,168728,1644542389696176052,1,0.0,0.0,0.0,0.0,0.0,0.0,0.0,0.0,0.0,0.0,0.0,0.0,0.0,0.0,0.0,0.0,0.0,0.0,0.0,0.0,0.0,0.0,0.0,0.0,0.0,0.490332484245,-9.62032318115,0.166713044047,0.0,0.0,0.0,0.0,0.0,0.0,0.0,0.0,0.0
1283081800,168729,1644542389698191881,1,0.0,0.0,0.0,0.0,0.0,0.0,0.0,0.0,0.0,0.0,0.0,0.0,0.0,0.0,0.0,0.0,0.0,0.0,0.0,0.0,0.0,0.0,0.0,0.0,0.0,0.490332484245,-9.58109664917,0.0980664938688,0.0,0.0,0.0,0.0,0.0,0.0,0.0,0.0,0.0
1285015900,168730,1644542389700205803,1,0.0,0.0,0.0,0.0,0.0,0.0,0.0,0.0,0.0,0.0,0.0,0.0,0.0,0.0,0.0,0.0,0.0,0.0,0.0,0.0,0.0,0.0,0.0,0.0,0.0,0.470719188452,-9.56148338318,0.12748645246,0.0,0.0,0.0,0.0,0.0,0.0,0.0,0.0,0.0
1287129100,168731,1644542389702219725,1,0.0,0.0,0.0,0.0,0.0,0.0,0.0,0.0,0.0,0.0,0.0,0.0,0.0,0.0,0.0,0.0,0.0,0.0,0.0,0.0,0.0,0.0,0.0,0.0,0.0,0.451105892658,-9.58109664917,0.0392265990376,0.0,0.0,0.0,0.0,0.0,0.0,0.0,0.0,0.0
1289119400,168732,1644542389704233646,1,0.0,0.0,0.0,0.0,0.0,0.0,0.0,0.0,0.0,0.0,0.0,0.0,0.0,0.0,0.0,0.0,0.0,0.0,0.0,0.0,0.0,0.0,0.0,0.0,0.0,0.470719188452,-9.58109664917,0.0686465501785,0.0,0.0,0.0,0.0,0.0,0.0,0.0,0.0,0.0
1291047100,168733,1644542389706247807,1,0.0,0.0,0.0,0.0,0.0,0.0,0.0,0.0,0.0,0.0,0.0,0.0,0.0,0.0,0.0,0.0,0.0,0.0,0.0,0.0,0.0,0.0,0.0,0.0,0.0,0.451105892658,-9.58109664917,0.0392265990376,0.0,0.0,0.0,0.0,0.0,0.0,0.0,0.0,0.0
1293099100,168734,1644542389708263874,1,0.0,0.0,0.0,0.0,0.0,0.0,0.0,0.0,0.0,0.0,0.0,0.0,0.0,0.0,0.0,0.0,0.0,0.0,0.0,0.0,0.0,0.0,0.0,0.0,0.0,0.421685934067,-9.53206348419,0.0392265990376,0.0,0.0,0.0,0.0,0.0,0.0,0.0,0.0,0.0
1295072700,168735,1644542389710277796,1,0.0,0.0,0.0,0.0,0.0,0.0,0.0,0.0,0.0,0.0,0.0,0.0,0.0,0.0,0.0,0.0,0.0,0.0,0.0,0.0,0.0,0.0,0.0,0.0,0.0,0.421685934067,-9.61051654816,0.0294199492782,0.0,0.0,0.0,0.0,0.0,0.0,0.0,0.0,0.0
1297033600,168736,1644542389712291956,1,0.0,0.0,0.0,0.0,0.0,0.0,0.0,0.0,0.0,0.0,0.0,0.0,0.0,0.0,0.0,0.0,0.0,0.0,0.0,0.0,0.0,0.0,0.0,0.0,0.0,0.470719188452,-9.53206348419,0.0,0.0,0.0,0.0,0.0,0.0,0.0,0.0,0.0,0.0
1299662900,168737,1644542389714307785,1,0.0,0.0,0.0,0.0,0.0,0.0,0.0,0.0,0.0,0.0,0.0,0.0,0.0,0.0,0.0,0.0,0.0,0.0,0.0,0.0,0.0,0.0,0.0,0.0,0.0,0.451105892658,-9.57129001617,0.00980664975941,0.0,0.0,0.0,0.0,0.0,0.0,0.0,0.0,0.0
1301848100,168738,1644542389716321945,1,0.0,0.0,0.0,0.0,0.0,0.0,0.0,0.0,0.0,0.0,0.0,0.0,0.0,0.0,0.0,0.0,0.0,0.0,0.0,0.0,0.0,0.0,0.0,0.0,0.0,0.509945809841,-9.58109664917,-0.0294199492782,0.0,0.0,0.0,0.0,0.0,0.0,0.0,0.0,0.0
1303791800,168739,1644542389718336105,1,0.0,0.0,0.0,0.0,0.0,0.0,0.0,0.0,0.0,0.0,0.0,0.0,0.0,0.0,0.0,0.0,0.0,0.0,0.0,0.0,0.0,0.0,0.0,0.0,0.0,0.451105892658,-9.58109664917,-0.0686465501785,0.0,0.0,0.0,0.0,0.0,0.0,0.0,0.0,0.0
1305795400,168740,1644542389720350027,1,0.0,0.0,0.0,0.0,0.0,0.0,0.0,0.0,0.0,0.0,0.0,0.0,0.0,0.0,0.0,0.0,0.0,0.0,0.0,0.0,0.0,0.0,0.0,0.0,0.0,0.470719188452,-9.58109664917,-0.00980664975941,0.0,0.0,0.0,0.0,0.0,0.0,0.0,0.0,0.0
1307861000,168741,1644542389722364187,1,0.0,0.0,0.0,0.0,0.0,0.0,0.0,0.0,0.0,0.0,0.0,0.0,0.0,0.0,0.0,0.0,0.0,0.0,0.0,0.0,0.0,0.0,0.0,0.0,0.0,0.470719188452,-9.57129001617,-0.0294199492782,0.0,0.0,0.0,0.0,0.0,0.0,0.0,0.0,0.0
1310267600,168742,1644542389724380016,1,0.0,0.0,0.0,0.0,0.0,0.0,0.0,0.0,0.0,0.0,0.0,0.0,0.0,0.0,0.0,0.0,0.0,0.0,0.0,0.0,0.0,0.0,0.0,0.0,0.0,0.490332484245,-9.61051654816,0.0294199492782,0.0,0.0,0.0,0.0,0.0,0.0,0.0,0.0,0.0
1311349600,168743,1644542389726394176,1,0.0,0.0,0.0,0.0,0.0,0.0,0.0,0.0,0.0,0.0,0.0,0.0,0.0,0.0,0.0,0.0,0.0,0.0,0.0,0.0,0.0,0.0,0.0,0.0,0.0,0.509945809841,-9.58109664917,0.0686465501785,0.0,0.0,0.0,0.0,0.0,0.0,0.0,0.0,0.0
1313304200,168744,1644542389728410482,1,0.0,0.0,0.0,0.0,0.0,0.0,0.0,0.0,0.0,0.0,0.0,0.0,0.0,0.0,0.0,0.0,0.0,0.0,0.0,0.0,0.0,0.0,0.0,0.0,0.0,0.529559075832,-9.61051654816,0.0686465501785,0.0,0.0,0.0,0.0,0.0,0.0,0.0,0.0,0.0
1315289700,168745,1644542389730424404,1,0.0,0.0,0.0,0.0,0.0,0.0,0.0,0.0,0.0,0.0,0.0,0.0,0.0,0.0,0.0,0.0,0.0,0.0,0.0,0.0,0.0,0.0,0.0,0.0,0.0,0.470719188452,-9.62032318115,0.0392265990376,0.0,0.0,0.0,0.0,0.0,0.0,0.0,0.0,0.0
1317309500,168746,1644542389732436419,1,0.0,0.0,0.0,0.0,0.0,0.0,0.0,0.0,0.0,0.0,0.0,0.0,0.0,0.0,0.0,0.0,0.0,0.0,0.0,0.0,0.0,0.0,0.0,0.0,0.0,0.549172401428,-9.58109664917,0.0,0.0,0.0,0.0,0.0,0.0,0.0,0.0,0.0,0.0
1319676300,168747,1644542389734452486,1,0.0,0.0,0.0,0.0,0.0,0.0,0.0,0.0,0.0,0.0,0.0,0.0,0.0,0.0,0.0,0.0,0.0,0.0,0.0,0.0,0.0,0.0,0.0,0.0,0.0,0.470719188452,-9.56148338318,-0.00980664975941,0.0,0.0,0.0,0.0,0.0,0.0,0.0,0.0,0.0
1321438700,168748,1644542389736466646,1,0.0,0.0,0.0,0.0,0.0,0.0,0.0,0.0,0.0,0.0,0.0,0.0,0.0,0.0,0.0,0.0,0.0,0.0,0.0,0.0,0.0,0.0,0.0,0.0,0.0,0.509945809841,-9.64974308014,0.0,0.0,0.0,0.0,0.0,0.0,0.0,0.0,0.0,0.0
1323359600,168749,1644542389738480568,1,0.0,0.0,0.0,0.0,0.0,0.0,0.0,0.0,0.0,0.0,0.0,0.0,0.0,0.0,0.0,0.0,0.0,0.0,0.0,0.0,0.0,0.0,0.0,0.0,0.0,0.529559075832,-9.61051654816,-0.0294199492782,0.0,0.0,0.0,0.0,0.0,0.0,0.0,0.0,0.0
1325373000,168750,1644542389740494728,1,0.0,0.0,0.0,0.0,0.0,0.0,0.0,0.0,0.0,0.0,0.0,0.0,0.0,0.0,0.0,0.0,0.0,0.0,0.0,0.0,0.0,0.0,0.0,0.0,0.0,0.490332484245,-9.57129001617,-0.0294199492782,0.0,0.0,0.0,0.0,0.0,0.0,0.0,0.0,0.0
1327394700,168751,1644542389742510796,1,0.0,0.0,0.0,0.0,0.0,0.0,0.0,0.0,0.0,0.0,0.0,0.0,0.0,0.0,0.0,0.0,0.0,0.0,0.0,0.0,0.0,0.0,0.0,0.0,0.0,0.470719188452,-9.57129001617,0.0,0.0,0.0,0.0,0.0,0.0,0.0,0.0,0.0,0.0
1329753300,168752,1644542389744524717,1,0.0,0.0,0.0,0.0,0.0,0.0,0.0,0.0,0.0,0.0,0.0,0.0,0.0,0.0,0.0,0.0,0.0,0.0,0.0,0.0,0.0,0.0,0.0,0.0,0.0,0.490332484245,-9.58109664917,0.0,0.0,0.0,0.0,0.0,0.0,0.0,0.0,0.0,0.0
1331627800,168753,1644542389746538877,1,0.0,0.0,0.0,0.0,0.0,0.0,0.0,0.0,0.0,0.0,0.0,0.0,0.0,0.0,0.0,0.0,0.0,0.0,0.0,0.0,0.0,0.0,0.0,0.0,0.0,0.529559075832,-9.58109664917,-0.0392265990376,0.0,0.0,0.0,0.0,0.0,0.0,0.0,0.0,0.0
1333849900,168754,1644542389748554945,1,0.0,0.0,0.0,0.0,0.0,0.0,0.0,0.0,0.0,0.0,0.0,0.0,0.0,0.0,0.0,0.0,0.0,0.0,0.0,0.0,0.0,0.0,0.0,0.0,0.0,0.490332484245,-9.64974308014,0.0,0.0,0.0,0.0,0.0,0.0,0.0,0.0,0.0,0.0
1336045600,168755,1644542389750570774,1,0.0,0.0,0.0,0.0,0.0,0.0,0.0,0.0,0.0,0.0,0.0,0.0,0.0,0.0,0.0,0.0,0.0,0.0,0.0,0.0,0.0,0.0,0.0,0.0,0.0,0.529559075832,-9.61051654816,0.0686465501785,0.0,0.0,0.0,0.0,0.0,0.0,0.0,0.0,0.0
1338088400,168756,1644542389752584934,1,0.0,0.0,0.0,0.0,0.0,0.0,0.0,0.0,0.0,0.0,0.0,0.0,0.0,0.0,0.0,0.0,0.0,0.0,0.0,0.0,0.0,0.0,0.0,0.0,0.0,0.558979034424,-9.62032318115,0.0686465501785,0.0,0.0,0.0,0.0,0.0,0.0,0.0,0.0,0.0
1339990600,168757,1644542389754598856,1,0.0,0.0,0.0,0.0,0.0,0.0,0.0,0.0,0.0,0.0,0.0,0.0,0.0,0.0,0.0,0.0,0.0,0.0,0.0,0.0,0.0,0.0,0.0,0.0,0.0,0.549172401428,-9.64974308014,0.0392265990376,0.0,0.0,0.0,0.0,0.0,0.0,0.0,0.0,0.0
1341698100,168758,1644542389756613016,1,0.0,0.0,0.0,0.0,0.0,0.0,0.0,0.0,0.0,0.0,0.0,0.0,0.0,0.0,0.0,0.0,0.0,0.0,0.0,0.0,0.0,0.0,0.0,0.0,0.0,0.558979034424,-9.62032318115,0.137293100357,0.0,0.0,0.0,0.0,0.0,0.0,0.0,0.0,0.0
1343599700,168759,1644542389758627176,1,0.0,0.0,0.0,0.0,0.0,0.0,0.0,0.0,0.0,0.0,0.0,0.0,0.0,0.0,0.0,0.0,0.0,0.0,0.0,0.0,0.0,0.0,0.0,0.0,0.0,0.549172401428,-9.62032318115,0.0980664938688,0.0,0.0,0.0,0.0,0.0,0.0,0.0,0.0,0.0
1346053900,168760,1644542389760641098,1,0.0,0.0,0.0,0.0,0.0,0.0,0.0,0.0,0.0,0.0,0.0,0.0,0.0,0.0,0.0,0.0,0.0,0.0,0.0,0.0,0.0,0.0,0.0,0.0,0.0,0.57859236002,-9.61051654816,0.0784531980753,0.0,0.0,0.0,0.0,0.0,0.0,0.0,0.0,0.0
1347736700,168761,1644542389762657166,1,0.0,0.0,0.0,0.0,0.0,0.0,0.0,0.0,0.0,0.0,0.0,0.0,0.0,0.0,0.0,0.0,0.0,0.0,0.0,0.0,0.0,0.0,0.0,0.0,0.0,0.57859236002,-9.66935634613,0.12748645246,0.0,0.0,0.0,0.0,0.0,0.0,0.0,0.0,0.0
1350209500,168762,1644542389764671087,1,0.0,0.0,0.0,0.0,0.0,0.0,0.0,0.0,0.0,0.0,0.0,0.0,0.0,0.0,0.0,0.0,0.0,0.0,0.0,0.0,0.0,0.0,0.0,0.0,0.0,0.57859236002,-9.66935634613,0.137293100357,0.0,0.0,0.0,0.0,0.0,0.0,0.0,0.0,0.0
1351750900,168763,1644542389766685247,1,0.0,0.0,0.0,0.0,0.0,0.0,0.0,0.0,0.0,0.0,0.0,0.0,0.0,0.0,0.0,0.0,0.0,0.0,0.0,0.0,0.0,0.0,0.0,0.0,0.0,0.637432217598,-9.67916297913,0.225552946329,0.0,0.0,0.0,0.0,0.0,0.0,0.0,0.0,0.0
1354106000,168764,1644542389768699408,1,0.0,0.0,0.0,0.0,0.0,0.0,0.0,0.0,0.0,0.0,0.0,0.0,0.0,0.0,0.0,0.0,0.0,0.0,0.0,0.0,0.0,0.0,0.0,0.0,0.0,0.637432217598,-9.67916297913,0.264779537916,0.0,0.0,0.0,0.0,0.0,0.0,0.0,0.0,0.0
1355656900,168765,1644542389770715237,1,0.0,0.0,0.0,0.0,0.0,0.0,0.0,0.0,0.0,0.0,0.0,0.0,0.0,0.0,0.0,0.0,0.0,0.0,0.0,0.0,0.0,0.0,0.0,0.0,0.0,0.637432217598,-9.75761604309,0.245166242123,0.0,0.0,0.0,0.0,0.0,0.0,0.0,0.0,0.0
1357640600,168766,1644542389772729397,1,0.0,0.0,0.0,0.0,0.0,0.0,0.0,0.0,0.0,0.0,0.0,0.0,0.0,0.0,0.0,0.0,0.0,0.0,0.0,0.0,0.0,0.0,0.0,0.0,0.0,0.686465501785,-9.75761604309,0.313812792301,0.0,0.0,0.0,0.0,0.0,0.0,0.0,0.0,0.0
1359657400,168767,1644542389774743319,1,0.0,0.0,0.0,0.0,0.0,0.0,0.0,0.0,0.0,0.0,0.0,0.0,0.0,0.0,0.0,0.0,0.0,0.0,0.0,0.0,0.0,0.0,0.0,0.0,0.0,0.637432217598,-9.67916297913,0.362846046686,0.0,0.0,0.0,0.0,0.0,0.0,0.0,0.0,0.0
1361588600,168768,1644542389776757479,1,0.0,0.0,0.0,0.0,0.0,0.0,0.0,0.0,0.0,0.0,0.0,0.0,0.0,0.0,0.0,0.0,0.0,0.0,0.0,0.0,0.0,0.0,0.0,0.0,0.0,0.598205626011,-9.70858287811,0.343232750893,0.0,0.0,0.0,0.0,0.0,0.0,0.0,0.0,0.0
1363592900,168769,1644542389778773785,1,0.0,0.0,0.0,0.0,0.0,0.0,0.0,0.0,0.0,0.0,0.0,0.0,0.0,0.0,0.0,0.0,0.0,0.0,0.0,0.0,0.0,0.0,0.0,0.0,0.0,0.598205626011,-9.67916297913,0.225552946329,0.0,0.0,0.0,0.0,0.0,0.0,0.0,0.0,0.0
1365556800,168770,1644542389780787706,1,0.0,0.0,0.0,0.0,0.0,0.0,0.0,0.0,0.0,0.0,0.0,0.0,0.0,0.0,0.0,0.0,0.0,0.0,0.0,0.0,0.0,0.0,0.0,0.0,0.0,0.57859236002,-9.62032318115,0.0980664938688,0.0,0.0,0.0,0.0,0.0,0.0,0.0,0.0,0.0
1367684200,168771,1644542389782801867,1,0.0,0.0,0.0,0.0,0.0,0.0,0.0,0.0,0.0,0.0,0.0,0.0,0.0,0.0,0.0,0.0,0.0,0.0,0.0,0.0,0.0,0.0,0.0,0.0,0.0,0.549172401428,-9.61051654816,0.0980664938688,0.0,0.0,0.0,0.0,0.0,0.0,0.0,0.0,0.0
1369667900,168772,1644542389784815788,1,0.0,0.0,0.0,0.0,0.0,0.0,0.0,0.0,0.0,0.0,0.0,0.0,0.0,0.0,0.0,0.0,0.0,0.0,0.0,0.0,0.0,0.0,0.0,0.0,0.0,0.490332484245,-9.58109664917,0.0392265990376,0.0,0.0,0.0,0.0,0.0,0.0,0.0,0.0,0.0
1371930800,168773,1644542389786829948,1,0.0,0.0,0.0,0.0,0.0,0.0,0.0,0.0,0.0,0.0,0.0,0.0,0.0,0.0,0.0,0.0,0.0,0.0,0.0,0.0,0.0,0.0,0.0,0.0,0.0,0.470719188452,-9.56148338318,0.00980664975941,0.0,0.0,0.0,0.0,0.0,0.0,0.0,0.0,0.0
1373830800,168774,1644542389788844109,1,0.0,0.0,0.0,0.0,0.0,0.0,0.0,0.0,0.0,0.0,0.0,0.0,0.0,0.0,0.0,0.0,0.0,0.0,0.0,0.0,0.0,0.0,0.0,0.0,0.0,0.490332484245,-9.56148338318,0.00980664975941,0.0,0.0,0.0,0.0,0.0,0.0,0.0,0.0,0.0
1375984400,168775,1644542389790859938,1,0.0,0.0,0.0,0.0,0.0,0.0,0.0,0.0,0.0,0.0,0.0,0.0,0.0,0.0,0.0,0.0,0.0,0.0,0.0,0.0,0.0,0.0,0.0,0.0,0.0,0.490332484245,-9.57129001617,0.00980664975941,0.0,0.0,0.0,0.0,0.0,0.0,0.0,0.0,0.0
1377834700,168776,1644542389792874098,1,0.0,0.0,0.0,0.0,0.0,0.0,0.0,0.0,0.0,0.0,0.0,0.0,0.0,0.0,0.0,0.0,0.0,0.0,0.0,0.0,0.0,0.0,0.0,0.0,0.0,0.470719188452,-9.57129001617,-0.0294199492782,0.0,0.0,0.0,0.0,0.0,0.0,0.0,0.0,0.0
1379783400,168777,1644542389794888020,1,0.0,0.0,0.0,0.0,0.0,0.0,0.0,0.0,0.0,0.0,0.0,0.0,0.0,0.0,0.0,0.0,0.0,0.0,0.0,0.0,0.0,0.0,0.0,0.0,0.0,0.490332484245,-9.48303031921,-0.0980664938688,0.0,0.0,0.0,0.0,0.0,0.0,0.0,0.0,0.0
1381766600,168778,1644542389796902180,1,0.0,0.0,0.0,0.0,0.0,0.0,0.0,0.0,0.0,0.0,0.0,0.0,0.0,0.0,0.0,0.0,0.0,0.0,0.0,0.0,0.0,0.0,0.0,0.0,0.0,0.451105892658,-9.53206348419,-0.0980664938688,0.0,0.0,0.0,0.0,0.0,0.0,0.0,0.0,0.0
1383724200,168779,1644542389798916340,1,0.0,0.0,0.0,0.0,0.0,0.0,0.0,0.0,0.0,0.0,0.0,0.0,0.0,0.0,0.0,0.0,0.0,0.0,0.0,0.0,0.0,0.0,0.0,0.0,0.0,0.470719188452,-9.49283695221,-0.12748645246,0.0,0.0,0.0,0.0,0.0,0.0,0.0,0.0,0.0
1385756400,168780,1644542389800932169,1,0.0,0.0,0.0,0.0,0.0,0.0,0.0,0.0,0.0,0.0,0.0,0.0,0.0,0.0,0.0,0.0,0.0,0.0,0.0,0.0,0.0,0.0,0.0,0.0,0.0,0.509945809841,-9.56148338318,-0.12748645246,0.0,0.0,0.0,0.0,0.0,0.0,0.0,0.0,0.0
1387734000,168781,1644542389802946329,1,0.0,0.0,0.0,0.0,0.0,0.0,0.0,0.0,0.0,0.0,0.0,0.0,0.0,0.0,0.0,0.0,0.0,0.0,0.0,0.0,0.0,0.0,0.0,0.0,0.0,0.509945809841,-9.56148338318,-0.137293100357,0.0,0.0,0.0,0.0,0.0,0.0,0.0,0.0,0.0
1389829500,168782,1644542389804960489,1,0.0,0.0,0.0,0.0,0.0,0.0,0.0,0.0,0.0,0.0,0.0,0.0,0.0,0.0,0.0,0.0,0.0,0.0,0.0,0.0,0.0,0.0,0.0,0.0,0.0,0.509945809841,-9.5222568512,-0.137293100357,0.0,0.0,0.0,0.0,0.0,0.0,0.0,0.0,0.0
1391950400,168783,1644542389806976318,1,0.0,0.0,0.0,0.0,0.0,0.0,0.0,0.0,0.0,0.0,0.0,0.0,0.0,0.0,0.0,0.0,0.0,0.0,0.0,0.0,0.0,0.0,0.0,0.0,0.0,0.470719188452,-9.5222568512,-0.12748645246,0.0,0.0,0.0,0.0,0.0,0.0,0.0,0.0,0.0
1393937100,168784,1644542389808990479,1,0.0,0.0,0.0,0.0,0.0,0.0,0.0,0.0,0.0,0.0,0.0,0.0,0.0,0.0,0.0,0.0,0.0,0.0,0.0,0.0,0.0,0.0,0.0,0.0,0.0,0.529559075832,-9.5222568512,-0.12748645246,0.0,0.0,0.0,0.0,0.0,0.0,0.0,0.0,0.0
1395809100,168785,1644542389811004400,1,0.0,0.0,0.0,0.0,0.0,0.0,0.0,0.0,0.0,0.0,0.0,0.0,0.0,0.0,0.0,0.0,0.0,0.0,0.0,0.0,0.0,0.0,0.0,0.0,0.0,0.490332484245,-9.57129001617,-0.0686465501785,0.0,0.0,0.0,0.0,0.0,0.0,0.0,0.0,0.0
1397870500,168786,1644542389813018560,1,0.0,0.0,0.0,0.0,0.0,0.0,0.0,0.0,0.0,0.0,0.0,0.0,0.0,0.0,0.0,0.0,0.0,0.0,0.0,0.0,0.0,0.0,0.0,0.0,0.0,0.529559075832,-9.58109664917,-0.0784531980753,0.0,0.0,0.0,0.0,0.0,0.0,0.0,0.0,0.0
1399912000,168787,1644542389815034628,1,0.0,0.0,0.0,0.0,0.0,0.0,0.0,0.0,0.0,0.0,0.0,0.0,0.0,0.0,0.0,0.0,0.0,0.0,0.0,0.0,0.0,0.0,0.0,0.0,0.0,0.558979034424,-9.57129001617,-0.0392265990376,0.0,0.0,0.0,0.0,0.0,0.0,0.0,0.0,0.0
1401894000,168788,1644542389817048550,1,0.0,0.0,0.0,0.0,0.0,0.0,0.0,0.0,0.0,0.0,0.0,0.0,0.0,0.0,0.0,0.0,0.0,0.0,0.0,0.0,0.0,0.0,0.0,0.0,0.0,0.558979034424,-9.58109664917,-0.0294199492782,0.0,0.0,0.0,0.0,0.0,0.0,0.0,0.0,0.0
1404180700,168789,1644542389819064617,1,0.0,0.0,0.0,0.0,0.0,0.0,0.0,0.0,0.0,0.0,0.0,0.0,0.0,0.0,0.0,0.0,0.0,0.0,0.0,0.0,0.0,0.0,0.0,0.0,0.0,0.57859236002,-9.57129001617,0.00980664975941,0.0,0.0,0.0,0.0,0.0,0.0,0.0,0.0,0.0
1406115900,168790,1644542389821078777,1,0.0,0.0,0.0,0.0,0.0,0.0,0.0,0.0,0.0,0.0,0.0,0.0,0.0,0.0,0.0,0.0,0.0,0.0,0.0,0.0,0.0,0.0,0.0,0.0,0.0,0.558979034424,-9.56148338318,0.0686465501785,0.0,0.0,0.0,0.0,0.0,0.0,0.0,0.0,0.0
1408045800,168791,1644542389823092699,1,0.0,0.0,0.0,0.0,0.0,0.0,0.0,0.0,0.0,0.0,0.0,0.0,0.0,0.0,0.0,0.0,0.0,0.0,0.0,0.0,0.0,0.0,0.0,0.0,0.0,0.549172401428,-9.62032318115,0.166713044047,0.0,0.0,0.0,0.0,0.0,0.0,0.0,0.0,0.0
1410000800,168792,1644542389825106859,1,0.0,0.0,0.0,0.0,0.0,0.0,0.0,0.0,0.0,0.0,0.0,0.0,0.0,0.0,0.0,0.0,0.0,0.0,0.0,0.0,0.0,0.0,0.0,0.0,0.0,0.57859236002,-9.62032318115,0.362846046686,0.0,0.0,0.0,0.0,0.0,0.0,0.0,0.0,0.0
1412072600,168793,1644542389827123165,1,0.0,0.0,0.0,0.0,0.0,0.0,0.0,0.0,0.0,0.0,0.0,0.0,0.0,0.0,0.0,0.0,0.0,0.0,0.0,0.0,0.0,0.0,0.0,0.0,0.0,0.627625584602,-9.70858287811,0.470719188452,0.0,0.0,0.0,0.0,0.0,0.0,0.0,0.0,0.0
1414207900,168794,1644542389829136848,1,0.0,0.0,0.0,0.0,0.0,0.0,0.0,0.0,0.0,0.0,0.0,0.0,0.0,0.0,0.0,0.0,0.0,0.0,0.0,0.0,0.0,0.0,0.0,0.0,0.0,0.57859236002,-9.67916297913,0.490332484245,0.0,0.0,0.0,0.0,0.0,0.0,0.0,0.0,0.0
1416185700,168795,1644542389831151009,1,0.0,0.0,0.0,0.0,0.0,0.0,0.0,0.0,0.0,0.0,0.0,0.0,0.0,0.0,0.0,0.0,0.0,0.0,0.0,0.0,0.0,0.0,0.0,0.0,0.0,0.57859236002,-9.62032318115,0.470719188452,0.0,0.0,0.0,0.0,0.0,0.0,0.0,0.0,0.0
1418072500,168796,1644542389833167076,1,0.0,0.0,0.0,0.0,0.0,0.0,0.0,0.0,0.0,0.0,0.0,0.0,0.0,0.0,0.0,0.0,0.0,0.0,0.0,0.0,0.0,0.0,0.0,0.0,0.0,0.558979034424,-9.64974308014,0.470719188452,0.0,0.0,0.0,0.0,0.0,0.0,0.0,0.0,0.0
1420131100,168797,1644542389835181236,1,0.0,0.0,0.0,0.0,0.0,0.0,0.0,0.0,0.0,0.0,0.0,0.0,0.0,0.0,0.0,0.0,0.0,0.0,0.0,0.0,0.0,0.0,0.0,0.0,0.0,0.549172401428,-9.70858287811,0.509945809841,0.0,0.0,0.0,0.0,0.0,0.0,0.0,0.0,0.0
1422193000,168798,1644542389837195396,1,0.0,0.0,0.0,0.0,0.0,0.0,0.0,0.0,0.0,0.0,0.0,0.0,0.0,0.0,0.0,0.0,0.0,0.0,0.0,0.0,0.0,0.0,0.0,0.0,0.0,0.529559075832,-9.66935634613,0.451105892658,0.0,0.0,0.0,0.0,0.0,0.0,0.0,0.0,0.0
1424079700,168799,1644542389839209318,1,0.0,0.0,0.0,0.0,0.0,0.0,0.0,0.0,0.0,0.0,0.0,0.0,0.0,0.0,0.0,0.0,0.0,0.0,0.0,0.0,0.0,0.0,0.0,0.0,0.0,0.490332484245,-9.58109664917,0.264779537916,0.0,0.0,0.0,0.0,0.0,0.0,0.0,0.0,0.0
1426234300,168800,1644542389841223478,1,0.0,0.0,0.0,0.0,0.0,0.0,0.0,0.0,0.0,0.0,0.0,0.0,0.0,0.0,0.0,0.0,0.0,0.0,0.0,0.0,0.0,0.0,0.0,0.0,0.0,0.549172401428,-9.42419052124,-0.166713044047,0.0,0.0,0.0,0.0,0.0,0.0,0.0,0.0,0.0
1428228700,168801,1644542389843237400,1,0.0,0.0,0.0,0.0,0.0,0.0,0.0,0.0,0.0,0.0,0.0,0.0,0.0,0.0,0.0,0.0,0.0,0.0,0.0,0.0,0.0,0.0,0.0,0.0,0.0,0.57859236002,-9.98316955566,0.137293100357,0.0,0.0,0.0,0.0,0.0,0.0,0.0,0.0,0.0
1430359700,168802,1644542389845253468,1,0.0,0.0,0.0,0.0,0.0,0.0,0.0,0.0,0.0,0.0,0.0,0.0,0.0,0.0,0.0,0.0,0.0,0.0,0.0,0.0,0.0,0.0,0.0,0.0,0.0,0.961051702499,-11.1697740555,4.26589250565,0.0,0.0,0.0,0.0,0.0,0.0,0.0,0.0,0.0
1432680800,168803,1644542389847265482,1,0.0,0.0,0.0,0.0,0.0,0.0,0.0,0.0,0.0,0.0,0.0,0.0,0.0,0.0,0.0,0.0,0.0,0.0,0.0,0.0,0.0,0.0,0.0,0.0,0.0,1.61809718609,-8.92405128479,-1.47099745274,0.0,0.0,0.0,0.0,0.0,0.0,0.0,0.0,0.0
1434133200,168804,1644542389849281549,1,0.0,0.0,0.0,0.0,0.0,0.0,0.0,0.0,0.0,0.0,0.0,0.0,0.0,0.0,0.0,0.0,0.0,0.0,0.0,0.0,0.0,0.0,0.0,0.0,0.0,0.196132987738,-9.86548995972,0.735498726368,0.0,0.0,0.0,0.0,0.0,0.0,0.0,0.0,0.0
1436075900,168805,1644542389851295710,1,0.0,0.0,0.0,0.0,0.0,0.0,0.0,0.0,0.0,0.0,0.0,0.0,0.0,0.0,0.0,0.0,0.0,0.0,0.0,0.0,0.0,0.0,0.0,0.0,0.0,0.951245009899,-9.86548995972,0.549172401428,0.0,0.0,0.0,0.0,0.0,0.0,0.0,0.0,0.0
1438228000,168806,1644542389853311777,1,0.0,0.0,0.0,0.0,0.0,0.0,0.0,0.0,0.0,0.0,0.0,0.0,0.0,0.0,0.0,0.0,0.0,0.0,0.0,0.0,0.0,0.0,0.0,0.0,0.0,0.421685934067,-9.48303031921,0.294199496508,0.0,0.0,0.0,0.0,0.0,0.0,0.0,0.0,0.0
1440422700,168807,1644542389855325699,1,0.0,0.0,0.0,0.0,0.0,0.0,0.0,0.0,0.0,0.0,0.0,0.0,0.0,0.0,0.0,0.0,0.0,0.0,0.0,0.0,0.0,0.0,0.0,0.0,0.0,0.735498726368,-9.78703689575,0.470719188452,0.0,0.0,0.0,0.0,0.0,0.0,0.0,0.0,0.0
1442304100,168808,1644542389857341766,1,0.0,0.0,0.0,0.0,0.0,0.0,0.0,0.0,0.0,0.0,0.0,0.0,0.0,0.0,0.0,0.0,0.0,0.0,0.0,0.0,0.0,0.0,0.0,0.0,0.0,0.470719188452,-9.57129001617,0.274586200714,0.0,0.0,0.0,0.0,0.0,0.0,0.0,0.0,0.0
1444324900,168809,1644542389859355927,1,0.0,0.0,0.0,0.0,0.0,0.0,0.0,0.0,0.0,0.0,0.0,0.0,0.0,0.0,0.0,0.0,0.0,0.0,0.0,0.0,0.0,0.0,0.0,0.0,0.0,0.598205626011,-9.70858287811,0.402072638273,0.0,0.0,0.0,0.0,0.0,0.0,0.0,0.0,0.0
1446394900,168810,1644542389861369848,1,0.0,0.0,0.0,0.0,0.0,0.0,0.0,0.0,0.0,0.0,0.0,0.0,0.0,0.0,0.0,0.0,0.0,0.0,0.0,0.0,0.0,0.0,0.0,0.0,0.0,0.490332484245,-9.49283695221,0.343232750893,0.0,0.0,0.0,0.0,0.0,0.0,0.0,0.0,0.0
1448410900,168811,1644542389863384008,1,0.0,0.0,0.0,0.0,0.0,0.0,0.0,0.0,0.0,0.0,0.0,0.0,0.0,0.0,0.0,0.0,0.0,0.0,0.0,0.0,0.0,0.0,0.0,0.0,0.0,0.57859236002,-9.7478094101,0.274586200714,0.0,0.0,0.0,0.0,0.0,0.0,0.0,0.0,0.0
1450555900,168812,1644542389865397930,1,0.0,0.0,0.0,0.0,0.0,0.0,0.0,0.0,0.0,0.0,0.0,0.0,0.0,0.0,0.0,0.0,0.0,0.0,0.0,0.0,0.0,0.0,0.0,0.0,0.0,0.451105892658,-9.58109664917,0.549172401428,0.0,0.0,0.0,0.0,0.0,0.0,0.0,0.0,0.0
1452375700,168813,1644542389867413998,1,0.0,0.0,0.0,0.0,0.0,0.0,0.0,0.0,0.0,0.0,0.0,0.0,0.0,0.0,0.0,0.0,0.0,0.0,0.0,0.0,0.0,0.0,0.0,0.0,0.0,0.666852176189,-9.64974308014,0.38245934248,0.0,0.0,0.0,0.0,0.0,0.0,0.0,0.0,0.0
1454470100,168814,1644542389869428158,1,0.0,0.0,0.0,0.0,0.0,0.0,0.0,0.0,0.0,0.0,0.0,0.0,0.0,0.0,0.0,0.0,0.0,0.0,0.0,0.0,0.0,0.0,0.0,0.0,0.0,0.470719188452,-9.62032318115,0.490332484245,0.0,0.0,0.0,0.0,0.0,0.0,0.0,0.0,0.0
1456440500,168815,1644542389871442080,1,0.0,0.0,0.0,0.0,0.0,0.0,0.0,0.0,0.0,0.0,0.0,0.0,0.0,0.0,0.0,0.0,0.0,0.0,0.0,0.0,0.0,0.0,0.0,0.0,0.0,0.558979034424,-9.64974308014,0.274586200714,0.0,0.0,0.0,0.0,0.0,0.0,0.0,0.0,0.0
1458303600,168816,1644542389873456240,1,0.0,0.0,0.0,0.0,0.0,0.0,0.0,0.0,0.0,0.0,0.0,0.0,0.0,0.0,0.0,0.0,0.0,0.0,0.0,0.0,0.0,0.0,0.0,0.0,0.0,0.725692093372,-9.67916297913,0.0,0.0,0.0,0.0,0.0,0.0,0.0,0.0,0.0,0.0
1460309000,168817,1644542389875470161,1,0.0,0.0,0.0,0.0,0.0,0.0,0.0,0.0,0.0,0.0,0.0,0.0,0.0,0.0,0.0,0.0,0.0,0.0,0.0,0.0,0.0,0.0,0.0,0.0,0.0,0.764918684959,-9.58109664917,-0.274586200714,0.0,0.0,0.0,0.0,0.0,0.0,0.0,0.0,0.0
1462472300,168818,1644542389877484322,1,0.0,0.0,0.0,0.0,0.0,0.0,0.0,0.0,0.0,0.0,0.0,0.0,0.0,0.0,0.0,0.0,0.0,0.0,0.0,0.0,0.0,0.0,0.0,0.0,0.0,0.666852176189,-9.70858287811,-0.362846046686,0.0,0.0,0.0,0.0,0.0,0.0,0.0,0.0,0.0
1464329300,168819,1644542389879500389,1,0.0,0.0,0.0,0.0,0.0,0.0,0.0,0.0,0.0,0.0,0.0,0.0,0.0,0.0,0.0,0.0,0.0,0.0,0.0,0.0,0.0,0.0,0.0,0.0,0.0,0.833565235138,-9.56148338318,-0.451105892658,0.0,0.0,0.0,0.0,0.0,0.0,0.0,0.0,0.0
1466284300,168820,1644542389881514311,1,0.0,0.0,0.0,0.0,0.0,0.0,0.0,0.0,0.0,0.0,0.0,0.0,0.0,0.0,0.0,0.0,0.0,0.0,0.0,0.0,0.0,0.0,0.0,0.0,0.0,0.813951909542,-9.67916297913,-0.38245934248,0.0,0.0,0.0,0.0,0.0,0.0,0.0,0.0,0.0
1468465400,168821,1644542389883528471,1,0.0,0.0,0.0,0.0,0.0,0.0,0.0,0.0,0.0,0.0,0.0,0.0,0.0,0.0,0.0,0.0,0.0,0.0,0.0,0.0,0.0,0.0,0.0,0.0,0.0,0.774725317955,-9.64974308014,-0.274586200714,0.0,0.0,0.0,0.0,0.0,0.0,0.0,0.0,0.0
1470340400,168822,1644542389885544777,1,0.0,0.0,0.0,0.0,0.0,0.0,0.0,0.0,0.0,0.0,0.0,0.0,0.0,0.0,0.0,0.0,0.0,0.0,0.0,0.0,0.0,0.0,0.0,0.0,0.0,0.696272134781,-9.57129001617,-0.12748645246,0.0,0.0,0.0,0.0,0.0,0.0,0.0,0.0,0.0
1472467000,168823,1644542389887558699,1,0.0,0.0,0.0,0.0,0.0,0.0,0.0,0.0,0.0,0.0,0.0,0.0,0.0,0.0,0.0,0.0,0.0,0.0,0.0,0.0,0.0,0.0,0.0,0.0,0.0,0.735498726368,-9.62032318115,-0.00980664975941,0.0,0.0,0.0,0.0,0.0,0.0,0.0,0.0,0.0
1474550400,168824,1644542389889574766,1,0.0,0.0,0.0,0.0,0.0,0.0,0.0,0.0,0.0,0.0,0.0,0.0,0.0,0.0,0.0,0.0,0.0,0.0,0.0,0.0,0.0,0.0,0.0,0.0,0.0,0.57859236002,-9.58109664917,0.166713044047,0.0,0.0,0.0,0.0,0.0,0.0,0.0,0.0,0.0
1476673600,168825,1644542389891588926,1,0.0,0.0,0.0,0.0,0.0,0.0,0.0,0.0,0.0,0.0,0.0,0.0,0.0,0.0,0.0,0.0,0.0,0.0,0.0,0.0,0.0,0.0,0.0,0.0,0.0,0.490332484245,-9.64974308014,0.402072638273,0.0,0.0,0.0,0.0,0.0,0.0,0.0,0.0,0.0
1478710100,168826,1644542389893604755,1,0.0,0.0,0.0,0.0,0.0,0.0,0.0,0.0,0.0,0.0,0.0,0.0,0.0,0.0,0.0,0.0,0.0,0.0,0.0,0.0,0.0,0.0,0.0,0.0,0.0,0.529559075832,-9.57129001617,0.421685934067,0.0,0.0,0.0,0.0,0.0,0.0,0.0,0.0,0.0
1480661500,168827,1644542389895618916,1,0.0,0.0,0.0,0.0,0.0,0.0,0.0,0.0,0.0,0.0,0.0,0.0,0.0,0.0,0.0,0.0,0.0,0.0,0.0,0.0,0.0,0.0,0.0,0.0,0.0,0.549172401428,-9.61051654816,0.529559075832,0.0,0.0,0.0,0.0,0.0,0.0,0.0,0.0,0.0
1482567600,168828,1644542389897633076,1,0.0,0.0,0.0,0.0,0.0,0.0,0.0,0.0,0.0,0.0,0.0,0.0,0.0,0.0,0.0,0.0,0.0,0.0,0.0,0.0,0.0,0.0,0.0,0.0,0.0,0.470719188452,-9.61051654816,0.549172401428,0.0,0.0,0.0,0.0,0.0,0.0,0.0,0.0,0.0
1485143300,168829,1644542389899648905,1,0.0,0.0,0.0,0.0,0.0,0.0,0.0,0.0,0.0,0.0,0.0,0.0,0.0,0.0,0.0,0.0,0.0,0.0,0.0,0.0,0.0,0.0,0.0,0.0,0.0,0.490332484245,-9.57129001617,0.598205626011,0.0,0.0,0.0,0.0,0.0,0.0,0.0,0.0,0.0
1487041700,168830,1644542389901663065,1,0.0,0.0,0.0,0.0,0.0,0.0,0.0,0.0,0.0,0.0,0.0,0.0,0.0,0.0,0.0,0.0,0.0,0.0,0.0,0.0,0.0,0.0,0.0,0.0,0.0,0.490332484245,-9.62032318115,0.666852176189,0.0,0.0,0.0,0.0,0.0,0.0,0.0,0.0,0.0
1488723100,168831,1644542389903676987,1,0.0,0.0,0.0,0.0,0.0,0.0,0.0,0.0,0.0,0.0,0.0,0.0,0.0,0.0,0.0,0.0,0.0,0.0,0.0,0.0,0.0,0.0,0.0,0.0,0.0,0.509945809841,-9.58109664917,0.558979034424,0.0,0.0,0.0,0.0,0.0,0.0,0.0,0.0,0.0
1490695400,168832,1644542389905691147,1,0.0,0.0,0.0,0.0,0.0,0.0,0.0,0.0,0.0,0.0,0.0,0.0,0.0,0.0,0.0,0.0,0.0,0.0,0.0,0.0,0.0,0.0,0.0,0.0,0.0,0.470719188452,-9.62032318115,0.549172401428,0.0,0.0,0.0,0.0,0.0,0.0,0.0,0.0,0.0
1492633000,168833,1644542389907707214,1,0.0,0.0,0.0,0.0,0.0,0.0,0.0,0.0,0.0,0.0,0.0,0.0,0.0,0.0,0.0,0.0,0.0,0.0,0.0,0.0,0.0,0.0,0.0,0.0,0.0,0.529559075832,-9.57129001617,0.470719188452,0.0,0.0,0.0,0.0,0.0,0.0,0.0,0.0,0.0
1494660400,168834,1644542389909721136,1,0.0,0.0,0.0,0.0,0.0,0.0,0.0,0.0,0.0,0.0,0.0,0.0,0.0,0.0,0.0,0.0,0.0,0.0,0.0,0.0,0.0,0.0,0.0,0.0,0.0,0.529559075832,-9.61051654816,0.509945809841,0.0,0.0,0.0,0.0,0.0,0.0,0.0,0.0,0.0
1496807100,168835,1644542389911735296,1,0.0,0.0,0.0,0.0,0.0,0.0,0.0,0.0,0.0,0.0,0.0,0.0,0.0,0.0,0.0,0.0,0.0,0.0,0.0,0.0,0.0,0.0,0.0,0.0,0.0,0.470719188452,-9.61051654816,0.421685934067,0.0,0.0,0.0,0.0,0.0,0.0,0.0,0.0,0.0
1498611300,168836,1644542389913749456,1,0.0,0.0,0.0,0.0,0.0,0.0,0.0,0.0,0.0,0.0,0.0,0.0,0.0,0.0,0.0,0.0,0.0,0.0,0.0,0.0,0.0,0.0,0.0,0.0,0.0,0.490332484245,-9.62032318115,0.509945809841,0.0,0.0,0.0,0.0,0.0,0.0,0.0,0.0,0.0
1500568100,168837,1644542389915763378,1,0.0,0.0,0.0,0.0,0.0,0.0,0.0,0.0,0.0,0.0,0.0,0.0,0.0,0.0,0.0,0.0,0.0,0.0,0.0,0.0,0.0,0.0,0.0,0.0,0.0,0.509945809841,-9.57129001617,0.549172401428,0.0,0.0,0.0,0.0,0.0,0.0,0.0,0.0,0.0
1502545700,168838,1644542389917779446,1,0.0,0.0,0.0,0.0,0.0,0.0,0.0,0.0,0.0,0.0,0.0,0.0,0.0,0.0,0.0,0.0,0.0,0.0,0.0,0.0,0.0,0.0,0.0,0.0,0.0,0.509945809841,-9.57129001617,0.402072638273,0.0,0.0,0.0,0.0,0.0,0.0,0.0,0.0,0.0
1504948600,168839,1644542389919793606,1,0.0,0.0,0.0,0.0,0.0,0.0,0.0,0.0,0.0,0.0,0.0,0.0,0.0,0.0,0.0,0.0,0.0,0.0,0.0,0.0,0.0,0.0,0.0,0.0,0.0,0.549172401428,-9.62032318115,0.362846046686,0.0,0.0,0.0,0.0,0.0,0.0,0.0,0.0,0.0
1507024100,168840,1644542389921807528,1,0.0,0.0,0.0,0.0,0.0,0.0,0.0,0.0,0.0,0.0,0.0,0.0,0.0,0.0,0.0,0.0,0.0,0.0,0.0,0.0,0.0,0.0,0.0,0.0,0.0,0.558979034424,-9.61051654816,0.421685934067,0.0,0.0,0.0,0.0,0.0,0.0,0.0,0.0,0.0
1508782500,168841,1644542389923821688,1,0.0,0.0,0.0,0.0,0.0,0.0,0.0,0.0,0.0,0.0,0.0,0.0,0.0,0.0,0.0,0.0,0.0,0.0,0.0,0.0,0.0,0.0,0.0,0.0,0.0,0.529559075832,-9.62032318115,0.451105892658,0.0,0.0,0.0,0.0,0.0,0.0,0.0,0.0,0.0
1510889900,168842,1644542389925837994,1,0.0,0.0,0.0,0.0,0.0,0.0,0.0,0.0,0.0,0.0,0.0,0.0,0.0,0.0,0.0,0.0,0.0,0.0,0.0,0.0,0.0,0.0,0.0,0.0,0.0,0.558979034424,-9.64974308014,0.421685934067,0.0,0.0,0.0,0.0,0.0,0.0,0.0,0.0,0.0
1512821800,168843,1644542389927851915,1,0.0,0.0,0.0,0.0,0.0,0.0,0.0,0.0,0.0,0.0,0.0,0.0,0.0,0.0,0.0,0.0,0.0,0.0,0.0,0.0,0.0,0.0,0.0,0.0,0.0,0.509945809841,-9.62032318115,0.402072638273,0.0,0.0,0.0,0.0,0.0,0.0,0.0,0.0,0.0
1515162400,168844,1644542389929866076,1,0.0,0.0,0.0,0.0,0.0,0.0,0.0,0.0,0.0,0.0,0.0,0.0,0.0,0.0,0.0,0.0,0.0,0.0,0.0,0.0,0.0,0.0,0.0,0.0,0.0,0.598205626011,-9.64974308014,0.402072638273,0.0,0.0,0.0,0.0,0.0,0.0,0.0,0.0,0.0
1517444500,168845,1644542389931879997,1,0.0,0.0,0.0,0.0,0.0,0.0,0.0,0.0,0.0,0.0,0.0,0.0,0.0,0.0,0.0,0.0,0.0,0.0,0.0,0.0,0.0,0.0,0.0,0.0,0.0,0.529559075832,-9.66935634613,0.313812792301,0.0,0.0,0.0,0.0,0.0,0.0,0.0,0.0,0.0
1519384000,168846,1644542389933896065,1,0.0,0.0,0.0,0.0,0.0,0.0,0.0,0.0,0.0,0.0,0.0,0.0,0.0,0.0,0.0,0.0,0.0,0.0,0.0,0.0,0.0,0.0,0.0,0.0,0.0,0.558979034424,-9.61051654816,0.402072638273,0.0,0.0,0.0,0.0,0.0,0.0,0.0,0.0,0.0
1520885000,168847,1644542389935910225,1,0.0,0.0,0.0,0.0,0.0,0.0,0.0,0.0,0.0,0.0,0.0,0.0,0.0,0.0,0.0,0.0,0.0,0.0,0.0,0.0,0.0,0.0,0.0,0.0,0.0,0.558979034424,-9.64974308014,0.38245934248,0.0,0.0,0.0,0.0,0.0,0.0,0.0,0.0,0.0
1522817100,168848,1644542389937924147,1,0.0,0.0,0.0,0.0,0.0,0.0,0.0,0.0,0.0,0.0,0.0,0.0,0.0,0.0,0.0,0.0,0.0,0.0,0.0,0.0,0.0,0.0,0.0,0.0,0.0,0.558979034424,-9.62032318115,0.362846046686,0.0,0.0,0.0,0.0,0.0,0.0,0.0,0.0,0.0
1524990000,168849,1644542389939940214,1,0.0,0.0,0.0,0.0,0.0,0.0,0.0,0.0,0.0,0.0,0.0,0.0,0.0,0.0,0.0,0.0,0.0,0.0,0.0,0.0,0.0,0.0,0.0,0.0,0.0,0.598205626011,-9.58109664917,0.402072638273,0.0,0.0,0.0,0.0,0.0,0.0,0.0,0.0,0.0
1526963300,168850,1644542389941954374,1,0.0,0.0,0.0,0.0,0.0,0.0,0.0,0.0,0.0,0.0,0.0,0.0,0.0,0.0,0.0,0.0,0.0,0.0,0.0,0.0,0.0,0.0,0.0,0.0,0.0,0.598205626011,-9.64974308014,0.421685934067,0.0,0.0,0.0,0.0,0.0,0.0,0.0,0.0,0.0
1528931600,168851,1644542389943968296,1,0.0,0.0,0.0,0.0,0.0,0.0,0.0,0.0,0.0,0.0,0.0,0.0,0.0,0.0,0.0,0.0,0.0,0.0,0.0,0.0,0.0,0.0,0.0,0.0,0.0,0.558979034424,-9.64974308014,0.402072638273,0.0,0.0,0.0,0.0,0.0,0.0,0.0,0.0,0.0
1530848300,168852,1644542389945982456,1,0.0,0.0,0.0,0.0,0.0,0.0,0.0,0.0,0.0,0.0,0.0,0.0,0.0,0.0,0.0,0.0,0.0,0.0,0.0,0.0,0.0,0.0,0.0,0.0,0.0,0.627625584602,-9.64974308014,0.402072638273,0.0,0.0,0.0,0.0,0.0,0.0,0.0,0.0,0.0
1532995900,168853,1644542389947998524,1,0.0,0.0,0.0,0.0,0.0,0.0,0.0,0.0,0.0,0.0,0.0,0.0,0.0,0.0,0.0,0.0,0.0,0.0,0.0,0.0,0.0,0.0,0.0,0.0,0.0,0.637432217598,-9.64974308014,0.421685934067,0.0,0.0,0.0,0.0,0.0,0.0,0.0,0.0,0.0
1534955000,168854,1644542389950012445,1,0.0,0.0,0.0,0.0,0.0,0.0,0.0,0.0,0.0,0.0,0.0,0.0,0.0,0.0,0.0,0.0,0.0,0.0,0.0,0.0,0.0,0.0,0.0,0.0,0.0,0.558979034424,-9.64974308014,0.509945809841,0.0,0.0,0.0,0.0,0.0,0.0,0.0,0.0,0.0
1536953500,168855,1644542389952026606,1,0.0,0.0,0.0,0.0,0.0,0.0,0.0,0.0,0.0,0.0,0.0,0.0,0.0,0.0,0.0,0.0,0.0,0.0,0.0,0.0,0.0,0.0,0.0,0.0,0.0,0.549172401428,-9.62032318115,0.57859236002,0.0,0.0,0.0,0.0,0.0,0.0,0.0,0.0,0.0
1538906300,168856,1644542389954040527,1,0.0,0.0,0.0,0.0,0.0,0.0,0.0,0.0,0.0,0.0,0.0,0.0,0.0,0.0,0.0,0.0,0.0,0.0,0.0,0.0,0.0,0.0,0.0,0.0,0.0,0.549172401428,-9.62032318115,0.764918684959,0.0,0.0,0.0,0.0,0.0,0.0,0.0,0.0,0.0
1540886400,168857,1644542389956054688,1,0.0,0.0,0.0,0.0,0.0,0.0,0.0,0.0,0.0,0.0,0.0,0.0,0.0,0.0,0.0,0.0,0.0,0.0,0.0,0.0,0.0,0.0,0.0,0.0,0.0,0.529559075832,-9.64974308014,0.804145276546,0.0,0.0,0.0,0.0,0.0,0.0,0.0,0.0,0.0
1542855600,168858,1644542389958070755,1,0.0,0.0,0.0,0.0,0.0,0.0,0.0,0.0,0.0,0.0,0.0,0.0,0.0,0.0,0.0,0.0,0.0,0.0,0.0,0.0,0.0,0.0,0.0,0.0,0.0,0.549172401428,-9.62032318115,0.637432217598,0.0,0.0,0.0,0.0,0.0,0.0,0.0,0.0,0.0
1545193500,168859,1644542389960084677,1,0.0,0.0,0.0,0.0,0.0,0.0,0.0,0.0,0.0,0.0,0.0,0.0,0.0,0.0,0.0,0.0,0.0,0.0,0.0,0.0,0.0,0.0,0.0,0.0,0.0,0.529559075832,-9.64974308014,0.57859236002,0.0,0.0,0.0,0.0,0.0,0.0,0.0,0.0,0.0
1547059700,168860,1644542389962098837,1,0.0,0.0,0.0,0.0,0.0,0.0,0.0,0.0,0.0,0.0,0.0,0.0,0.0,0.0,0.0,0.0,0.0,0.0,0.0,0.0,0.0,0.0,0.0,0.0,0.0,0.529559075832,-9.66935634613,0.558979034424,0.0,0.0,0.0,0.0,0.0,0.0,0.0,0.0,0.0
1549192200,168861,1644542389964114904,1,0.0,0.0,0.0,0.0,0.0,0.0,0.0,0.0,0.0,0.0,0.0,0.0,0.0,0.0,0.0,0.0,0.0,0.0,0.0,0.0,0.0,0.0,0.0,0.0,0.0,0.598205626011,-9.66935634613,0.470719188452,0.0,0.0,0.0,0.0,0.0,0.0,0.0,0.0,0.0
1551206200,168862,1644542389966128826,1,0.0,0.0,0.0,0.0,0.0,0.0,0.0,0.0,0.0,0.0,0.0,0.0,0.0,0.0,0.0,0.0,0.0,0.0,0.0,0.0,0.0,0.0,0.0,0.0,0.0,0.598205626011,-9.70858287811,0.402072638273,0.0,0.0,0.0,0.0,0.0,0.0,0.0,0.0,0.0
1553222500,168863,1644542389968142986,1,0.0,0.0,0.0,0.0,0.0,0.0,0.0,0.0,0.0,0.0,0.0,0.0,0.0,0.0,0.0,0.0,0.0,0.0,0.0,0.0,0.0,0.0,0.0,0.0,0.0,2.04958987236,-10.2675619125,-2.19668960571,0.0,0.0,0.0,0.0,0.0,0.0,0.0,0.0,0.0
1555338400,168864,1644542389970157146,1,0.0,0.0,0.0,0.0,0.0,0.0,0.0,0.0,0.0,0.0,0.0,0.0,0.0,0.0,0.0,0.0,0.0,0.0,0.0,0.0,0.0,0.0,0.0,0.0,0.0,-0.686465501785,-8.78675842285,-1.86326348782,0.0,0.0,0.0,0.0,0.0,0.0,0.0,0.0,0.0
1557098500,168865,1644542389972173214,1,0.0,0.0,0.0,0.0,0.0,0.0,0.0,0.0,0.0,0.0,0.0,0.0,0.0,0.0,0.0,0.0,0.0,0.0,0.0,0.0,0.0,0.0,0.0,0.0,0.0,1.17679798603,-10.2185287476,2.42224240303,0.0,0.0,0.0,0.0,0.0,0.0,0.0,0.0,0.0
1559117700,168866,1644542389974187374,1,0.0,0.0,0.0,0.0,0.0,0.0,0.0,0.0,0.0,0.0,0.0,0.0,0.0,0.0,0.0,0.0,0.0,0.0,0.0,0.0,0.0,0.0,0.0,0.0,0.0,0.696272134781,-9.58109664917,0.470719188452,0.0,0.0,0.0,0.0,0.0,0.0,0.0,0.0,0.0
1561119000,168867,1644542389976201534,1,0.0,0.0,0.0,0.0,0.0,0.0,0.0,0.0,0.0,0.0,0.0,0.0,0.0,0.0,0.0,0.0,0.0,0.0,0.0,0.0,0.0,0.0,0.0,0.0,0.0,0.274586200714,-9.30651092529,-0.549172401428,0.0,0.0,0.0,0.0,0.0,0.0,0.0,0.0,0.0
1563137800,168868,1644542389978217363,1,0.0,0.0,0.0,0.0,0.0,0.0,0.0,0.0,0.0,0.0,0.0,0.0,0.0,0.0,0.0,0.0,0.0,0.0,0.0,0.0,0.0,0.0,0.0,0.0,0.0,0.598205626011,-9.81645679474,0.637432217598,0.0,0.0,0.0,0.0,0.0,0.0,0.0,0.0,0.0
1565399800,168869,1644542389980231524,1,0.0,0.0,0.0,0.0,0.0,0.0,0.0,0.0,0.0,0.0,0.0,0.0,0.0,0.0,0.0,0.0,0.0,0.0,0.0,0.0,0.0,0.0,0.0,0.0,0.0,0.735498726368,-9.78703689575,0.882598459721,0.0,0.0,0.0,0.0,0.0,0.0,0.0,0.0,0.0
1567216400,168870,1644542389982245684,1,0.0,0.0,0.0,0.0,0.0,0.0,0.0,0.0,0.0,0.0,0.0,0.0,0.0,0.0,0.0,0.0,0.0,0.0,0.0,0.0,0.0,0.0,0.0,0.0,0.0,0.470719188452,-9.30651092529,-0.137293100357,0.0,0.0,0.0,0.0,0.0,0.0,0.0,0.0,0.0
1569087900,168871,1644542389984261513,1,0.0,0.0,0.0,0.0,0.0,0.0,0.0,0.0,0.0,0.0,0.0,0.0,0.0,0.0,0.0,0.0,0.0,0.0,0.0,0.0,0.0,0.0,0.0,0.0,0.0,0.627625584602,-9.78703689575,0.402072638273,0.0,0.0,0.0,0.0,0.0,0.0,0.0,0.0,0.0
1571075100,168872,1644542389986275673,1,0.0,0.0,0.0,0.0,0.0,0.0,0.0,0.0,0.0,0.0,0.0,0.0,0.0,0.0,0.0,0.0,0.0,0.0,0.0,0.0,0.0,0.0,0.0,0.0,0.0,0.558979034424,-9.64974308014,0.764918684959,0.0,0.0,0.0,0.0,0.0,0.0,0.0,0.0,0.0
1573135400,168873,1644542389988289833,1,0.0,0.0,0.0,0.0,0.0,0.0,0.0,0.0,0.0,0.0,0.0,0.0,0.0,0.0,0.0,0.0,0.0,0.0,0.0,0.0,0.0,0.0,0.0,0.0,0.0,0.804145276546,-9.53206348419,-0.421685934067,0.0,0.0,0.0,0.0,0.0,0.0,0.0,0.0,0.0
1575454400,168874,1644542389990305662,1,0.0,0.0,0.0,0.0,0.0,0.0,0.0,0.0,0.0,0.0,0.0,0.0,0.0,0.0,0.0,0.0,0.0,0.0,0.0,0.0,0.0,0.0,0.0,0.0,0.0,0.470719188452,-9.57129001617,0.38245934248,0.0,0.0,0.0,0.0,0.0,0.0,0.0,0.0,0.0
1577160500,168875,1644542389992319822,1,0.0,0.0,0.0,0.0,0.0,0.0,0.0,0.0,0.0,0.0,0.0,0.0,0.0,0.0,0.0,0.0,0.0,0.0,0.0,0.0,0.0,0.0,0.0,0.0,0.0,0.686465501785,-9.70858287811,0.0784531980753,0.0,0.0,0.0,0.0,0.0,0.0,0.0,0.0,0.0
1579088600,168876,1644542389994333982,1,0.0,0.0,0.0,0.0,0.0,0.0,0.0,0.0,0.0,0.0,0.0,0.0,0.0,0.0,0.0,0.0,0.0,0.0,0.0,0.0,0.0,0.0,0.0,0.0,0.0,0.558979034424,-9.53206348419,-0.0294199492782,0.0,0.0,0.0,0.0,0.0,0.0,0.0,0.0,0.0
1581344100,168877,1644542389996349812,1,0.0,0.0,0.0,0.0,0.0,0.0,0.0,0.0,0.0,0.0,0.0,0.0,0.0,0.0,0.0,0.0,0.0,0.0,0.0,0.0,0.0,0.0,0.0,0.0,0.0,0.627625584602,-9.61051654816,0.0392265990376,0.0,0.0,0.0,0.0,0.0,0.0,0.0,0.0,0.0
1583812700,168878,1644542389998363972,1,0.0,0.0,0.0,0.0,0.0,0.0,0.0,0.0,0.0,0.0,0.0,0.0,0.0,0.0,0.0,0.0,0.0,0.0,0.0,0.0,0.0,0.0,0.0,0.0,0.0,0.558979034424,-9.75761604309,0.0686465501785,0.0,0.0,0.0,0.0,0.0,0.0,0.0,0.0,0.0
1585504600,168879,1644542390000375986,1,0.0,0.0,0.0,0.0,0.0,0.0,0.0,0.0,0.0,0.0,0.0,0.0,0.0,0.0,0.0,0.0,0.0,0.0,0.0,0.0,0.0,0.0,0.0,0.0,0.0,0.725692093372,-9.53206348419,-0.0980664938688,0.0,0.0,0.0,0.0,0.0,0.0,0.0,0.0,0.0
1587379200,168880,1644542390002392054,1,0.0,0.0,0.0,0.0,0.0,0.0,0.0,0.0,0.0,0.0,0.0,0.0,0.0,0.0,0.0,0.0,0.0,0.0,0.0,0.0,0.0,0.0,0.0,0.0,0.0,0.764918684959,-9.66935634613,-0.245166242123,0.0,0.0,0.0,0.0,0.0,0.0,0.0,0.0,0.0
1589380400,168881,1644542390004406214,1,0.0,0.0,0.0,0.0,0.0,0.0,0.0,0.0,0.0,0.0,0.0,0.0,0.0,0.0,0.0,0.0,0.0,0.0,0.0,0.0,0.0,0.0,0.0,0.0,0.0,0.637432217598,-9.61051654816,-0.38245934248,0.0,0.0,0.0,0.0,0.0,0.0,0.0,0.0,0.0
1591438100,168882,1644542390006422281,1,0.0,0.0,0.0,0.0,0.0,0.0,0.0,0.0,0.0,0.0,0.0,0.0,0.0,0.0,0.0,0.0,0.0,0.0,0.0,0.0,0.0,0.0,0.0,0.0,0.0,0.666852176189,-9.61051654816,-0.196132987738,0.0,0.0,0.0,0.0,0.0,0.0,0.0,0.0,0.0
1593395000,168883,1644542390008436203,1,0.0,0.0,0.0,0.0,0.0,0.0,0.0,0.0,0.0,0.0,0.0,0.0,0.0,0.0,0.0,0.0,0.0,0.0,0.0,0.0,0.0,0.0,0.0,0.0,0.0,0.764918684959,-9.64974308014,-0.0294199492782,0.0,0.0,0.0,0.0,0.0,0.0,0.0,0.0,0.0
1595422700,168884,1644542390010452509,1,0.0,0.0,0.0,0.0,0.0,0.0,0.0,0.0,0.0,0.0,0.0,0.0,0.0,0.0,0.0,0.0,0.0,0.0,0.0,0.0,0.0,0.0,0.0,0.0,0.0,0.529559075832,-9.64974308014,0.12748645246,0.0,0.0,0.0,0.0,0.0,0.0,0.0,0.0,0.0
1597491200,168885,1644542390012468576,1,0.0,0.0,0.0,0.0,0.0,0.0,0.0,0.0,0.0,0.0,0.0,0.0,0.0,0.0,0.0,0.0,0.0,0.0,0.0,0.0,0.0,0.0,0.0,0.0,0.0,0.490332484245,-9.57129001617,0.176519691944,0.0,0.0,0.0,0.0,0.0,0.0,0.0,0.0,0.0
1599376700,168886,1644542390014482737,1,0.0,0.0,0.0,0.0,0.0,0.0,0.0,0.0,0.0,0.0,0.0,0.0,0.0,0.0,0.0,0.0,0.0,0.0,0.0,0.0,0.0,0.0,0.0,0.0,0.0,0.666852176189,-9.57129001617,0.264779537916,0.0,0.0,0.0,0.0,0.0,0.0,0.0,0.0,0.0
1601329800,168887,1644542390016496658,1,0.0,0.0,0.0,0.0,0.0,0.0,0.0,0.0,0.0,0.0,0.0,0.0,0.0,0.0,0.0,0.0,0.0,0.0,0.0,0.0,0.0,0.0,0.0,0.0,0.0,0.558979034424,-9.64974308014,0.313812792301,0.0,0.0,0.0,0.0,0.0,0.0,0.0,0.0,0.0
1603323000,168888,1644542390018512726,1,0.0,0.0,0.0,0.0,0.0,0.0,0.0,0.0,0.0,0.0,0.0,0.0,0.0,0.0,0.0,0.0,0.0,0.0,0.0,0.0,0.0,0.0,0.0,0.0,0.0,0.451105892658,-9.5222568512,0.294199496508,0.0,0.0,0.0,0.0,0.0,0.0,0.0,0.0,0.0
1605339300,168889,1644542390020526886,1,0.0,0.0,0.0,0.0,0.0,0.0,0.0,0.0,0.0,0.0,0.0,0.0,0.0,0.0,0.0,0.0,0.0,0.0,0.0,0.0,0.0,0.0,0.0,0.0,0.0,0.558979034424,-9.57129001617,0.362846046686,0.0,0.0,0.0,0.0,0.0,0.0,0.0,0.0,0.0
1607557000,168890,1644542390022540808,1,0.0,0.0,0.0,0.0,0.0,0.0,0.0,0.0,0.0,0.0,0.0,0.0,0.0,0.0,0.0,0.0,0.0,0.0,0.0,0.0,0.0,0.0,0.0,0.0,0.0,0.598205626011,-9.61051654816,0.421685934067,0.0,0.0,0.0,0.0,0.0,0.0,0.0,0.0,0.0
1609488500,168891,1644542390024554968,1,0.0,0.0,0.0,0.0,0.0,0.0,0.0,0.0,0.0,0.0,0.0,0.0,0.0,0.0,0.0,0.0,0.0,0.0,0.0,0.0,0.0,0.0,0.0,0.0,0.0,0.451105892658,-9.58109664917,0.402072638273,0.0,0.0,0.0,0.0,0.0,0.0,0.0,0.0,0.0
1611336800,168892,1644542390026571035,1,0.0,0.0,0.0,0.0,0.0,0.0,0.0,0.0,0.0,0.0,0.0,0.0,0.0,0.0,0.0,0.0,0.0,0.0,0.0,0.0,0.0,0.0,0.0,0.0,0.0,0.529559075832,-9.61051654816,0.402072638273,0.0,0.0,0.0,0.0,0.0,0.0,0.0,0.0,0.0
1613451400,168893,1644542390028584957,1,0.0,0.0,0.0,0.0,0.0,0.0,0.0,0.0,0.0,0.0,0.0,0.0,0.0,0.0,0.0,0.0,0.0,0.0,0.0,0.0,0.0,0.0,0.0,0.0,0.0,0.637432217598,-9.62032318115,0.509945809841,0.0,0.0,0.0,0.0,0.0,0.0,0.0,0.0,0.0
1615584100,168894,1644542390030599117,1,0.0,0.0,0.0,0.0,0.0,0.0,0.0,0.0,0.0,0.0,0.0,0.0,0.0,0.0,0.0,0.0,0.0,0.0,0.0,0.0,0.0,0.0,0.0,0.0,0.0,0.509945809841,-9.62032318115,0.421685934067,0.0,0.0,0.0,0.0,0.0,0.0,0.0,0.0,0.0
1617569100,168895,1644542390032615185,1,0.0,0.0,0.0,0.0,0.0,0.0,0.0,0.0,0.0,0.0,0.0,0.0,0.0,0.0,0.0,0.0,0.0,0.0,0.0,0.0,0.0,0.0,0.0,0.0,0.0,0.529559075832,-9.62032318115,0.451105892658,0.0,0.0,0.0,0.0,0.0,0.0,0.0,0.0,0.0
1619612500,168896,1644542390034629107,1,0.0,0.0,0.0,0.0,0.0,0.0,0.0,0.0,0.0,0.0,0.0,0.0,0.0,0.0,0.0,0.0,0.0,0.0,0.0,0.0,0.0,0.0,0.0,0.0,0.0,0.627625584602,-9.62032318115,0.470719188452,0.0,0.0,0.0,0.0,0.0,0.0,0.0,0.0,0.0
1621727200,168897,1644542390036643267,1,0.0,0.0,0.0,0.0,0.0,0.0,0.0,0.0,0.0,0.0,0.0,0.0,0.0,0.0,0.0,0.0,0.0,0.0,0.0,0.0,0.0,0.0,0.0,0.0,0.0,0.529559075832,-9.61051654816,0.451105892658,0.0,0.0,0.0,0.0,0.0,0.0,0.0,0.0,0.0
1623690700,168898,1644542390038657188,1,0.0,0.0,0.0,0.0,0.0,0.0,0.0,0.0,0.0,0.0,0.0,0.0,0.0,0.0,0.0,0.0,0.0,0.0,0.0,0.0,0.0,0.0,0.0,0.0,0.0,0.558979034424,-9.71838951111,0.451105892658,0.0,0.0,0.0,0.0,0.0,0.0,0.0,0.0,0.0
1625574000,168899,1644542390040671349,1,0.0,0.0,0.0,0.0,0.0,0.0,0.0,0.0,0.0,0.0,0.0,0.0,0.0,0.0,0.0,0.0,0.0,0.0,0.0,0.0,0.0,0.0,0.0,0.0,0.0,0.627625584602,-9.62032318115,0.402072638273,0.0,0.0,0.0,0.0,0.0,0.0,0.0,0.0,0.0
1627881400,168900,1644542390042687416,1,0.0,0.0,0.0,0.0,0.0,0.0,0.0,0.0,0.0,0.0,0.0,0.0,0.0,0.0,0.0,0.0,0.0,0.0,0.0,0.0,0.0,0.0,0.0,0.0,0.0,0.549172401428,-9.61051654816,0.470719188452,0.0,0.0,0.0,0.0,0.0,0.0,0.0,0.0,0.0
1630174800,168901,1644542390044701338,1,0.0,0.0,0.0,0.0,0.0,0.0,0.0,0.0,0.0,0.0,0.0,0.0,0.0,0.0,0.0,0.0,0.0,0.0,0.0,0.0,0.0,0.0,0.0,0.0,0.0,0.57859236002,-9.67916297913,0.529559075832,0.0,0.0,0.0,0.0,0.0,0.0,0.0,0.0,0.0
1632045300,168902,1644542390046715498,1,0.0,0.0,0.0,0.0,0.0,0.0,0.0,0.0,0.0,0.0,0.0,0.0,0.0,0.0,0.0,0.0,0.0,0.0,0.0,0.0,0.0,0.0,0.0,0.0,0.0,0.558979034424,-9.62032318115,0.421685934067,0.0,0.0,0.0,0.0,0.0,0.0,0.0,0.0,0.0
1634075000,168903,1644542390048729658,1,0.0,0.0,0.0,0.0,0.0,0.0,0.0,0.0,0.0,0.0,0.0,0.0,0.0,0.0,0.0,0.0,0.0,0.0,0.0,0.0,0.0,0.0,0.0,0.0,0.0,0.627625584602,-9.64974308014,0.470719188452,0.0,0.0,0.0,0.0,0.0,0.0,0.0,0.0,0.0
1635710500,168904,1644542390050743580,1,0.0,0.0,0.0,0.0,0.0,0.0,0.0,0.0,0.0,0.0,0.0,0.0,0.0,0.0,0.0,0.0,0.0,0.0,0.0,0.0,0.0,0.0,0.0,0.0,0.0,0.666852176189,-9.64974308014,0.362846046686,0.0,0.0,0.0,0.0,0.0,0.0,0.0,0.0,0.0
1637608100,168905,1644542390052759647,1,0.0,0.0,0.0,0.0,0.0,0.0,0.0,0.0,0.0,0.0,0.0,0.0,0.0,0.0,0.0,0.0,0.0,0.0,0.0,0.0,0.0,0.0,0.0,0.0,0.0,0.627625584602,-9.64974308014,0.245166242123,0.0,0.0,0.0,0.0,0.0,0.0,0.0,0.0,0.0
1639752100,168906,1644542390054773808,1,0.0,0.0,0.0,0.0,0.0,0.0,0.0,0.0,0.0,0.0,0.0,0.0,0.0,0.0,0.0,0.0,0.0,0.0,0.0,0.0,0.0,0.0,0.0,0.0,0.0,0.686465501785,-9.62032318115,0.313812792301,0.0,0.0,0.0,0.0,0.0,0.0,0.0,0.0,0.0
1641720000,168907,1644542390056787729,1,0.0,0.0,0.0,0.0,0.0,0.0,0.0,0.0,0.0,0.0,0.0,0.0,0.0,0.0,0.0,0.0,0.0,0.0,0.0,0.0,0.0,0.0,0.0,0.0,0.0,0.627625584602,-9.66935634613,0.362846046686,0.0,0.0,0.0,0.0,0.0,0.0,0.0,0.0,0.0
1643707400,168908,1644542390058804035,1,0.0,0.0,0.0,0.0,0.0,0.0,0.0,0.0,0.0,0.0,0.0,0.0,0.0,0.0,0.0,0.0,0.0,0.0,0.0,0.0,0.0,0.0,0.0,0.0,0.0,0.57859236002,-9.62032318115,0.362846046686,0.0,0.0,0.0,0.0,0.0,0.0,0.0,0.0,0.0
1645578300,168909,1644542390060818195,1,0.0,0.0,0.0,0.0,0.0,0.0,0.0,0.0,0.0,0.0,0.0,0.0,0.0,0.0,0.0,0.0,0.0,0.0,0.0,0.0,0.0,0.0,0.0,0.0,0.0,0.637432217598,-9.70858287811,0.470719188452,0.0,0.0,0.0,0.0,0.0,0.0,0.0,0.0,0.0
1647704800,168910,1644542390062832117,1,0.0,0.0,0.0,0.0,0.0,0.0,0.0,0.0,0.0,0.0,0.0,0.0,0.0,0.0,0.0,0.0,0.0,0.0,0.0,0.0,0.0,0.0,0.0,0.0,0.0,0.637432217598,-9.67916297913,0.470719188452,0.0,0.0,0.0,0.0,0.0,0.0,0.0,0.0,0.0
1649884100,168911,1644542390064848185,1,0.0,0.0,0.0,0.0,0.0,0.0,0.0,0.0,0.0,0.0,0.0,0.0,0.0,0.0,0.0,0.0,0.0,0.0,0.0,0.0,0.0,0.0,0.0,0.0,0.0,0.57859236002,-9.62032318115,0.490332484245,0.0,0.0,0.0,0.0,0.0,0.0,0.0,0.0,0.0
1651832200,168912,1644542390066862345,1,0.0,0.0,0.0,0.0,0.0,0.0,0.0,0.0,0.0,0.0,0.0,0.0,0.0,0.0,0.0,0.0,0.0,0.0,0.0,0.0,0.0,0.0,0.0,0.0,0.0,0.637432217598,-9.70858287811,0.402072638273,0.0,0.0,0.0,0.0,0.0,0.0,0.0,0.0,0.0
1653874600,168913,1644542390068876266,1,0.0,0.0,0.0,0.0,0.0,0.0,0.0,0.0,0.0,0.0,0.0,0.0,0.0,0.0,0.0,0.0,0.0,0.0,0.0,0.0,0.0,0.0,0.0,0.0,0.0,0.637432217598,-9.62032318115,0.451105892658,0.0,0.0,0.0,0.0,0.0,0.0,0.0,0.0,0.0
1655893500,168914,1644542390070892334,1,0.0,0.0,0.0,0.0,0.0,0.0,0.0,0.0,0.0,0.0,0.0,0.0,0.0,0.0,0.0,0.0,0.0,0.0,0.0,0.0,0.0,0.0,0.0,0.0,0.0,0.558979034424,-9.66935634613,0.470719188452,0.0,0.0,0.0,0.0,0.0,0.0,0.0,0.0,0.0
1657942300,168915,1644542390072906494,1,0.0,0.0,0.0,0.0,0.0,0.0,0.0,0.0,0.0,0.0,0.0,0.0,0.0,0.0,0.0,0.0,0.0,0.0,0.0,0.0,0.0,0.0,0.0,0.0,0.0,0.598205626011,-9.70858287811,0.509945809841,0.0,0.0,0.0,0.0,0.0,0.0,0.0,0.0,0.0
1659945600,168916,1644542390074920654,1,0.0,0.0,0.0,0.0,0.0,0.0,0.0,0.0,0.0,0.0,0.0,0.0,0.0,0.0,0.0,0.0,0.0,0.0,0.0,0.0,0.0,0.0,0.0,0.0,0.0,0.57859236002,-9.64974308014,0.549172401428,0.0,0.0,0.0,0.0,0.0,0.0,0.0,0.0,0.0
1661843700,168917,1644542390076936483,1,0.0,0.0,0.0,0.0,0.0,0.0,0.0,0.0,0.0,0.0,0.0,0.0,0.0,0.0,0.0,0.0,0.0,0.0,0.0,0.0,0.0,0.0,0.0,0.0,0.0,0.57859236002,-9.61051654816,0.549172401428,0.0,0.0,0.0,0.0,0.0,0.0,0.0,0.0,0.0
1664018700,168918,1644542390078950644,1,0.0,0.0,0.0,0.0,0.0,0.0,0.0,0.0,0.0,0.0,0.0,0.0,0.0,0.0,0.0,0.0,0.0,0.0,0.0,0.0,0.0,0.0,0.0,0.0,0.0,0.57859236002,-9.64974308014,0.549172401428,0.0,0.0,0.0,0.0,0.0,0.0,0.0,0.0,0.0
1665859300,168919,1644542390080964804,1,0.0,0.0,0.0,0.0,0.0,0.0,0.0,0.0,0.0,0.0,0.0,0.0,0.0,0.0,0.0,0.0,0.0,0.0,0.0,0.0,0.0,0.0,0.0,0.0,0.0,0.549172401428,-9.62032318115,0.549172401428,0.0,0.0,0.0,0.0,0.0,0.0,0.0,0.0,0.0
1667861700,168920,1644542390082980633,1,0.0,0.0,0.0,0.0,0.0,0.0,0.0,0.0,0.0,0.0,0.0,0.0,0.0,0.0,0.0,0.0,0.0,0.0,0.0,0.0,0.0,0.0,0.0,0.0,0.0,0.57859236002,-9.61051654816,0.490332484245,0.0,0.0,0.0,0.0,0.0,0.0,0.0,0.0,0.0
1669870100,168921,1644542390084994793,1,0.0,0.0,0.0,0.0,0.0,0.0,0.0,0.0,0.0,0.0,0.0,0.0,0.0,0.0,0.0,0.0,0.0,0.0,0.0,0.0,0.0,0.0,0.0,0.0,0.0,0.627625584602,-9.61051654816,0.421685934067,0.0,0.0,0.0,0.0,0.0,0.0,0.0,0.0,0.0
1671973700,168922,1644542390087011099,1,0.0,0.0,0.0,0.0,0.0,0.0,0.0,0.0,0.0,0.0,0.0,0.0,0.0,0.0,0.0,0.0,0.0,0.0,0.0,0.0,0.0,0.0,0.0,0.0,0.0,0.558979034424,-9.61051654816,0.402072638273,0.0,0.0,0.0,0.0,0.0,0.0,0.0,0.0,0.0
1673973200,168923,1644542390089025021,1,0.0,0.0,0.0,0.0,0.0,0.0,0.0,0.0,0.0,0.0,0.0,0.0,0.0,0.0,0.0,0.0,0.0,0.0,0.0,0.0,0.0,0.0,0.0,0.0,0.0,0.637432217598,-9.62032318115,0.38245934248,0.0,0.0,0.0,0.0,0.0,0.0,0.0,0.0,0.0
1675922100,168924,1644542390091039181,1,0.0,0.0,0.0,0.0,0.0,0.0,0.0,0.0,0.0,0.0,0.0,0.0,0.0,0.0,0.0,0.0,0.0,0.0,0.0,0.0,0.0,0.0,0.0,0.0,0.0,0.637432217598,-9.64974308014,0.274586200714,0.0,0.0,0.0,0.0,0.0,0.0,0.0,0.0,0.0
1677935400,168925,1644542390093053341,1,0.0,0.0,0.0,0.0,0.0,0.0,0.0,0.0,0.0,0.0,0.0,0.0,0.0,0.0,0.0,0.0,0.0,0.0,0.0,0.0,0.0,0.0,0.0,0.0,0.0,1.12776470184,-9.96355628967,-0.264779537916,0.0,0.0,0.0,0.0,0.0,0.0,0.0,0.0,0.0
1680065700,168926,1644542390095067024,1,0.0,0.0,0.0,0.0,0.0,0.0,0.0,0.0,0.0,0.0,0.0,0.0,0.0,0.0,0.0,0.0,0.0,0.0,0.0,0.0,0.0,0.0,0.0,0.0,0.0,0.666852176189,-9.20844459534,-2.92238163948,0.0,0.0,0.0,0.0,0.0,0.0,0.0,0.0,0.0
1681810900,168927,1644542390097083330,1,0.0,0.0,0.0,0.0,0.0,0.0,0.0,0.0,0.0,0.0,0.0,0.0,0.0,0.0,0.0,0.0,0.0,0.0,0.0,0.0,0.0,0.0,0.0,0.0,0.0,0.451105892658,-9.61051654816,1.04931151867,0.0,0.0,0.0,0.0,0.0,0.0,0.0,0.0,0.0
1684234100,168928,1644542390099097490,1,0.0,0.0,0.0,0.0,0.0,0.0,0.0,0.0,0.0,0.0,0.0,0.0,0.0,0.0,0.0,0.0,0.0,0.0,0.0,0.0,0.0,0.0,0.0,0.0,0.0,0.696272134781,-9.88510322571,1.04931151867,0.0,0.0,0.0,0.0,0.0,0.0,0.0,0.0,0.0
1686208100,168929,1644542390101111412,1,0.0,0.0,0.0,0.0,0.0,0.0,0.0,0.0,0.0,0.0,0.0,0.0,0.0,0.0,0.0,0.0,0.0,0.0,0.0,0.0,0.0,0.0,0.0,0.0,0.0,0.637432217598,-9.45361042023,-0.402072638273,0.0,0.0,0.0,0.0,0.0,0.0,0.0,0.0,0.0
1688222300,168930,1644542390103127480,1,0.0,0.0,0.0,0.0,0.0,0.0,0.0,0.0,0.0,0.0,0.0,0.0,0.0,0.0,0.0,0.0,0.0,0.0,0.0,0.0,0.0,0.0,0.0,0.0,0.0,0.264779537916,-9.64974308014,0.627625584602,0.0,0.0,0.0,0.0,0.0,0.0,0.0,0.0,0.0
1690035700,168931,1644542390105143547,1,0.0,0.0,0.0,0.0,0.0,0.0,0.0,0.0,0.0,0.0,0.0,0.0,0.0,0.0,0.0,0.0,0.0,0.0,0.0,0.0,0.0,0.0,0.0,0.0,0.0,0.813951909542,-9.71838951111,0.176519691944,0.0,0.0,0.0,0.0,0.0,0.0,0.0,0.0,0.0
1692174400,168932,1644542390107157707,1,0.0,0.0,0.0,0.0,0.0,0.0,0.0,0.0,0.0,0.0,0.0,0.0,0.0,0.0,0.0,0.0,0.0,0.0,0.0,0.0,0.0,0.0,0.0,0.0,0.0,0.451105892658,-9.5222568512,0.225552946329,0.0,0.0,0.0,0.0,0.0,0.0,0.0,0.0,0.0
1694219600,168933,1644542390109171629,1,0.0,0.0,0.0,0.0,0.0,0.0,0.0,0.0,0.0,0.0,0.0,0.0,0.0,0.0,0.0,0.0,0.0,0.0,0.0,0.0,0.0,0.0,0.0,0.0,0.0,0.57859236002,-9.80665016174,0.38245934248,0.0,0.0,0.0,0.0,0.0,0.0,0.0,0.0,0.0
1696111100,168934,1644542390111187696,1,0.0,0.0,0.0,0.0,0.0,0.0,0.0,0.0,0.0,0.0,0.0,0.0,0.0,0.0,0.0,0.0,0.0,0.0,0.0,0.0,0.0,0.0,0.0,0.0,0.0,0.509945809841,-9.5222568512,0.137293100357,0.0,0.0,0.0,0.0,0.0,0.0,0.0,0.0,0.0
1698111000,168935,1644542390113201857,1,0.0,0.0,0.0,0.0,0.0,0.0,0.0,0.0,0.0,0.0,0.0,0.0,0.0,0.0,0.0,0.0,0.0,0.0,0.0,0.0,0.0,0.0,0.0,0.0,0.0,0.598205626011,-9.7478094101,0.274586200714,0.0,0.0,0.0,0.0,0.0,0.0,0.0,0.0,0.0
1700144300,168936,1644542390115215778,1,0.0,0.0,0.0,0.0,0.0,0.0,0.0,0.0,0.0,0.0,0.0,0.0,0.0,0.0,0.0,0.0,0.0,0.0,0.0,0.0,0.0,0.0,0.0,0.0,0.0,0.558979034424,-9.57129001617,0.313812792301,0.0,0.0,0.0,0.0,0.0,0.0,0.0,0.0,0.0
1702077500,168937,1644542390117231846,1,0.0,0.0,0.0,0.0,0.0,0.0,0.0,0.0,0.0,0.0,0.0,0.0,0.0,0.0,0.0,0.0,0.0,0.0,0.0,0.0,0.0,0.0,0.0,0.0,0.0,0.470719188452,-9.57129001617,0.225552946329,0.0,0.0,0.0,0.0,0.0,0.0,0.0,0.0,0.0
1704112000,168938,1644542390119246006,1,0.0,0.0,0.0,0.0,0.0,0.0,0.0,0.0,0.0,0.0,0.0,0.0,0.0,0.0,0.0,0.0,0.0,0.0,0.0,0.0,0.0,0.0,0.0,0.0,0.0,0.57859236002,-9.67916297913,0.294199496508,0.0,0.0,0.0,0.0,0.0,0.0,0.0,0.0,0.0
1706107700,168939,1644542390121259928,1,0.0,0.0,0.0,0.0,0.0,0.0,0.0,0.0,0.0,0.0,0.0,0.0,0.0,0.0,0.0,0.0,0.0,0.0,0.0,0.0,0.0,0.0,0.0,0.0,0.0,0.598205626011,-9.57129001617,0.225552946329,0.0,0.0,0.0,0.0,0.0,0.0,0.0,0.0,0.0
1708271400,168940,1644542390123276234,1,0.0,0.0,0.0,0.0,0.0,0.0,0.0,0.0,0.0,0.0,0.0,0.0,0.0,0.0,0.0,0.0,0.0,0.0,0.0,0.0,0.0,0.0,0.0,0.0,0.0,0.470719188452,-9.58109664917,0.196132987738,0.0,0.0,0.0,0.0,0.0,0.0,0.0,0.0,0.0
1710406800,168941,1644542390125290394,1,0.0,0.0,0.0,0.0,0.0,0.0,0.0,0.0,0.0,0.0,0.0,0.0,0.0,0.0,0.0,0.0,0.0,0.0,0.0,0.0,0.0,0.0,0.0,0.0,0.0,0.558979034424,-9.58109664917,0.176519691944,0.0,0.0,0.0,0.0,0.0,0.0,0.0,0.0,0.0
1712094400,168942,1644542390127304554,1,0.0,0.0,0.0,0.0,0.0,0.0,0.0,0.0,0.0,0.0,0.0,0.0,0.0,0.0,0.0,0.0,0.0,0.0,0.0,0.0,0.0,0.0,0.0,0.0,0.0,0.549172401428,-9.53206348419,0.294199496508,0.0,0.0,0.0,0.0,0.0,0.0,0.0,0.0,0.0
1714080600,168943,1644542390129320383,1,0.0,0.0,0.0,0.0,0.0,0.0,0.0,0.0,0.0,0.0,0.0,0.0,0.0,0.0,0.0,0.0,0.0,0.0,0.0,0.0,0.0,0.0,0.0,0.0,0.0,0.529559075832,-9.57129001617,0.245166242123,0.0,0.0,0.0,0.0,0.0,0.0,0.0,0.0,0.0
1716184600,168944,1644542390131334543,1,0.0,0.0,0.0,0.0,0.0,0.0,0.0,0.0,0.0,0.0,0.0,0.0,0.0,0.0,0.0,0.0,0.0,0.0,0.0,0.0,0.0,0.0,0.0,0.0,0.0,0.549172401428,-9.62032318115,0.196132987738,0.0,0.0,0.0,0.0,0.0,0.0,0.0,0.0,0.0
1718446200,168945,1644542390133348703,1,0.0,0.0,0.0,0.0,0.0,0.0,0.0,0.0,0.0,0.0,0.0,0.0,0.0,0.0,0.0,0.0,0.0,0.0,0.0,0.0,0.0,0.0,0.0,0.0,0.0,0.57859236002,-9.61051654816,0.343232750893,0.0,0.0,0.0,0.0,0.0,0.0,0.0,0.0,0.0
1720511200,168946,1644542390135364532,1,0.0,0.0,0.0,0.0,0.0,0.0,0.0,0.0,0.0,0.0,0.0,0.0,0.0,0.0,0.0,0.0,0.0,0.0,0.0,0.0,0.0,0.0,0.0,0.0,0.0,0.558979034424,-9.70858287811,0.264779537916,0.0,0.0,0.0,0.0,0.0,0.0,0.0,0.0,0.0
1722456000,168947,1644542390137378693,1,0.0,0.0,0.0,0.0,0.0,0.0,0.0,0.0,0.0,0.0,0.0,0.0,0.0,0.0,0.0,0.0,0.0,0.0,0.0,0.0,0.0,0.0,0.0,0.0,0.0,0.666852176189,-9.66935634613,0.225552946329,0.0,0.0,0.0,0.0,0.0,0.0,0.0,0.0,0.0
1724328900,168948,1644542390139392853,1,0.0,0.0,0.0,0.0,0.0,0.0,0.0,0.0,0.0,0.0,0.0,0.0,0.0,0.0,0.0,0.0,0.0,0.0,0.0,0.0,0.0,0.0,0.0,0.0,0.0,0.558979034424,-9.5222568512,0.0,0.0,0.0,0.0,0.0,0.0,0.0,0.0,0.0,0.0
1726327200,168949,1644542390141408920,1,0.0,0.0,0.0,0.0,0.0,0.0,0.0,0.0,0.0,0.0,0.0,0.0,0.0,0.0,0.0,0.0,0.0,0.0,0.0,0.0,0.0,0.0,0.0,0.0,0.0,0.637432217598,-9.62032318115,0.137293100357,0.0,0.0,0.0,0.0,0.0,0.0,0.0,0.0,0.0
1728375300,168950,1644542390143422842,1,0.0,0.0,0.0,0.0,0.0,0.0,0.0,0.0,0.0,0.0,0.0,0.0,0.0,0.0,0.0,0.0,0.0,0.0,0.0,0.0,0.0,0.0,0.0,0.0,0.0,0.627625584602,-9.62032318115,0.196132987738,0.0,0.0,0.0,0.0,0.0,0.0,0.0,0.0,0.0
1730299300,168951,1644542390145437002,1,0.0,0.0,0.0,0.0,0.0,0.0,0.0,0.0,0.0,0.0,0.0,0.0,0.0,0.0,0.0,0.0,0.0,0.0,0.0,0.0,0.0,0.0,0.0,0.0,0.0,0.598205626011,-9.66935634613,0.0686465501785,0.0,0.0,0.0,0.0,0.0,0.0,0.0,0.0,0.0
1732279600,168952,1644542390147450924,1,0.0,0.0,0.0,0.0,0.0,0.0,0.0,0.0,0.0,0.0,0.0,0.0,0.0,0.0,0.0,0.0,0.0,0.0,0.0,0.0,0.0,0.0,0.0,0.0,0.0,0.696272134781,-9.66935634613,0.0980664938688,0.0,0.0,0.0,0.0,0.0,0.0,0.0,0.0,0.0
1734346200,168953,1644542390149466991,1,0.0,0.0,0.0,0.0,0.0,0.0,0.0,0.0,0.0,0.0,0.0,0.0,0.0,0.0,0.0,0.0,0.0,0.0,0.0,0.0,0.0,0.0,0.0,0.0,0.0,0.637432217598,-9.62032318115,0.245166242123,0.0,0.0,0.0,0.0,0.0,0.0,0.0,0.0,0.0
1736330500,168954,1644542390151481152,1,0.0,0.0,0.0,0.0,0.0,0.0,0.0,0.0,0.0,0.0,0.0,0.0,0.0,0.0,0.0,0.0,0.0,0.0,0.0,0.0,0.0,0.0,0.0,0.0,0.0,0.598205626011,-9.66935634613,0.176519691944,0.0,0.0,0.0,0.0,0.0,0.0,0.0,0.0,0.0
1738312800,168955,1644542390153495312,1,0.0,0.0,0.0,0.0,0.0,0.0,0.0,0.0,0.0,0.0,0.0,0.0,0.0,0.0,0.0,0.0,0.0,0.0,0.0,0.0,0.0,0.0,0.0,0.0,0.0,0.637432217598,-9.62032318115,0.196132987738,0.0,0.0,0.0,0.0,0.0,0.0,0.0,0.0,0.0
1740579500,168956,1644542390155511141,1,0.0,0.0,0.0,0.0,0.0,0.0,0.0,0.0,0.0,0.0,0.0,0.0,0.0,0.0,0.0,0.0,0.0,0.0,0.0,0.0,0.0,0.0,0.0,0.0,0.0,0.598205626011,-9.66935634613,0.490332484245,0.0,0.0,0.0,0.0,0.0,0.0,0.0,0.0,0.0
1742415300,168957,1644542390157525301,1,0.0,0.0,0.0,0.0,0.0,0.0,0.0,0.0,0.0,0.0,0.0,0.0,0.0,0.0,0.0,0.0,0.0,0.0,0.0,0.0,0.0,0.0,0.0,0.0,0.0,0.549172401428,-9.62032318115,0.490332484245,0.0,0.0,0.0,0.0,0.0,0.0,0.0,0.0,0.0
1744329900,168958,1644542390159539461,1,0.0,0.0,0.0,0.0,0.0,0.0,0.0,0.0,0.0,0.0,0.0,0.0,0.0,0.0,0.0,0.0,0.0,0.0,0.0,0.0,0.0,0.0,0.0,0.0,0.0,0.529559075832,-9.64974308014,0.402072638273,0.0,0.0,0.0,0.0,0.0,0.0,0.0,0.0,0.0
1746489400,168959,1644542390161553383,1,0.0,0.0,0.0,0.0,0.0,0.0,0.0,0.0,0.0,0.0,0.0,0.0,0.0,0.0,0.0,0.0,0.0,0.0,0.0,0.0,0.0,0.0,0.0,0.0,0.0,0.558979034424,-9.61051654816,0.402072638273,0.0,0.0,0.0,0.0,0.0,0.0,0.0,0.0,0.0
1748921500,168960,1644542390163569689,1,0.0,0.0,0.0,0.0,0.0,0.0,0.0,0.0,0.0,0.0,0.0,0.0,0.0,0.0,0.0,0.0,0.0,0.0,0.0,0.0,0.0,0.0,0.0,0.0,0.0,0.57859236002,-9.67916297913,0.38245934248,0.0,0.0,0.0,0.0,0.0,0.0,0.0,0.0,0.0
1750457200,168961,1644542390165583849,1,0.0,0.0,0.0,0.0,0.0,0.0,0.0,0.0,0.0,0.0,0.0,0.0,0.0,0.0,0.0,0.0,0.0,0.0,0.0,0.0,0.0,0.0,0.0,0.0,0.0,0.627625584602,-9.64974308014,0.176519691944,0.0,0.0,0.0,0.0,0.0,0.0,0.0,0.0,0.0
1752841700,168962,1644542390167597771,1,0.0,0.0,0.0,0.0,0.0,0.0,0.0,0.0,0.0,0.0,0.0,0.0,0.0,0.0,0.0,0.0,0.0,0.0,0.0,0.0,0.0,0.0,0.0,0.0,0.0,0.598205626011,-9.67916297913,0.343232750893,0.0,0.0,0.0,0.0,0.0,0.0,0.0,0.0,0.0
1755173200,168963,1644542390169613838,1,0.0,0.0,0.0,0.0,0.0,0.0,0.0,0.0,0.0,0.0,0.0,0.0,0.0,0.0,0.0,0.0,0.0,0.0,0.0,0.0,0.0,0.0,0.0,0.0,0.0,0.627625584602,-9.71838951111,0.362846046686,0.0,0.0,0.0,0.0,0.0,0.0,0.0,0.0,0.0
1757040000,168964,1644542390171627998,1,0.0,0.0,0.0,0.0,0.0,0.0,0.0,0.0,0.0,0.0,0.0,0.0,0.0,0.0,0.0,0.0,0.0,0.0,0.0,0.0,0.0,0.0,0.0,0.0,0.0,0.598205626011,-9.61051654816,0.245166242123,0.0,0.0,0.0,0.0,0.0,0.0,0.0,0.0,0.0
1758665700,168965,1644542390173642159,1,0.0,0.0,0.0,0.0,0.0,0.0,0.0,0.0,0.0,0.0,0.0,0.0,0.0,0.0,0.0,0.0,0.0,0.0,0.0,0.0,0.0,0.0,0.0,0.0,0.0,0.627625584602,-9.66935634613,0.294199496508,0.0,0.0,0.0,0.0,0.0,0.0,0.0,0.0,0.0
1760778000,168966,1644542390175656080,1,0.0,0.0,0.0,0.0,0.0,0.0,0.0,0.0,0.0,0.0,0.0,0.0,0.0,0.0,0.0,0.0,0.0,0.0,0.0,0.0,0.0,0.0,0.0,0.0,0.0,0.666852176189,-9.66935634613,0.274586200714,0.0,0.0,0.0,0.0,0.0,0.0,0.0,0.0,0.0
1762717400,168967,1644542390177672148,1,0.0,0.0,0.0,0.0,0.0,0.0,0.0,0.0,0.0,0.0,0.0,0.0,0.0,0.0,0.0,0.0,0.0,0.0,0.0,0.0,0.0,0.0,0.0,0.0,0.0,0.637432217598,-9.61051654816,0.225552946329,0.0,0.0,0.0,0.0,0.0,0.0,0.0,0.0,0.0
1765119600,168968,1644542390179686308,1,0.0,0.0,0.0,0.0,0.0,0.0,0.0,0.0,0.0,0.0,0.0,0.0,0.0,0.0,0.0,0.0,0.0,0.0,0.0,0.0,0.0,0.0,0.0,0.0,0.0,0.627625584602,-9.58109664917,0.225552946329,0.0,0.0,0.0,0.0,0.0,0.0,0.0,0.0,0.0
1767024100,168969,1644542390181700230,1,0.0,0.0,0.0,0.0,0.0,0.0,0.0,0.0,0.0,0.0,0.0,0.0,0.0,0.0,0.0,0.0,0.0,0.0,0.0,0.0,0.0,0.0,0.0,0.0,0.0,0.686465501785,-9.67916297913,0.196132987738,0.0,0.0,0.0,0.0,0.0,0.0,0.0,0.0,0.0
1769138900,168970,1644542390183714390,1,0.0,0.0,0.0,0.0,0.0,0.0,0.0,0.0,0.0,0.0,0.0,0.0,0.0,0.0,0.0,0.0,0.0,0.0,0.0,0.0,0.0,0.0,0.0,0.0,0.0,0.57859236002,-9.61051654816,0.225552946329,0.0,0.0,0.0,0.0,0.0,0.0,0.0,0.0,0.0
1770866800,168971,1644542390185730457,1,0.0,0.0,0.0,0.0,0.0,0.0,0.0,0.0,0.0,0.0,0.0,0.0,0.0,0.0,0.0,0.0,0.0,0.0,0.0,0.0,0.0,0.0,0.0,0.0,0.0,0.598205626011,-9.62032318115,0.245166242123,0.0,0.0,0.0,0.0,0.0,0.0,0.0,0.0,0.0
1772752500,168972,1644542390187744379,1,0.0,0.0,0.0,0.0,0.0,0.0,0.0,0.0,0.0,0.0,0.0,0.0,0.0,0.0,0.0,0.0,0.0,0.0,0.0,0.0,0.0,0.0,0.0,0.0,0.0,0.696272134781,-9.70858287811,0.264779537916,0.0,0.0,0.0,0.0,0.0,0.0,0.0,0.0,0.0
1774639100,168973,1644542390189758539,1,0.0,0.0,0.0,0.0,0.0,0.0,0.0,0.0,0.0,0.0,0.0,0.0,0.0,0.0,0.0,0.0,0.0,0.0,0.0,0.0,0.0,0.0,0.0,0.0,0.0,0.627625584602,-9.61051654816,0.225552946329,0.0,0.0,0.0,0.0,0.0,0.0,0.0,0.0,0.0
1776604200,168974,1644542390191772699,1,0.0,0.0,0.0,0.0,0.0,0.0,0.0,0.0,0.0,0.0,0.0,0.0,0.0,0.0,0.0,0.0,0.0,0.0,0.0,0.0,0.0,0.0,0.0,0.0,0.0,0.57859236002,-9.62032318115,0.264779537916,0.0,0.0,0.0,0.0,0.0,0.0,0.0,0.0,0.0
1778554500,168975,1644542390193788767,1,0.0,0.0,0.0,0.0,0.0,0.0,0.0,0.0,0.0,0.0,0.0,0.0,0.0,0.0,0.0,0.0,0.0,0.0,0.0,0.0,0.0,0.0,0.0,0.0,0.0,0.686465501785,-9.66935634613,0.245166242123,0.0,0.0,0.0,0.0,0.0,0.0,0.0,0.0,0.0
1780679300,168976,1644542390195802689,1,0.0,0.0,0.0,0.0,0.0,0.0,0.0,0.0,0.0,0.0,0.0,0.0,0.0,0.0,0.0,0.0,0.0,0.0,0.0,0.0,0.0,0.0,0.0,0.0,0.0,0.627625584602,-9.58109664917,0.196132987738,0.0,0.0,0.0,0.0,0.0,0.0,0.0,0.0,0.0
1782611500,168977,1644542390197816849,1,0.0,0.0,0.0,0.0,0.0,0.0,0.0,0.0,0.0,0.0,0.0,0.0,0.0,0.0,0.0,0.0,0.0,0.0,0.0,0.0,0.0,0.0,0.0,0.0,0.0,0.57859236002,-9.58109664917,0.196132987738,0.0,0.0,0.0,0.0,0.0,0.0,0.0,0.0,0.0
1784597800,168978,1644542390199830770,1,0.0,0.0,0.0,0.0,0.0,0.0,0.0,0.0,0.0,0.0,0.0,0.0,0.0,0.0,0.0,0.0,0.0,0.0,0.0,0.0,0.0,0.0,0.0,0.0,0.0,0.666852176189,-9.70858287811,0.274586200714,0.0,0.0,0.0,0.0,0.0,0.0,0.0,0.0,0.0
1786532600,168979,1644542390201846838,1,0.0,0.0,0.0,0.0,0.0,0.0,0.0,0.0,0.0,0.0,0.0,0.0,0.0,0.0,0.0,0.0,0.0,0.0,0.0,0.0,0.0,0.0,0.0,0.0,0.0,0.57859236002,-9.61051654816,0.137293100357,0.0,0.0,0.0,0.0,0.0,0.0,0.0,0.0,0.0
1788883700,168980,1644542390203860998,1,0.0,0.0,0.0,0.0,0.0,0.0,0.0,0.0,0.0,0.0,0.0,0.0,0.0,0.0,0.0,0.0,0.0,0.0,0.0,0.0,0.0,0.0,0.0,0.0,0.0,0.637432217598,-9.67916297913,0.264779537916,0.0,0.0,0.0,0.0,0.0,0.0,0.0,0.0,0.0
1790826200,168981,1644542390205875158,1,0.0,0.0,0.0,0.0,0.0,0.0,0.0,0.0,0.0,0.0,0.0,0.0,0.0,0.0,0.0,0.0,0.0,0.0,0.0,0.0,0.0,0.0,0.0,0.0,0.0,0.598205626011,-9.67916297913,0.264779537916,0.0,0.0,0.0,0.0,0.0,0.0,0.0,0.0,0.0
1792922000,168982,1644542390207889080,1,0.0,0.0,0.0,0.0,0.0,0.0,0.0,0.0,0.0,0.0,0.0,0.0,0.0,0.0,0.0,0.0,0.0,0.0,0.0,0.0,0.0,0.0,0.0,0.0,0.0,0.558979034424,-9.58109664917,0.196132987738,0.0,0.0,0.0,0.0,0.0,0.0,0.0,0.0,0.0
1794863900,168983,1644542390209903240,1,0.0,0.0,0.0,0.0,0.0,0.0,0.0,0.0,0.0,0.0,0.0,0.0,0.0,0.0,0.0,0.0,0.0,0.0,0.0,0.0,0.0,0.0,0.0,0.0,0.0,0.627625584602,-9.62032318115,0.176519691944,0.0,0.0,0.0,0.0,0.0,0.0,0.0,0.0,0.0
1796978200,168984,1644542390211919546,1,0.0,0.0,0.0,0.0,0.0,0.0,0.0,0.0,0.0,0.0,0.0,0.0,0.0,0.0,0.0,0.0,0.0,0.0,0.0,0.0,0.0,0.0,0.0,0.0,0.0,0.627625584602,-9.61051654816,0.166713044047,0.0,0.0,0.0,0.0,0.0,0.0,0.0,0.0,0.0
1799021000,168985,1644542390213933468,1,0.0,0.0,0.0,0.0,0.0,0.0,0.0,0.0,0.0,0.0,0.0,0.0,0.0,0.0,0.0,0.0,0.0,0.0,0.0,0.0,0.0,0.0,0.0,0.0,0.0,0.558979034424,-9.57129001617,0.0980664938688,0.0,0.0,0.0,0.0,0.0,0.0,0.0,0.0,0.0
1800943300,168986,1644542390215947628,1,0.0,0.0,0.0,0.0,0.0,0.0,0.0,0.0,0.0,0.0,0.0,0.0,0.0,0.0,0.0,0.0,0.0,0.0,0.0,0.0,0.0,0.0,0.0,0.0,0.0,0.627625584602,-9.64974308014,0.313812792301,0.0,0.0,0.0,0.0,0.0,0.0,0.0,0.0,0.0
1803380000,168987,1644542390217961788,1,0.0,0.0,0.0,0.0,0.0,0.0,0.0,0.0,0.0,0.0,0.0,0.0,0.0,0.0,0.0,0.0,0.0,0.0,0.0,0.0,0.0,0.0,0.0,0.0,0.0,0.490332484245,-9.57129001617,0.0980664938688,0.0,0.0,0.0,0.0,0.0,0.0,0.0,0.0,0.0
1804888300,168988,1644542390219975471,1,0.0,0.0,0.0,0.0,0.0,0.0,0.0,0.0,0.0,0.0,0.0,0.0,0.0,0.0,0.0,0.0,0.0,0.0,0.0,0.0,0.0,0.0,0.0,0.0,0.0,0.598205626011,-9.58109664917,0.264779537916,0.0,0.0,0.0,0.0,0.0,0.0,0.0,0.0,0.0
1806818600,168989,1644542390221989632,1,0.0,0.0,0.0,0.0,0.0,0.0,0.0,0.0,0.0,0.0,0.0,0.0,0.0,0.0,0.0,0.0,0.0,0.0,0.0,0.0,0.0,0.0,0.0,0.0,0.0,0.57859236002,-9.57129001617,0.245166242123,0.0,0.0,0.0,0.0,0.0,0.0,0.0,0.0,0.0
1808840300,168990,1644542390224005938,1,0.0,0.0,0.0,0.0,0.0,0.0,0.0,0.0,0.0,0.0,0.0,0.0,0.0,0.0,0.0,0.0,0.0,0.0,0.0,0.0,0.0,0.0,0.0,0.0,0.0,0.509945809841,-9.58109664917,0.166713044047,0.0,0.0,0.0,0.0,0.0,0.0,0.0,0.0,0.0
1810871100,168991,1644542390226020098,1,0.0,0.0,0.0,0.0,0.0,0.0,0.0,0.0,0.0,0.0,0.0,0.0,0.0,0.0,0.0,0.0,0.0,0.0,0.0,0.0,0.0,0.0,0.0,0.0,0.0,0.598205626011,-9.58109664917,0.196132987738,0.0,0.0,0.0,0.0,0.0,0.0,0.0,0.0,0.0
1812836400,168992,1644542390228034019,1,0.0,0.0,0.0,0.0,0.0,0.0,0.0,0.0,0.0,0.0,0.0,0.0,0.0,0.0,0.0,0.0,0.0,0.0,0.0,0.0,0.0,0.0,0.0,0.0,0.0,0.558979034424,-9.58109664917,0.176519691944,0.0,0.0,0.0,0.0,0.0,0.0,0.0,0.0,0.0
1815001500,168993,1644542390230048180,1,0.0,0.0,0.0,0.0,0.0,0.0,0.0,0.0,0.0,0.0,0.0,0.0,0.0,0.0,0.0,0.0,0.0,0.0,0.0,0.0,0.0,0.0,0.0,0.0,0.0,0.529559075832,-9.62032318115,0.264779537916,0.0,0.0,0.0,0.0,0.0,0.0,0.0,0.0,0.0
