%time,field.header.seq,field.header.stamp,field.header.frame_id,field.orientation.x,field.orientation.y,field.orientation.z,field.orientation.w,field.orientation_covariance0,field.orientation_covariance1,field.orientation_covariance2,field.orientation_covariance3,field.orientation_covariance4,field.orientation_covariance5,field.orientation_covariance6,field.orientation_covariance7,field.orientation_covariance8,field.angular_velocity.x,field.angular_velocity.y,field.angular_velocity.z,field.angular_velocity_covariance0,field.angular_velocity_covariance1,field.angular_velocity_covariance2,field.angular_velocity_covariance3,field.angular_velocity_covariance4,field.angular_velocity_covariance5,field.angular_velocity_covariance6,field.angular_velocity_covariance7,field.angular_velocity_covariance8,field.linear_acceleration.x,field.linear_acceleration.y,field.linear_acceleration.z,field.linear_acceleration_covariance0,field.linear_acceleration_covariance1,field.linear_acceleration_covariance2,field.linear_acceleration_covariance3,field.linear_acceleration_covariance4,field.linear_acceleration_covariance5,field.linear_acceleration_covariance6,field.linear_acceleration_covariance7,field.linear_acceleration_covariance8,dt,ux,uz,sx,sz
500,769127,1.64454093642317E+018,1,0,0,0,0,0,0,0,0,0,0,0,0,0,0,0,0,0,0,0,0,0,0,0,0,0,0.343232750893,-9.67916297913,0.774725317955,0,0,0,0,0,0,0,0,0,0,0,0,0,0
1594700,769128,1.64454093642518E+018,1,0,0,0,0,0,0,0,0,0,0,0,0,0,0,0,0,0,0,0,0,0,0,0,0,0,0.313812792301,-9.62032318115,0.735498726368,0,0,0,0,0,0,0,0,0,0.002014208,0.000632084236755,0.00148144741864,1.90972368951876E-06,4.47591486330677E-06
3751200,769129,1.64454093642719E+018,1,0,0,0,0,0,0,0,0,0,0,0,0,0,0,0,0,0,0,0,0,0,0,0,0,0,0.343232750893,-9.58109664917,0.764918684959,0,0,0,0,0,0,0,0,0,0.002013696,0.000691166417542,0.001540313696227,2.08769857550868E-06,4.65258529325689E-06
5688900,769130,1.64454093642921E+018,1,0,0,0,0,0,0,0,0,0,0,0,0,0,0,0,0,0,0,0,0,0,0,0,0,0,0.313812792301,-9.57129001617,0.725692093372,0,0,0,0,0,0,0,0,0,0.002016,0.000632646589279,0.001462995260238,1.91312328597914E-06,4.42409766695957E-06
7910000,769131,1.64454093643122E+018,1,0,0,0,0,0,0,0,0,0,0,0,0,0,0,0,0,0,0,0,0,0,0,0,0,0,0.343232750893,-9.61051654816,0.637432217598,0,0,0,0,0,0,0,0,0,0.002014208,0.000691342152711,0.001283921072144,2.08876034209063E-06,3.87912614232042E-06
9636800,769132,1.64454093643324E+018,1,0,0,0,0,0,0,0,0,0,0,0,0,0,0,0,0,0,0,0,0,0,0,0,0,0,0.38245934248,-9.61051654816,0.686465501785,0,0,0,0,0,0,0,0,0,0.002013952,0.000770254757706,0.001382508570251,2.32688416468812E-06,4.17645885011092E-06
11618400,769133,1.64454093643525E+018,1,0,0,0,0,0,0,0,0,0,0,0,0,0,0,0,0,0,0,0,0,0,0,0,0,0,0.421685934067,-9.53206348419,0.696272134781,0,0,0,0,0,0,0,0,0,0.002016,0.000850118843079,0.001403684623719,2.57075938147111E-06,4.24474230212473E-06
13889900,769134,1.64454093643727E+018,1,0,0,0,0,0,0,0,0,0,0,0,0,0,0,0,0,0,0,0,0,0,0,0,0,0,0.402072638273,-9.58109664917,0.725692093372,0,0,0,0,0,0,0,0,0,0.002013952,0.000809754993995,0.001461509042831,2.44621153449989E-06,4.41511358974054E-06
15944600,769135,1.64454093643928E+018,1,0,0,0,0,0,0,0,0,0,0,0,0,0,0,0,0,0,0,0,0,0,0,0,0,0,0.402072638273,-9.71838951111,0.804145276546,0,0,0,0,0,0,0,0,0,0.002015744,0.000810475508163,0.001620951016326,2.45056671408969E-06,4.90113342817937E-06
17901300,769136,1.6445409364413E+018,1,0,0,0,0,0,0,0,0,0,0,0,0,0,0,0,0,0,0,0,0,0,0,0,0,0,0.421685934067,-9.70858287811,0.774725317955,0,0,0,0,0,0,0,0,0,0.002014208,0.000849363181885,0.001560457933228,2.56619117378801E-06,4.71463027915546E-06
19942100,769137,1.64454093644331E+018,1,0,0,0,0,0,0,0,0,0,0,0,0,0,0,0,0,0,0,0,0,0,0,0,0,0,0.38245934248,-9.61051654816,0.735498726368,0,0,0,0,0,0,0,0,0,0.002016768,0.000771331763215,0.00148333029538,2.33339582615249E-06,4.48729960972861E-06
21862400,769138,1.64454093644533E+018,1,0,0,0,0,0,0,0,0,0,0,0,0,0,0,0,0,0,0,0,0,0,0,0,0,0,0.38245934248,-9.56148338318,0.637432217598,0,0,0,0,0,0,0,0,0,0.002013696,0.000770156848115,0.001283594706848,2.32629264663149E-06,3.87715429020216E-06
23876900,769139,1.64454093644734E+018,1,0,0,0,0,0,0,0,0,0,0,0,0,0,0,0,0,0,0,0,0,0,0,0,0,0,0.402072638273,-9.53206348419,0.666852176189,0,0,0,0,0,0,0,0,0,0.002016,0.000810578438758,0.001344373987197,2.4511891988053E-06,4.0653869372838E-06
29991100,769142,1.64454093645339E+018,1,0,0,0,0,0,0,0,0,0,0,0,0,0,0,0,0,0,0,0,0,0,0,0,0,0,0.343232750893,-9.64974308014,0.735498726368,0,0,0,0,0,0,0,0,0,0.006043904,0.002074465796053,0.00444528369429,1.88068081839437E-05,4.03003018515853E-05
31940500,769143,1.6445409364554E+018,1,0,0,0,0,0,0,0,0,0,0,0,0,0,0,0,0,0,0,0,0,0,0,0,0,0,0.402072638273,-9.67916297913,0.735498726368,0,0,0,0,0,0,0,0,0,0.002013696,0.0008096520634,0.001481070843292,2.44558968218985E-06,4.47363964928161E-06
33910300,769144,1.64454093645742E+018,1,0,0,0,0,0,0,0,0,0,0,0,0,0,0,0,0,0,0,0,0,0,0,0,0,0,0.402072638273,-9.70858287811,0.764918684959,0,0,0,0,0,0,0,0,0,0.002013952,0.000809754993995,0.001540509515411,2.44621153449989E-06,4.65376832937016E-06
763388700,769506,1.64454093718673E+018,1,0,0,0,0,0,0,0,0,0,0,0,0,0,0,0,0,0,0,0,0,0,0,0,0,0,0.362846046686,-9.61051654816,0.764918684959,0,0,0,0,0,0,0,0,0,0.729318656,0.264630391103947,0.557869467263585,0.289499821765027,0.610296915132171
765297000,769507,1.64454093718875E+018,1,0,0,0,0,0,0,0,0,0,0,0,0,0,0,0,0,0,0,0,0,0,0,0,0,0,0.38245934248,-9.58109664917,0.735498726368,0,0,0,0,0,0,0,0,0,0.002016256,0.000771135944031,0.001482953720032,2.33221121095333E-06,4.48502150360477E-06
767276900,769508,1.64454093719076E+018,1,0,0,0,0,0,0,0,0,0,0,0,0,0,0,0,0,0,0,0,0,0,0,0,0,0,0.362846046686,-9.57129001617,0.725692093372,0,0,0,0,0,0,0,0,0,0.002013952,0.000730754521415,0.001461509042831,2.20755679487027E-06,4.41511358974054E-06
769172700,769509,1.64454093719278E+018,1,0,0,0,0,0,0,0,0,0,0,0,0,0,0,0,0,0,0,0,0,0,0,0,0,0,0.38245934248,-9.61051654816,0.696272134781,0,0,0,0,0,0,0,0,0,0.002013952,0.000770254757706,0.001402258658386,2.32688416468812E-06,4.23612244436211E-06
771332700,769510,1.6445409371948E+018,1,0,0,0,0,0,0,0,0,0,0,0,0,0,0,0,0,0,0,0,0,0,0,0,0,0,0.402072638273,-9.61051654816,0.686465501785,0,0,0,0,0,0,0,0,0,0.002016256,0.000810681369354,0.001384090186767,2.45181176257162E-06,4.18602021541518E-06
773147000,769511,1.64454093719681E+018,1,0,0,0,0,0,0,0,0,0,0,0,0,0,0,0,0,0,0,0,0,0,0,0,0,0,0.402072638273,-9.62032318115,0.686465501785,0,0,0,0,0,0,0,0,0,0.002013952,0.000809754993995,0.001382508570251,2.44621153449989E-06,4.17645885011092E-06
775286400,769512,1.64454093719882E+018,1,0,0,0,0,0,0,0,0,0,0,0,0,0,0,0,0,0,0,0,0,0,0,0,0,0,0.421685934067,-9.62032318115,0.686465501785,0,0,0,0,0,0,0,0,0,0.002016,0.000850118843079,0.001383914451599,2.57075938147111E-06,4.18495730163405E-06
777509900,769513,1.64454093720084E+018,1,0,0,0,0,0,0,0,0,0,0,0,0,0,0,0,0,0,0,0,0,0,0,0,0,0,0.402072638273,-9.62032318115,0.666852176189,0,0,0,0,0,0,0,0,0,0.002013696,0.0008096520634,0.001342837559783,2.44558968218985E-06,4.05609993417744E-06
779424600,769514,1.64454093720285E+018,1,0,0,0,0,0,0,0,0,0,0,0,0,0,0,0,0,0,0,0,0,0,0,0,0,0,0.402072638273,-9.61051654816,0.637432217598,0,0,0,0,0,0,0,0,0,0.002014208,0.000809857924591,0.001283921072144,2.44683346586062E-06,3.87912614232042E-06
781419700,769515,1.64454093720487E+018,1,0,0,0,0,0,0,0,0,0,0,0,0,0,0,0,0,0,0,0,0,0,0,0,0,0,0.402072638273,-9.62032318115,0.686465501785,0,0,0,0,0,0,0,0,0,0.002016,0.000810578438758,0.001383914451599,2.4511891988053E-06,4.18495730163405E-06
783463000,769516,1.64454093720688E+018,1,0,0,0,0,0,0,0,0,0,0,0,0,0,0,0,0,0,0,0,0,0,0,0,0,0,0.362846046686,-9.61051654816,0.627625584602,0,0,0,0,0,0,0,0,0,0.002013952,0.000730754521415,0.00126400780136,2.20755679487027E-06,3.81847655934797E-06
785514100,769517,1.6445409372089E+018,1,0,0,0,0,0,0,0,0,0,0,0,0,0,0,0,0,0,0,0,0,0,0,0,0,0,0.343232750893,-9.61051654816,0.637432217598,0,0,0,0,0,0,0,0,0,0.002013696,0.000691166417542,0.001283594706848,2.08769857550868E-06,3.87715429020216E-06
787474200,769518,1.64454093721091E+018,1,0,0,0,0,0,0,0,0,0,0,0,0,0,0,0,0,0,0,0,0,0,0,0,0,0,0.362846046686,-9.62032318115,0.627625584602,0,0,0,0,0,0,0,0,0,0.002016768,0.000731776295883,0.001265775195007,2.21373452504254E-06,3.82916236272463E-06
789411100,769519,1.64454093721293E+018,1,0,0,0,0,0,0,0,0,0,0,0,0,0,0,0,0,0,0,0,0,0,0,0,0,0,0.38245934248,-9.64974308014,0.57859236002,0,0,0,0,0,0,0,0,0,0.002014208,0.000770352667298,0.001165405360291,2.32747575793932E-06,3.52105319991202E-06
791537000,769520,1.64454093721494E+018,1,0,0,0,0,0,0,0,0,0,0,0,0,0,0,0,0,0,0,0,0,0,0,0,0,0,0.38245934248,-9.70858287811,0.57859236002,0,0,0,0,0,0,0,0,0,0.002013696,0.000770156848115,0.001165109121003,2.32629264663149E-06,3.51926336479038E-06
793522500,769521,1.64454093721696E+018,1,0,0,0,0,0,0,0,0,0,0,0,0,0,0,0,0,0,0,0,0,0,0,0,0,0,0.38245934248,-9.61051654816,0.627625584602,0,0,0,0,0,0,0,0,0,0.002013952,0.000770254757706,0.00126400780136,2.32688416468812E-06,3.81847655934797E-06
795431900,769522,1.64454093721897E+018,1,0,0,0,0,0,0,0,0,0,0,0,0,0,0,0,0,0,0,0,0,0,0,0,0,0,0.402072638273,-9.62032318115,0.666852176189,0,0,0,0,0,0,0,0,0,0.002016,0.000810578438758,0.001344373987197,2.4511891988053E-06,4.0653869372838E-06
797424600,769523,1.64454093722099E+018,1,0,0,0,0,0,0,0,0,0,0,0,0,0,0,0,0,0,0,0,0,0,0,0,0,0,0.402072638273,-9.64974308014,0.627625584602,0,0,0,0,0,0,0,0,0,0.002014208,0.000809857924591,0.00126416847351,2.44683346586062E-06,3.81944737903752E-06
799463000,769524,1.644540937223E+018,1,0,0,0,0,0,0,0,0,0,0,0,0,0,0,0,0,0,0,0,0,0,0,0,0,0,0.38245934248,-9.61051654816,0.598205626011,0,0,0,0,0,0,0,0,0,0.002013696,0.000770156848115,0.001204604276276,2.32629264663149E-06,3.63856021907935E-06
801504000,769525,1.64454093722501E+018,1,0,0,0,0,0,0,0,0,0,0,0,0,0,0,0,0,0,0,0,0,0,0,0,0,0,0.38245934248,-9.62032318115,0.627625584602,0,0,0,0,0,0,0,0,0,0.002014208,0.000770352667298,0.00126416847351,2.32747575793932E-06,3.81944737903752E-06
803761200,769526,1.64454093722703E+018,1,0,0,0,0,0,0,0,0,0,0,0,0,0,0,0,0,0,0,0,0,0,0,0,0,0,0.402072638273,-9.62032318115,0.666852176189,0,0,0,0,0,0,0,0,0,0.002015744,0.000810475508163,0.00134420327304,2.45056671408969E-06,4.06435452361587E-06
805493500,769527,1.64454093722904E+018,1,0,0,0,0,0,0,0,0,0,0,0,0,0,0,0,0,0,0,0,0,0,0,0,0,0,0.402072638273,-9.62032318115,0.637432217598,0,0,0,0,0,0,0,0,0,0.002014464,0.000809960855186,0.001284084254791,2.44745547627206E-06,3.88011225636596E-06
807469700,769528,1.64454093723106E+018,1,0,0,0,0,0,0,0,0,0,0,0,0,0,0,0,0,0,0,0,0,0,0,0,0,0,0.343232750893,-9.62032318115,0.627625584602,0,0,0,0,0,0,0,0,0,0.002013952,0.000691254285126,0.00126400780136,2.0882294250585E-06,3.81847655934797E-06
809545000,769529,1.64454093723307E+018,1,0,0,0,0,0,0,0,0,0,0,0,0,0,0,0,0,0,0,0,0,0,0,0,0,0,0.402072638273,-9.61051654816,0.598205626011,0,0,0,0,0,0,0,0,0,0.002015744,0.000810475508163,0.001205829401398,2.45056671408969E-06,3.64596507133716E-06
811980200,769530,1.64454093723509E+018,1,0,0,0,0,0,0,0,0,0,0,0,0,0,0,0,0,0,0,0,0,0,0,0,0,0,0.362846046686,-9.62032318115,0.627625584602,0,0,0,0,0,0,0,0,0,0.002014208,0.000730847410003,0.00126416847351,2.20811805001193E-06,3.81944737903752E-06
813712700,769531,1.6445409372371E+018,1,0,0,0,0,0,0,0,0,0,0,0,0,0,0,0,0,0,0,0,0,0,0,0,0,0,0.38245934248,-9.62032318115,0.666852176189,0,0,0,0,0,0,0,0,0,0.002016,0.00077103803444,0.001344373987197,2.33161901614559E-06,4.0653869372838E-06
815715800,769532,1.64454093723912E+018,1,0,0,0,0,0,0,0,0,0,0,0,0,0,0,0,0,0,0,0,0,0,0,0,0,0,0.362846046686,-9.62032318115,0.598205626011,0,0,0,0,0,0,0,0,0,0.002013696,0.000730661632827,0.001204604276276,2.20699561106704E-06,3.63856021907935E-06
817780200,769533,1.64454093724113E+018,1,0,0,0,0,0,0,0,0,0,0,0,0,0,0,0,0,0,0,0,0,0,0,0,0,0,0.402072638273,-9.66935634613,0.637432217598,0,0,0,0,0,0,0,0,0,0.002014464,0.000809960855186,0.001284084254791,2.44745547627206E-06,3.88011225636596E-06
819760300,769534,1.64454093724315E+018,1,0,0,0,0,0,0,0,0,0,0,0,0,0,0,0,0,0,0,0,0,0,0,0,0,0,0.38245934248,-9.61051654816,0.666852176189,0,0,0,0,0,0,0,0,0,0.002013696,0.000770156848115,0.001342837559783,2.32629264663149E-06,4.05609993417744E-06
821697100,769535,1.64454093724516E+018,1,0,0,0,0,0,0,0,0,0,0,0,0,0,0,0,0,0,0,0,0,0,0,0,0,0,0.362846046686,-9.61051654816,0.686465501785,0,0,0,0,0,0,0,0,0,0.002016256,0.000731590518707,0.001384090186767,2.21261065932893E-06,4.18602021541518E-06
823676000,769536,1.64454093724718E+018,1,0,0,0,0,0,0,0,0,0,0,0,0,0,0,0,0,0,0,0,0,0,0,0,0,0,0.38245934248,-9.64974308014,0.637432217598,0,0,0,0,0,0,0,0,0,0.002013952,0.000770254757706,0.001283757889496,2.32688416468812E-06,3.87814015359915E-06
825699300,769537,1.64454093724919E+018,1,0,0,0,0,0,0,0,0,0,0,0,0,0,0,0,0,0,0,0,0,0,0,0,0,0,0.38245934248,-9.62032318115,0.696272134781,0,0,0,0,0,0,0,0,0,0.002014464,0.00077045057689,0.001402615149719,2.32806742638509E-06,4.23827658744673E-06
827837600,769538,1.64454093725121E+018,1,0,0,0,0,0,0,0,0,0,0,0,0,0,0,0,0,0,0,0,0,0,0,0,0,0,0.343232750893,-9.64974308014,0.666852176189,0,0,0,0,0,0,0,0,0,0.002015744,0.000691869358216,0.00134420327304,2.09194726141181E-06,4.06435452361587E-06
829691000,769539,1.64454093725322E+018,1,0,0,0,0,0,0,0,0,0,0,0,0,0,0,0,0,0,0,0,0,0,0,0,0,0,0.402072638273,-9.66935634613,0.764918684959,0,0,0,0,0,0,0,0,0,0.002014208,0.000809857924591,0.001540705334594,2.44683346586062E-06,4.65495151587256E-06
831818200,769540,1.64454093725523E+018,1,0,0,0,0,0,0,0,0,0,0,0,0,0,0,0,0,0,0,0,0,0,0,0,0,0,0.362846046686,-9.64974308014,0.725692093372,0,0,0,0,0,0,0,0,0,0.002013696,0.000730661632827,0.001461323265655,2.20699561106704E-06,4.41399122213408E-06
833798500,769541,1.64454093725725E+018,1,0,0,0,0,0,0,0,0,0,0,0,0,0,0,0,0,0,0,0,0,0,0,0,0,0,0.38245934248,-9.62032318115,0.725692093372,0,0,0,0,0,0,0,0,0,0.002014208,0.000770352667298,0.001461694820007,2.32747575793932E-06,4.41623610002387E-06
835797200,769542,1.64454093725926E+018,1,0,0,0,0,0,0,0,0,0,0,0,0,0,0,0,0,0,0,0,0,0,0,0,0,0,0.362846046686,-9.58109664917,0.696272134781,0,0,0,0,0,0,0,0,0,0.002016,0.000731497630119,0.001403684623719,2.21204883347978E-06,4.24474230212473E-06
837724200,769543,1.64454093726128E+018,1,0,0,0,0,0,0,0,0,0,0,0,0,0,0,0,0,0,0,0,0,0,0,0,0,0,0.38245934248,-9.61051654816,0.725692093372,0,0,0,0,0,0,0,0,0,0.002014464,0.00077045057689,0.001461880597183,2.32806742638509E-06,4.41735875298407E-06
839649100,769544,1.64454093726329E+018,1,0,0,0,0,0,0,0,0,0,0,0,0,0,0,0,0,0,0,0,0,0,0,0,0,0,0.38245934248,-9.61051654816,0.725692093372,0,0,0,0,0,0,0,0,0,0.002013696,0.000770156848115,0.001461323265655,2.32629264663149E-06,4.41399122213408E-06
841868500,769545,1.64454093726531E+018,1,0,0,0,0,0,0,0,0,0,0,0,0,0,0,0,0,0,0,0,0,0,0,0,0,0,0.362846046686,-9.62032318115,0.725692093372,0,0,0,0,0,0,0,0,0,0.002016256,0.000731590518707,0.001463181037414,2.21261065932893E-06,4.42522131865787E-06
843724200,769546,1.64454093726732E+018,1,0,0,0,0,0,0,0,0,0,0,0,0,0,0,0,0,0,0,0,0,0,0,0,0,0,0.38245934248,-9.62032318115,0.725692093372,0,0,0,0,0,0,0,0,0,0.002013696,0.000770156848115,0.001461323265655,2.32629264663149E-06,4.41399122213408E-06
845711200,769547,1.64454093726934E+018,1,0,0,0,0,0,0,0,0,0,0,0,0,0,0,0,0,0,0,0,0,0,0,0,0,0,0.402072638273,-9.58109664917,0.735498726368,0,0,0,0,0,0,0,0,0,0.002014208,0.000809857924591,0.00148144741864,2.44683346586062E-06,4.47591486330677E-06
848031500,769548,1.64454093727135E+018,1,0,0,0,0,0,0,0,0,0,0,0,0,0,0,0,0,0,0,0,0,0,0,0,0,0,0.362846046686,-9.58109664917,0.735498726368,0,0,0,0,0,0,0,0,0,0.002013952,0.000730754521415,0.001481259130966,2.20755679487027E-06,4.47477718399172E-06
849885800,769549,1.64454093727336E+018,1,0,0,0,0,0,0,0,0,0,0,0,0,0,0,0,0,0,0,0,0,0,0,0,0,0,0.362846046686,-9.58109664917,0.735498726368,0,0,0,0,0,0,0,0,0,0.002013952,0.000730754521415,0.001481259130966,2.20755679487027E-06,4.47477718399172E-06
852109500,769550,1.64454093727538E+018,1,0,0,0,0,0,0,0,0,0,0,0,0,0,0,0,0,0,0,0,0,0,0,0,0,0,0.343232750893,-9.58109664917,0.764918684959,0,0,0,0,0,0,0,0,0,0.002015744,0.000691869358216,0.001541880249694,2.09194726141181E-06,4.66205379305876E-06
853887100,769551,1.64454093727739E+018,1,0,0,0,0,0,0,0,0,0,0,0,0,0,0,0,0,0,0,0,0,0,0,0,0,0,0.362846046686,-9.64974308014,0.813951909542,0,0,0,0,0,0,0,0,0,0.002014208,0.000730847410003,0.001639468447815,2.20811805001193E-06,4.95334569500415E-06
855963600,769552,1.64454093727941E+018,1,0,0,0,0,0,0,0,0,0,0,0,0,0,0,0,0,0,0,0,0,0,0,0,0,0,0.402072638273,-9.62032318115,0.725692093372,0,0,0,0,0,0,0,0,0,0.002014208,0.000809857924591,0.001461694820007,2.44683346586062E-06,4.41623610002387E-06
858071100,769553,1.64454093728142E+018,1,0,0,0,0,0,0,0,0,0,0,0,0,0,0,0,0,0,0,0,0,0,0,0,0,0,0.38245934248,-9.62032318115,0.735498726368,0,0,0,0,0,0,0,0,0,0.002013952,0.000770254757706,0.001481259130966,2.32688416468812E-06,4.47477718399172E-06
860125100,769554,1.64454093728344E+018,1,0,0,0,0,0,0,0,0,0,0,0,0,0,0,0,0,0,0,0,0,0,0,0,0,0,0.343232750893,-9.61051654816,0.725692093372,0,0,0,0,0,0,0,0,0,0.002016,0.0006919572258,0.001462995260238,2.09247865082007E-06,4.42409766695957E-06
861927400,769555,1.64454093728545E+018,1,0,0,0,0,0,0,0,0,0,0,0,0,0,0,0,0,0,0,0,0,0,0,0,0,0,0.362846046686,-9.61051654816,0.735498726368,0,0,0,0,0,0,0,0,0,0.002014208,0.000730847410003,0.00148144741864,2.20811805001193E-06,4.47591486330677E-06
864082200,769556,1.64454093728747E+018,1,0,0,0,0,0,0,0,0,0,0,0,0,0,0,0,0,0,0,0,0,0,0,0,0,0,0.362846046686,-9.62032318115,0.735498726368,0,0,0,0,0,0,0,0,0,0.002013952,0.000730754521415,0.001481259130966,2.20755679487027E-06,4.47477718399172E-06
866049500,769557,1.64454093728948E+018,1,0,0,0,0,0,0,0,0,0,0,0,0,0,0,0,0,0,0,0,0,0,0,0,0,0,0.402072638273,-9.66935634613,0.725692093372,0,0,0,0,0,0,0,0,0,0.002013952,0.000809754993995,0.001461509042831,2.44621153449989E-06,4.41511358974054E-06
867989600,769558,1.6445409372915E+018,1,0,0,0,0,0,0,0,0,0,0,0,0,0,0,0,0,0,0,0,0,0,0,0,0,0,0.362846046686,-9.62032318115,0.725692093372,0,0,0,0,0,0,0,0,0,0.002016256,0.000731590518707,0.001463181037414,2.21261065932893E-06,4.42522131865787E-06
869948700,769559,1.64454093729351E+018,1,0,0,0,0,0,0,0,0,0,0,0,0,0,0,0,0,0,0,0,0,0,0,0,0,0,0.421685934067,-9.57129001617,0.725692093372,0,0,0,0,0,0,0,0,0,0.002013696,0.000849147278687,0.001461323265655,2.56488671775429E-06,4.41399122213408E-06
871984600,769560,1.64454093729552E+018,1,0,0,0,0,0,0,0,0,0,0,0,0,0,0,0,0,0,0,0,0,0,0,0,0,0,0.343232750893,-9.61051654816,0.696272134781,0,0,0,0,0,0,0,0,0,0.002014208,0.000691342152711,0.001402436904053,2.08876034209063E-06,4.23719944745808E-06
873937900,769561,1.64454093729754E+018,1,0,0,0,0,0,0,0,0,0,0,0,0,0,0,0,0,0,0,0,0,0,0,0,0,0,0.362846046686,-9.62032318115,0.725692093372,0,0,0,0,0,0,0,0,0,0.002013952,0.000730754521415,0.001461509042831,2.20755679487027E-06,4.41511358974054E-06
876084100,769562,1.64454093729955E+018,1,0,0,0,0,0,0,0,0,0,0,0,0,0,0,0,0,0,0,0,0,0,0,0,0,0,0.402072638273,-9.61051654816,0.764918684959,0,0,0,0,0,0,0,0,0,0.002016256,0.000810681369354,0.001542271888061,2.45181176257162E-06,4.66442242190055E-06
878305900,769563,1.64454093730157E+018,1,0,0,0,0,0,0,0,0,0,0,0,0,0,0,0,0,0,0,0,0,0,0,0,0,0,0.38245934248,-9.62032318115,0.696272134781,0,0,0,0,0,0,0,0,0,0.002013696,0.000770156848115,0.00140208041272,2.32629264663149E-06,4.2350455781588E-06
879942400,769564,1.64454093730358E+018,1,0,0,0,0,0,0,0,0,0,0,0,0,0,0,0,0,0,0,0,0,0,0,0,0,0,0.362846046686,-9.64974308014,0.686465501785,0,0,0,0,0,0,0,0,0,0.002014208,0.000730847410003,0.001382684305419,2.20811805001193E-06,4.17752068417518E-06
882163500,769565,1.6445409373056E+018,1,0,0,0,0,0,0,0,0,0,0,0,0,0,0,0,0,0,0,0,0,0,0,0,0,0,0.402072638273,-9.62032318115,0.735498726368,0,0,0,0,0,0,0,0,0,0.002016,0.000810578438758,0.001482765432358,2.4511891988053E-06,4.48388266745025E-06
884147100,769566,1.64454093730761E+018,1,0,0,0,0,0,0,0,0,0,0,0,0,0,0,0,0,0,0,0,0,0,0,0,0,0,0.38245934248,-9.62032318115,0.696272134781,0,0,0,0,0,0,0,0,0,0.002013952,0.000770254757706,0.001402258658386,2.32688416468812E-06,4.23612244436211E-06
886219300,769567,1.64454093730963E+018,1,0,0,0,0,0,0,0,0,0,0,0,0,0,0,0,0,0,0,0,0,0,0,0,0,0,0.38245934248,-9.62032318115,0.666852176189,0,0,0,0,0,0,0,0,0,0.002013952,0.000770254757706,0.00134300827394,2.32688416468812E-06,4.05713129897759E-06
888320700,769568,1.64454093731164E+018,1,0,0,0,0,0,0,0,0,0,0,0,0,0,0,0,0,0,0,0,0,0,0,0,0,0,0.402072638273,-9.58109664917,0.627625584602,0,0,0,0,0,0,0,0,0,0.00201472,0.000810063785781,0.001264489817809,2.44807756573419E-06,3.82138938860525E-06
890278700,769569,1.64454093731366E+018,1,0,0,0,0,0,0,0,0,0,0,0,0,0,0,0,0,0,0,0,0,0,0,0,0,0,0.362846046686,-9.62032318115,0.637432217598,0,0,0,0,0,0,0,0,0,0.002015232,0.000731218964355,0.001284573802734,2.21036378396295E-06,3.88307135044823E-06
892320300,769570,1.64454093731567E+018,1,0,0,0,0,0,0,0,0,0,0,0,0,0,0,0,0,0,0,0,0,0,0,0,0,0,0.402072638273,-9.62032318115,0.666852176189,0,0,0,0,0,0,0,0,0,0.002014464,0.000809960855186,0.001343349702254,2.44745547627206E-06,4.05919442190331E-06
894279900,769571,1.64454093731768E+018,1,0,0,0,0,0,0,0,0,0,0,0,0,0,0,0,0,0,0,0,0,0,0,0,0,0,0.402072638273,-9.62032318115,0.696272134781,0,0,0,0,0,0,0,0,0,0.002013696,0.0008096520634,0.00140208041272,2.44558968218985E-06,4.2350455781588E-06
896279100,769572,1.6445409373197E+018,1,0,0,0,0,0,0,0,0,0,0,0,0,0,0,0,0,0,0,0,0,0,0,0,0,0,0.38245934248,-9.61051654816,0.598205626011,0,0,0,0,0,0,0,0,0,0.002016256,0.000771135944031,0.001206135682678,2.33221121095333E-06,3.64781746052174E-06
898234400,769573,1.64454093732172E+018,1,0,0,0,0,0,0,0,0,0,0,0,0,0,0,0,0,0,0,0,0,0,0,0,0,0,0.402072638273,-9.64974308014,0.686465501785,0,0,0,0,0,0,0,0,0,0.002014208,0.000809857924591,0.001382684305419,2.44683346586062E-06,4.17752068417518E-06
900232100,769574,1.64454093732373E+018,1,0,0,0,0,0,0,0,0,0,0,0,0,0,0,0,0,0,0,0,0,0,0,0,0,0,0.402072638273,-9.62032318115,0.627625584602,0,0,0,0,0,0,0,0,0,0.002013696,0.0008096520634,0.001263847129211,2.44558968218985E-06,3.81750586305463E-06
902154100,769575,1.64454093732574E+018,1,0,0,0,0,0,0,0,0,0,0,0,0,0,0,0,0,0,0,0,0,0,0,0,0,0,0.402072638273,-9.62032318115,0.686465501785,0,0,0,0,0,0,0,0,0,0.002013952,0.000809754993995,0.001382508570251,2.44621153449989E-06,4.17645885011092E-06
904195400,769576,1.64454093732776E+018,1,0,0,0,0,0,0,0,0,0,0,0,0,0,0,0,0,0,0,0,0,0,0,0,0,0,0.38245934248,-9.61051654816,0.637432217598,0,0,0,0,0,0,0,0,0,0.002016256,0.000771135944031,0.001285226533325,2.33221121095333E-06,3.88701856376442E-06
906349700,769577,1.64454093732977E+018,1,0,0,0,0,0,0,0,0,0,0,0,0,0,0,0,0,0,0,0,0,0,0,0,0,0,0.38245934248,-9.62032318115,0.637432217598,0,0,0,0,0,0,0,0,0,0.002013952,0.000770254757706,0.001283757889496,2.32688416468812E-06,3.87814015359915E-06
908392100,769578,1.64454093733179E+018,1,0,0,0,0,0,0,0,0,0,0,0,0,0,0,0,0,0,0,0,0,0,0,0,0,0,0.343232750893,-9.62032318115,0.686465501785,0,0,0,0,0,0,0,0,0,0.002013952,0.000691254285126,0.001382508570251,2.0882294250585E-06,4.17645885011092E-06
910224900,769579,1.6445409373338E+018,1,0,0,0,0,0,0,0,0,0,0,0,0,0,0,0,0,0,0,0,0,0,0,0,0,0,0.402072638273,-9.66935634613,0.696272134781,0,0,0,0,0,0,0,0,0,0.002014208,0.000809857924591,0.001402436904053,2.44683346586062E-06,4.23719944745808E-06
912169900,769580,1.64454093733582E+018,1,0,0,0,0,0,0,0,0,0,0,0,0,0,0,0,0,0,0,0,0,0,0,0,0,0,0.402072638273,-9.64974308014,0.637432217598,0,0,0,0,0,0,0,0,0,0.002016,0.000810578438758,0.001285063350678,2.4511891988053E-06,3.88603157244897E-06
914218600,769581,1.64454093733783E+018,1,0,0,0,0,0,0,0,0,0,0,0,0,0,0,0,0,0,0,0,0,0,0,0,0,0,0.38245934248,-9.66935634613,0.666852176189,0,0,0,0,0,0,0,0,0,0.002013952,0.000770254757706,0.00134300827394,2.32688416468812E-06,4.05713129897759E-06
916180400,769582,1.64454093733985E+018,1,0,0,0,0,0,0,0,0,0,0,0,0,0,0,0,0,0,0,0,0,0,0,0,0,0,0.402072638273,-9.66935634613,0.627625584602,0,0,0,0,0,0,0,0,0,0.002013952,0.000809754993995,0.00126400780136,2.44621153449989E-06,3.81847655934797E-06
918555800,769583,1.64454093734186E+018,1,0,0,0,0,0,0,0,0,0,0,0,0,0,0,0,0,0,0,0,0,0,0,0,0,0,0.402072638273,-9.62032318115,0.686465501785,0,0,0,0,0,0,0,0,0,0.002016256,0.000810681369354,0.001384090186767,2.45181176257162E-06,4.18602021541518E-06
920412700,769584,1.64454093734387E+018,1,0,0,0,0,0,0,0,0,0,0,0,0,0,0,0,0,0,0,0,0,0,0,0,0,0,0.38245934248,-9.66935634613,0.666852176189,0,0,0,0,0,0,0,0,0,0.002013696,0.000770156848115,0.001342837559783,2.32629264663149E-06,4.05609993417744E-06
922522000,769585,1.64454093734589E+018,1,0,0,0,0,0,0,0,0,0,0,0,0,0,0,0,0,0,0,0,0,0,0,0,0,0,0.402072638273,-9.64974308014,0.696272134781,0,0,0,0,0,0,0,0,0,0.002014208,0.000809857924591,0.001402436904053,2.44683346586062E-06,4.23719944745808E-06
924526400,769586,1.6445409373479E+018,1,0,0,0,0,0,0,0,0,0,0,0,0,0,0,0,0,0,0,0,0,0,0,0,0,0,0.402072638273,-9.66935634613,0.598205626011,0,0,0,0,0,0,0,0,0,0.002015488,0.000810372577568,0.001205676260758,2.44994430842477E-06,3.6450390531629E-06
926538600,769587,1.64454093734992E+018,1,0,0,0,0,0,0,0,0,0,0,0,0,0,0,0,0,0,0,0,0,0,0,0,0,0,0.402072638273,-9.64974308014,0.637432217598,0,0,0,0,0,0,0,0,0,0.002014464,0.000809960855186,0.001284084254791,2.44745547627206E-06,3.88011225636596E-06
928752900,769588,1.64454093735194E+018,1,0,0,0,0,0,0,0,0,0,0,0,0,0,0,0,0,0,0,0,0,0,0,0,0,0,0.402072638273,-9.64974308014,0.637432217598,0,0,0,0,0,0,0,0,0,0.002016512,0.000810784299949,0.001285389715973,2.45243440538863E-06,3.88800568040415E-06
930557600,769589,1.64454093735395E+018,1,0,0,0,0,0,0,0,0,0,0,0,0,0,0,0,0,0,0,0,0,0,0,0,0,0,0.402072638273,-9.58109664917,0.686465501785,0,0,0,0,0,0,0,0,0,0.002013696,0.0008096520634,0.001382332835082,2.44558968218985E-06,4.17539715101128E-06
932529300,769590,1.64454093735596E+018,1,0,0,0,0,0,0,0,0,0,0,0,0,0,0,0,0,0,0,0,0,0,0,0,0,0,0.362846046686,-9.62032318115,0.637432217598,0,0,0,0,0,0,0,0,0,0.002014208,0.000730847410003,0.001283921072144,2.20811805001193E-06,3.87912614232042E-06
934426500,769591,1.64454093735798E+018,1,0,0,0,0,0,0,0,0,0,0,0,0,0,0,0,0,0,0,0,0,0,0,0,0,0,0.421685934067,-9.66935634613,0.686465501785,0,0,0,0,0,0,0,0,0,0.002013952,0.000849255230286,0.001382508570251,2.56553890431774E-06,4.17645885011092E-06
936599400,769592,1.64454093735999E+018,1,0,0,0,0,0,0,0,0,0,0,0,0,0,0,0,0,0,0,0,0,0,0,0,0,0,0.38245934248,-9.62032318115,0.686465501785,0,0,0,0,0,0,0,0,0,0.002016,0.00077103803444,0.001383914451599,2.33161901614559E-06,4.18495730163405E-06
938738500,769593,1.64454093736201E+018,1,0,0,0,0,0,0,0,0,0,0,0,0,0,0,0,0,0,0,0,0,0,0,0,0,0,0.362846046686,-9.61051654816,0.725692093372,0,0,0,0,0,0,0,0,0,0.002013696,0.000730661632827,0.001461323265655,2.20699561106704E-06,4.41399122213408E-06
940410000,769594,1.64454093736402E+018,1,0,0,0,0,0,0,0,0,0,0,0,0,0,0,0,0,0,0,0,0,0,0,0,0,0,0.362846046686,-9.64974308014,0.686465501785,0,0,0,0,0,0,0,0,0,0.00201472,0.000731033187179,0.001383035775756,2.20924077431057E-06,4.17964475719752E-06
942413900,769595,1.64454093736604E+018,1,0,0,0,0,0,0,0,0,0,0,0,0,0,0,0,0,0,0,0,0,0,0,0,0,0,0.362846046686,-9.61051654816,0.735498726368,0,0,0,0,0,0,0,0,0,0.002013696,0.000730661632827,0.001481070843292,2.20699561106704E-06,4.47363964928161E-06
944352300,769596,1.64454093736805E+018,1,0,0,0,0,0,0,0,0,0,0,0,0,0,0,0,0,0,0,0,0,0,0,0,0,0,0.402072638273,-9.62032318115,0.696272134781,0,0,0,0,0,0,0,0,0,0.002016,0.000810578438758,0.001403684623719,2.4511891988053E-06,4.24474230212473E-06
946576200,769597,1.64454093737007E+018,1,0,0,0,0,0,0,0,0,0,0,0,0,0,0,0,0,0,0,0,0,0,0,0,0,0,0.38245934248,-9.64974308014,0.686465501785,0,0,0,0,0,0,0,0,0,0.002013952,0.000770254757706,0.001382508570251,2.32688416468812E-06,4.17645885011092E-06
948871000,769598,1.64454093737208E+018,1,0,0,0,0,0,0,0,0,0,0,0,0,0,0,0,0,0,0,0,0,0,0,0,0,0,0.38245934248,-9.66935634613,0.696272134781,0,0,0,0,0,0,0,0,0,0.002014208,0.000770352667298,0.001402436904053,2.32747575793932E-06,4.23719944745808E-06
950542500,769599,1.64454093737409E+018,1,0,0,0,0,0,0,0,0,0,0,0,0,0,0,0,0,0,0,0,0,0,0,0,0,0,0.343232750893,-9.58109664917,0.686465501785,0,0,0,0,0,0,0,0,0,0.002013696,0.000691166417542,0.001382332835082,2.08769857550868E-06,4.17539715101128E-06
952772800,769600,1.64454093737611E+018,1,0,0,0,0,0,0,0,0,0,0,0,0,0,0,0,0,0,0,0,0,0,0,0,0,0,0.402072638273,-9.61051654816,0.735498726368,0,0,0,0,0,0,0,0,0,0.002016256,0.000810681369354,0.001482953720032,2.45181176257162E-06,4.48502150360477E-06
954839400,769601,1.64454093737812E+018,1,0,0,0,0,0,0,0,0,0,0,0,0,0,0,0,0,0,0,0,0,0,0,0,0,0,0.38245934248,-9.61051654816,0.725692093372,0,0,0,0,0,0,0,0,0,0.002013952,0.000770254757706,0.001461509042831,2.32688416468812E-06,4.41511358974054E-06
956761800,769602,1.64454093738014E+018,1,0,0,0,0,0,0,0,0,0,0,0,0,0,0,0,0,0,0,0,0,0,0,0,0,0,0.402072638273,-9.62032318115,0.735498726368,0,0,0,0,0,0,0,0,0,0.002013952,0.000809754993995,0.001481259130966,2.44621153449989E-06,4.47477718399172E-06
958787300,769603,1.64454093738215E+018,1,0,0,0,0,0,0,0,0,0,0,0,0,0,0,0,0,0,0,0,0,0,0,0,0,0,0.362846046686,-9.64974308014,0.735498726368,0,0,0,0,0,0,0,0,0,0.002016256,0.000731590518707,0.001482953720032,2.21261065932893E-06,4.48502150360477E-06
960689100,769604,1.64454093738417E+018,1,0,0,0,0,0,0,0,0,0,0,0,0,0,0,0,0,0,0,0,0,0,0,0,0,0,0.38245934248,-9.57129001617,0.725692093372,0,0,0,0,0,0,0,0,0,0.002013952,0.000770254757706,0.001461509042831,2.32688416468812E-06,4.41511358974054E-06
962645400,769605,1.64454093738618E+018,1,0,0,0,0,0,0,0,0,0,0,0,0,0,0,0,0,0,0,0,0,0,0,0,0,0,0.362846046686,-9.61051654816,0.725692093372,0,0,0,0,0,0,0,0,0,0.002013952,0.000730754521415,0.001461509042831,2.20755679487027E-06,4.41511358974054E-06
964689000,769606,1.6445409373882E+018,1,0,0,0,0,0,0,0,0,0,0,0,0,0,0,0,0,0,0,0,0,0,0,0,0,0,0.343232750893,-9.64974308014,0.696272134781,0,0,0,0,0,0,0,0,0,0.002016256,0.000692045093385,0.001403862869385,2.09301010771064E-06,4.24582040036209E-06
966698700,769607,1.64454093739021E+018,1,0,0,0,0,0,0,0,0,0,0,0,0,0,0,0,0,0,0,0,0,0,0,0,0,0,0.362846046686,-9.64974308014,0.725692093372,0,0,0,0,0,0,0,0,0,0.002013952,0.000730754521415,0.001461509042831,2.20755679487027E-06,4.41511358974054E-06
969076400,769608,1.64454093739223E+018,1,0,0,0,0,0,0,0,0,0,0,0,0,0,0,0,0,0,0,0,0,0,0,0,0,0,0.38245934248,-9.61051654816,0.725692093372,0,0,0,0,0,0,0,0,0,0.002013696,0.000770156848115,0.001461323265655,2.32629264663149E-06,4.41399122213408E-06
970794100,769609,1.64454093739424E+018,1,0,0,0,0,0,0,0,0,0,0,0,0,0,0,0,0,0,0,0,0,0,0,0,0,0,0.362846046686,-9.61051654816,0.696272134781,0,0,0,0,0,0,0,0,0,0.002016512,0.000731683407295,0.001404041115052,2.21317255651652E-06,4.24689863549211E-06
972638600,769610,1.64454093739626E+018,1,0,0,0,0,0,0,0,0,0,0,0,0,0,0,0,0,0,0,0,0,0,0,0,0,0,0.362846046686,-9.64974308014,0.764918684959,0,0,0,0,0,0,0,0,0,0.002013952,0.000730754521415,0.001540509515411,2.20755679487027E-06,4.65376832937016E-06
974713200,769611,1.64454093739827E+018,1,0,0,0,0,0,0,0,0,0,0,0,0,0,0,0,0,0,0,0,0,0,0,0,0,0,0.38245934248,-9.61051654816,0.696272134781,0,0,0,0,0,0,0,0,0,0.002013696,0.000770156848115,0.00140208041272,2.32629264663149E-06,4.2350455781588E-06
976828100,769612,1.64454093740029E+018,1,0,0,0,0,0,0,0,0,0,0,0,0,0,0,0,0,0,0,0,0,0,0,0,0,0,0.38245934248,-9.64974308014,0.696272134781,0,0,0,0,0,0,0,0,0,0.002016512,0.000771233853623,0.001404041115052,2.33280348095562E-06,4.24689863549211E-06
978858100,769613,1.6445409374023E+018,1,0,0,0,0,0,0,0,0,0,0,0,0,0,0,0,0,0,0,0,0,0,0,0,0,0,0.362846046686,-9.61051654816,0.735498726368,0,0,0,0,0,0,0,0,0,0.002013184,0.000730475855652,0.001480694267944,2.20587345747589E-06,4.47136501367618E-06
980642600,769614,1.64454093740431E+018,1,0,0,0,0,0,0,0,0,0,0,0,0,0,0,0,0,0,0,0,0,0,0,0,0,0,0.421685934067,-9.58109664917,0.725692093372,0,0,0,0,0,0,0,0,0,0.002014208,0.000849363181885,0.001461694820007,2.56619117378801E-06,4.41623610002387E-06
982763500,769615,1.64454093740633E+018,1,0,0,0,0,0,0,0,0,0,0,0,0,0,0,0,0,0,0,0,0,0,0,0,0,0,0.38245934248,-9.64974308014,0.696272134781,0,0,0,0,0,0,0,0,0,0.002013696,0.000770156848115,0.00140208041272,2.32629264663149E-06,4.2350455781588E-06
985343600,769616,1.64454093740834E+018,1,0,0,0,0,0,0,0,0,0,0,0,0,0,0,0,0,0,0,0,0,0,0,0,0,0,0.38245934248,-9.62032318115,0.686465501785,0,0,0,0,0,0,0,0,0,0.002015744,0.000770940124848,0.00138373871643,2.33102689653243E-06,4.18389452281752E-06
986975600,769617,1.64454093741036E+018,1,0,0,0,0,0,0,0,0,0,0,0,0,0,0,0,0,0,0,0,0,0,0,0,0,0,0.402072638273,-9.61051654816,0.735498726368,0,0,0,0,0,0,0,0,0,0.002014208,0.000809857924591,0.00148144741864,2.44683346586062E-06,4.47591486330677E-06
989017900,769618,1.64454093741237E+018,1,0,0,0,0,0,0,0,0,0,0,0,0,0,0,0,0,0,0,0,0,0,0,0,0,0,0.38245934248,-9.62032318115,0.725692093372,0,0,0,0,0,0,0,0,0,0.002013952,0.000770254757706,0.001461509042831,2.32688416468812E-06,4.41511358974054E-06
991040700,769619,1.64454093741439E+018,1,0,0,0,0,0,0,0,0,0,0,0,0,0,0,0,0,0,0,0,0,0,0,0,0,0,0.38245934248,-9.58109664917,0.686465501785,0,0,0,0,0,0,0,0,0,0.002015744,0.000770940124848,0.00138373871643,2.33102689653243E-06,4.18389452281752E-06
993031400,769620,1.6445409374164E+018,1,0,0,0,0,0,0,0,0,0,0,0,0,0,0,0,0,0,0,0,0,0,0,0,0,0,0.38245934248,-9.58109664917,0.725692093372,0,0,0,0,0,0,0,0,0,0.002013696,0.000770156848115,0.001461323265655,2.32629264663149E-06,4.41399122213408E-06
994906400,769621,1.64454093741841E+018,1,0,0,0,0,0,0,0,0,0,0,0,0,0,0,0,0,0,0,0,0,0,0,0,0,0,0.362846046686,-9.58109664917,0.696272134781,0,0,0,0,0,0,0,0,0,0.002013952,0.000730754521415,0.001402258658386,2.20755679487027E-06,4.23612244436211E-06
996909100,769622,1.64454093742043E+018,1,0,0,0,0,0,0,0,0,0,0,0,0,0,0,0,0,0,0,0,0,0,0,0,0,0,0.38245934248,-9.57129001617,0.637432217598,0,0,0,0,0,0,0,0,0,0.002014208,0.000770352667298,0.001283921072144,2.32747575793932E-06,3.87912614232042E-06
998915500,769623,1.64454093742244E+018,1,0,0,0,0,0,0,0,0,0,0,0,0,0,0,0,0,0,0,0,0,0,0,0,0,0,0.38245934248,-9.61051654816,0.696272134781,0,0,0,0,0,0,0,0,0,0.002015744,0.000770940124848,0.001403506378052,2.33102689653243E-06,4.24366434078005E-06
1000924300,769624,1.64454093742446E+018,1,0,0,0,0,0,0,0,0,0,0,0,0,0,0,0,0,0,0,0,0,0,0,0,0,0,0.38245934248,-9.67916297913,0.725692093372,0,0,0,0,0,0,0,0,0,0.002013696,0.000770156848115,0.001461323265655,2.32629264663149E-06,4.41399122213408E-06
1002904300,769625,1.64454093742647E+018,1,0,0,0,0,0,0,0,0,0,0,0,0,0,0,0,0,0,0,0,0,0,0,0,0,0,0.38245934248,-9.62032318115,0.686465501785,0,0,0,0,0,0,0,0,0,0.002013696,0.000770156848115,0.001382332835082,2.32629264663149E-06,4.17539715101128E-06
1005013600,769626,1.64454093742849E+018,1,0,0,0,0,0,0,0,0,0,0,0,0,0,0,0,0,0,0,0,0,0,0,0,0,0,0.362846046686,-9.61051654816,0.666852176189,0,0,0,0,0,0,0,0,0,0.002016,0.000731497630119,0.001344373987197,2.21204883347978E-06,4.0653869372838E-06
1006945100,769627,1.6445409374305E+018,1,0,0,0,0,0,0,0,0,0,0,0,0,0,0,0,0,0,0,0,0,0,0,0,0,0,0.38245934248,-9.58109664917,0.696272134781,0,0,0,0,0,0,0,0,0,0.002014208,0.000770352667298,0.001402436904053,2.32747575793932E-06,4.23719944745808E-06
1009004300,769628,1.64454093743252E+018,1,0,0,0,0,0,0,0,0,0,0,0,0,0,0,0,0,0,0,0,0,0,0,0,0,0,0.38245934248,-9.62032318115,0.598205626011,0,0,0,0,0,0,0,0,0,0.002013696,0.000770156848115,0.001204604276276,2.32629264663149E-06,3.63856021907935E-06
1010873200,769629,1.64454093743453E+018,1,0,0,0,0,0,0,0,0,0,0,0,0,0,0,0,0,0,0,0,0,0,0,0,0,0,0.402072638273,-9.62032318115,0.666852176189,0,0,0,0,0,0,0,0,0,0.002013696,0.0008096520634,0.001342837559783,2.44558968218985E-06,4.05609993417744E-06
1012918700,769630,1.64454093743655E+018,1,0,0,0,0,0,0,0,0,0,0,0,0,0,0,0,0,0,0,0,0,0,0,0,0,0,0.362846046686,-9.64974308014,0.686465501785,0,0,0,0,0,0,0,0,0,0.002016,0.000731497630119,0.001383914451599,2.21204883347978E-06,4.18495730163405E-06
1014889400,769631,1.64454093743856E+018,1,0,0,0,0,0,0,0,0,0,0,0,0,0,0,0,0,0,0,0,0,0,0,0,0,0,0.362846046686,-9.61051654816,0.666852176189,0,0,0,0,0,0,0,0,0,0.002014208,0.000730847410003,0.001343178988097,2.20811805001193E-06,4.05816279488621E-06
1017091300,769632,1.64454093744057E+018,1,0,0,0,0,0,0,0,0,0,0,0,0,0,0,0,0,0,0,0,0,0,0,0,0,0,0.402072638273,-9.62032318115,0.735498726368,0,0,0,0,0,0,0,0,0,0.002013696,0.0008096520634,0.001481070843292,2.44558968218985E-06,4.47363964928161E-06
1018942500,769633,1.64454093744259E+018,1,0,0,0,0,0,0,0,0,0,0,0,0,0,0,0,0,0,0,0,0,0,0,0,0,0,0.402072638273,-9.61051654816,0.637432217598,0,0,0,0,0,0,0,0,0,0.002015744,0.000810475508163,0.00128490016803,2.45056671408969E-06,3.88504470645778E-06
1020878100,769634,1.6445409374446E+018,1,0,0,0,0,0,0,0,0,0,0,0,0,0,0,0,0,0,0,0,0,0,0,0,0,0,0.362846046686,-9.57129001617,0.637432217598,0,0,0,0,0,0,0,0,0,0.002013952,0.000730754521415,0.001283757889496,2.20755679487027E-06,3.87814015359915E-06
1023087700,769635,1.64454093744662E+018,1,0,0,0,0,0,0,0,0,0,0,0,0,0,0,0,0,0,0,0,0,0,0,0,0,0,0.402072638273,-9.64974308014,0.686465501785,0,0,0,0,0,0,0,0,0,0.002015744,0.000810475508163,0.00138373871643,2.45056671408969E-06,4.18389452281752E-06
1025071500,769636,1.64454093744863E+018,1,0,0,0,0,0,0,0,0,0,0,0,0,0,0,0,0,0,0,0,0,0,0,0,0,0,0.402072638273,-9.64974308014,0.686465501785,0,0,0,0,0,0,0,0,0,0.002013952,0.000809754993995,0.001382508570251,2.44621153449989E-06,4.17645885011092E-06
1027196800,769637,1.64454093745065E+018,1,0,0,0,0,0,0,0,0,0,0,0,0,0,0,0,0,0,0,0,0,0,0,0,0,0,0.402072638273,-9.64974308014,0.666852176189,0,0,0,0,0,0,0,0,0,0.002016256,0.000810681369354,0.001344544701354,2.45181176257162E-06,4.06641948206021E-06
1029158600,769638,1.64454093745266E+018,1,0,0,0,0,0,0,0,0,0,0,0,0,0,0,0,0,0,0,0,0,0,0,0,0,0,0.402072638273,-9.64974308014,0.686465501785,0,0,0,0,0,0,0,0,0,0.002013696,0.0008096520634,0.001382332835082,2.44558968218985E-06,4.17539715101128E-06
1031153800,769639,1.64454093745468E+018,1,0,0,0,0,0,0,0,0,0,0,0,0,0,0,0,0,0,0,0,0,0,0,0,0,0,0.402072638273,-9.62032318115,0.57859236002,0,0,0,0,0,0,0,0,0,0.002014208,0.000809857924591,0.001165405360291,2.44683346586062E-06,3.52105319991202E-06
1033821100,769640,1.64454093745669E+018,1,0,0,0,0,0,0,0,0,0,0,0,0,0,0,0,0,0,0,0,0,0,0,0,0,0,0.38245934248,-9.66935634613,0.666852176189,0,0,0,0,0,0,0,0,0,0.002015744,0.000770940124848,0.00134420327304,2.33102689653243E-06,4.06435452361587E-06
1035236400,769641,1.64454093745871E+018,1,0,0,0,0,0,0,0,0,0,0,0,0,0,0,0,0,0,0,0,0,0,0,0,0,0,0.362846046686,-9.64974308014,0.686465501785,0,0,0,0,0,0,0,0,0,0.002014208,0.000730847410003,0.001382684305419,2.20811805001193E-06,4.17752068417518E-06
1037407300,769642,1.64454093746072E+018,1,0,0,0,0,0,0,0,0,0,0,0,0,0,0,0,0,0,0,0,0,0,0,0,0,0,0.402072638273,-9.64974308014,0.637432217598,0,0,0,0,0,0,0,0,0,0.002013696,0.0008096520634,0.001283594706848,2.44558968218985E-06,3.87715429020216E-06
1039222400,769643,1.64454093746274E+018,1,0,0,0,0,0,0,0,0,0,0,0,0,0,0,0,0,0,0,0,0,0,0,0,0,0,0.402072638273,-9.64974308014,0.686465501785,0,0,0,0,0,0,0,0,0,0.002016,0.000810578438758,0.001383914451599,2.4511891988053E-06,4.18495730163405E-06
1041228500,769644,1.64454093746475E+018,1,0,0,0,0,0,0,0,0,0,0,0,0,0,0,0,0,0,0,0,0,0,0,0,0,0,0.402072638273,-9.66935634613,0.686465501785,0,0,0,0,0,0,0,0,0,0.002013952,0.000809754993995,0.001382508570251,2.44621153449989E-06,4.17645885011092E-06
1043187200,769645,1.64454093746677E+018,1,0,0,0,0,0,0,0,0,0,0,0,0,0,0,0,0,0,0,0,0,0,0,0,0,0,0.402072638273,-9.64974308014,0.666852176189,0,0,0,0,0,0,0,0,0,0.002015744,0.000810475508163,0.00134420327304,2.45056671408969E-06,4.06435452361587E-06
1045268500,769646,1.64454093746878E+018,1,0,0,0,0,0,0,0,0,0,0,0,0,0,0,0,0,0,0,0,0,0,0,0,0,0,0.421685934067,-9.58109664917,0.686465501785,0,0,0,0,0,0,0,0,0,0.002014464,0.000849471133484,0.001382860040588,2.56684352616511E-06,4.17858265320405E-06
1047288100,769647,1.64454093747079E+018,1,0,0,0,0,0,0,0,0,0,0,0,0,0,0,0,0,0,0,0,0,0,0,0,0,0,0.402072638273,-9.62032318115,0.627625584602,0,0,0,0,0,0,0,0,0,0.002013696,0.0008096520634,0.001263847129211,2.44558968218985E-06,3.81750586305463E-06
1049221400,769648,1.64454093747281E+018,1,0,0,0,0,0,0,0,0,0,0,0,0,0,0,0,0,0,0,0,0,0,0,0,0,0,0.421685934067,-9.66935634613,0.666852176189,0,0,0,0,0,0,0,0,0,0.002013952,0.000849255230286,0.00134300827394,2.56553890431774E-06,4.05713129897759E-06
1051374400,769649,1.64454093747482E+018,1,0,0,0,0,0,0,0,0,0,0,0,0,0,0,0,0,0,0,0,0,0,0,0,0,0,0.402072638273,-9.62032318115,0.696272134781,0,0,0,0,0,0,0,0,0,0.002015744,0.000810475508163,0.001403506378052,2.45056671408969E-06,4.24366434078005E-06
1053827200,769650,1.64454093747684E+018,1,0,0,0,0,0,0,0,0,0,0,0,0,0,0,0,0,0,0,0,0,0,0,0,0,0,0.402072638273,-9.62032318115,0.696272134781,0,0,0,0,0,0,0,0,0,0.002014208,0.000809857924591,0.001402436904053,2.44683346586062E-06,4.23719944745808E-06
1055222300,769651,1.64454093747885E+018,1,0,0,0,0,0,0,0,0,0,0,0,0,0,0,0,0,0,0,0,0,0,0,0,0,0,0.38245934248,-9.62032318115,0.686465501785,0,0,0,0,0,0,0,0,0,0.002014208,0.000770352667298,0.001382684305419,2.32747575793932E-06,4.17752068417518E-06
1057624400,769652,1.64454093748087E+018,1,0,0,0,0,0,0,0,0,0,0,0,0,0,0,0,0,0,0,0,0,0,0,0,0,0,0.402072638273,-9.66935634613,0.696272134781,0,0,0,0,0,0,0,0,0,0.002015744,0.000810475508163,0.001403506378052,2.45056671408969E-06,4.24366434078005E-06
1059427400,769653,1.64454093748288E+018,1,0,0,0,0,0,0,0,0,0,0,0,0,0,0,0,0,0,0,0,0,0,0,0,0,0,0.362846046686,-9.66935634613,0.725692093372,0,0,0,0,0,0,0,0,0,0.002014208,0.000730847410003,0.001461694820007,2.20811805001193E-06,4.41623610002387E-06
1061590300,769654,1.6445409374849E+018,1,0,0,0,0,0,0,0,0,0,0,0,0,0,0,0,0,0,0,0,0,0,0,0,0,0,0.362846046686,-9.62032318115,0.686465501785,0,0,0,0,0,0,0,0,0,0.002016,0.000731497630119,0.001383914451599,2.21204883347978E-06,4.18495730163405E-06
1063461600,769655,1.64454093748691E+018,1,0,0,0,0,0,0,0,0,0,0,0,0,0,0,0,0,0,0,0,0,0,0,0,0,0,0.402072638273,-9.61051654816,0.735498726368,0,0,0,0,0,0,0,0,0,0.002013696,0.0008096520634,0.001481070843292,2.44558968218985E-06,4.47363964928161E-06
1065449800,769656,1.64454093748893E+018,1,0,0,0,0,0,0,0,0,0,0,0,0,0,0,0,0,0,0,0,0,0,0,0,0,0,0.402072638273,-9.64974308014,0.696272134781,0,0,0,0,0,0,0,0,0,0.002013952,0.000809754993995,0.001402258658386,2.44621153449989E-06,4.23612244436211E-06
1067881500,769657,1.64454093749094E+018,1,0,0,0,0,0,0,0,0,0,0,0,0,0,0,0,0,0,0,0,0,0,0,0,0,0,0.362846046686,-9.64974308014,0.696272134781,0,0,0,0,0,0,0,0,0,0.002016256,0.000731590518707,0.001403862869385,2.21261065932893E-06,4.24582040036209E-06
1069403700,769658,1.64454093749296E+018,1,0,0,0,0,0,0,0,0,0,0,0,0,0,0,0,0,0,0,0,0,0,0,0,0,0,0.402072638273,-9.62032318115,0.725692093372,0,0,0,0,0,0,0,0,0,0.002013952,0.000809754993995,0.001461509042831,2.44621153449989E-06,4.41511358974054E-06
1071574600,769659,1.64454093749497E+018,1,0,0,0,0,0,0,0,0,0,0,0,0,0,0,0,0,0,0,0,0,0,0,0,0,0,0.402072638273,-9.61051654816,0.725692093372,0,0,0,0,0,0,0,0,0,0.002013952,0.000809754993995,0.001461509042831,2.44621153449989E-06,4.41511358974054E-06
1073450000,769660,1.64454093749698E+018,1,0,0,0,0,0,0,0,0,0,0,0,0,0,0,0,0,0,0,0,0,0,0,0,0,0,0.38245934248,-9.64974308014,0.735498726368,0,0,0,0,0,0,0,0,0,0.002013952,0.000770254757706,0.001481259130966,2.32688416468812E-06,4.47477718399172E-06
1075420600,769661,1.644540937499E+018,1,0,0,0,0,0,0,0,0,0,0,0,0,0,0,0,0,0,0,0,0,0,0,0,0,0,0.402072638273,-9.62032318115,0.686465501785,0,0,0,0,0,0,0,0,0,0.002016,0.000810578438758,0.001383914451599,2.4511891988053E-06,4.18495730163405E-06
1077459900,769662,1.64454093750101E+018,1,0,0,0,0,0,0,0,0,0,0,0,0,0,0,0,0,0,0,0,0,0,0,0,0,0,0.38245934248,-9.62032318115,0.725692093372,0,0,0,0,0,0,0,0,0,0.002013696,0.000770156848115,0.001461323265655,2.32629264663149E-06,4.41399122213408E-06
1079536000,769663,1.64454093750303E+018,1,0,0,0,0,0,0,0,0,0,0,0,0,0,0,0,0,0,0,0,0,0,0,0,0,0,0.362846046686,-9.64974308014,0.686465501785,0,0,0,0,0,0,0,0,0,0.002013696,0.000730661632827,0.001382332835082,2.20699561106704E-06,4.17539715101128E-06
1081434400,769664,1.64454093750504E+018,1,0,0,0,0,0,0,0,0,0,0,0,0,0,0,0,0,0,0,0,0,0,0,0,0,0,0.38245934248,-9.61051654816,0.764918684959,0,0,0,0,0,0,0,0,0,0.002016512,0.000771233853623,0.001542467707244,2.33280348095562E-06,4.66560696190515E-06
1083514800,769665,1.64454093750706E+018,1,0,0,0,0,0,0,0,0,0,0,0,0,0,0,0,0,0,0,0,0,0,0,0,0,0,0.402072638273,-9.62032318115,0.725692093372,0,0,0,0,0,0,0,0,0,0.002013696,0.0008096520634,0.001461323265655,2.44558968218985E-06,4.41399122213408E-06
1085445200,769666,1.64454093750907E+018,1,0,0,0,0,0,0,0,0,0,0,0,0,0,0,0,0,0,0,0,0,0,0,0,0,0,0.38245934248,-9.62032318115,0.696272134781,0,0,0,0,0,0,0,0,0,0.002013952,0.000770254757706,0.001402258658386,2.32688416468812E-06,4.23612244436211E-06
1087438100,769667,1.64454093751109E+018,1,0,0,0,0,0,0,0,0,0,0,0,0,0,0,0,0,0,0,0,0,0,0,0,0,0,0.402072638273,-9.58109664917,0.666852176189,0,0,0,0,0,0,0,0,0,0.002015744,0.000810475508163,0.00134420327304,2.45056671408969E-06,4.06435452361587E-06
1089449700,769668,1.6445409375131E+018,1,0,0,0,0,0,0,0,0,0,0,0,0,0,0,0,0,0,0,0,0,0,0,0,0,0,0.402072638273,-9.62032318115,0.696272134781,0,0,0,0,0,0,0,0,0,0.002014464,0.000809960855186,0.001402615149719,2.44745547627206E-06,4.23827658744673E-06
1091796200,769669,1.64454093751512E+018,1,0,0,0,0,0,0,0,0,0,0,0,0,0,0,0,0,0,0,0,0,0,0,0,0,0,0.38245934248,-9.64974308014,0.764918684959,0,0,0,0,0,0,0,0,0,0.002013952,0.000770254757706,0.001540509515411,2.32688416468812E-06,4.65376832937016E-06
1093683100,769670,1.64454093751713E+018,1,0,0,0,0,0,0,0,0,0,0,0,0,0,0,0,0,0,0,0,0,0,0,0,0,0,0.402072638273,-9.62032318115,0.735498726368,0,0,0,0,0,0,0,0,0,0.002015744,0.000810475508163,0.001482577144684,2.45056671408969E-06,4.48274397590067E-06
1095747200,769671,1.64454093751915E+018,1,0,0,0,0,0,0,0,0,0,0,0,0,0,0,0,0,0,0,0,0,0,0,0,0,0,0.362846046686,-9.58109664917,0.764918684959,0,0,0,0,0,0,0,0,0,0.002014208,0.000730847410003,0.001540705334594,2.20811805001193E-06,4.65495151587256E-06
1097833100,769672,1.64454093752116E+018,1,0,0,0,0,0,0,0,0,0,0,0,0,0,0,0,0,0,0,0,0,0,0,0,0,0,0.402072638273,-9.58109664917,0.666852176189,0,0,0,0,0,0,0,0,0,0.002013696,0.0008096520634,0.001342837559783,2.44558968218985E-06,4.05609993417744E-06
1099730900,769673,1.64454093752318E+018,1,0,0,0,0,0,0,0,0,0,0,0,0,0,0,0,0,0,0,0,0,0,0,0,0,0,0.38245934248,-9.62032318115,0.725692093372,0,0,0,0,0,0,0,0,0,0.002016,0.00077103803444,0.001462995260238,2.33161901614559E-06,4.42409766695957E-06
1101699200,769674,1.64454093752519E+018,1,0,0,0,0,0,0,0,0,0,0,0,0,0,0,0,0,0,0,0,0,0,0,0,0,0,0.343232750893,-9.62032318115,0.725692093372,0,0,0,0,0,0,0,0,0,0.002013952,0.000691254285126,0.001461509042831,2.0882294250585E-06,4.41511358974054E-06
1103911500,769675,1.6445409375272E+018,1,0,0,0,0,0,0,0,0,0,0,0,0,0,0,0,0,0,0,0,0,0,0,0,0,0,0.362846046686,-9.62032318115,0.686465501785,0,0,0,0,0,0,0,0,0,0.002013952,0.000730754521415,0.001382508570251,2.20755679487027E-06,4.17645885011092E-06
1105763000,769676,1.64454093752922E+018,1,0,0,0,0,0,0,0,0,0,0,0,0,0,0,0,0,0,0,0,0,0,0,0,0,0,0.38245934248,-9.58109664917,0.666852176189,0,0,0,0,0,0,0,0,0,0.002016,0.00077103803444,0.001344373987197,2.33161901614559E-06,4.0653869372838E-06
1107669300,769677,1.64454093753123E+018,1,0,0,0,0,0,0,0,0,0,0,0,0,0,0,0,0,0,0,0,0,0,0,0,0,0,0.38245934248,-9.61051654816,0.686465501785,0,0,0,0,0,0,0,0,0,0.002013952,0.000770254757706,0.001382508570251,2.32688416468812E-06,4.17645885011092E-06
1109703500,769678,1.64454093753325E+018,1,0,0,0,0,0,0,0,0,0,0,0,0,0,0,0,0,0,0,0,0,0,0,0,0,0,0.343232750893,-9.66935634613,0.696272134781,0,0,0,0,0,0,0,0,0,0.002013952,0.000691254285126,0.001402258658386,2.0882294250585E-06,4.23612244436211E-06
1111702700,769679,1.64454093753526E+018,1,0,0,0,0,0,0,0,0,0,0,0,0,0,0,0,0,0,0,0,0,0,0,0,0,0,0.313812792301,-9.62032318115,0.764918684959,0,0,0,0,0,0,0,0,0,0.002016256,0.000632726925354,0.001542271888061,1.91360918940876E-06,4.66442242190055E-06
1113797400,769680,1.64454093753728E+018,1,0,0,0,0,0,0,0,0,0,0,0,0,0,0,0,0,0,0,0,0,0,0,0,0,0,0.38245934248,-9.64974308014,0.666852176189,0,0,0,0,0,0,0,0,0,0.002013696,0.000770156848115,0.001342837559783,2.32629264663149E-06,4.05609993417744E-06
1115708000,769681,1.64454093753929E+018,1,0,0,0,0,0,0,0,0,0,0,0,0,0,0,0,0,0,0,0,0,0,0,0,0,0,0.38245934248,-9.64974308014,0.666852176189,0,0,0,0,0,0,0,0,0,0.002014208,0.000770352667298,0.001343178988097,2.32747575793932E-06,4.05816279488621E-06
1117710100,769682,1.64454093754131E+018,1,0,0,0,0,0,0,0,0,0,0,0,0,0,0,0,0,0,0,0,0,0,0,0,0,0,0.38245934248,-9.61051654816,0.696272134781,0,0,0,0,0,0,0,0,0,0.002015744,0.000770940124848,0.001403506378052,2.33102689653243E-06,4.24366434078005E-06
1120013400,769683,1.64454093754332E+018,1,0,0,0,0,0,0,0,0,0,0,0,0,0,0,0,0,0,0,0,0,0,0,0,0,0,0.362846046686,-9.64974308014,0.686465501785,0,0,0,0,0,0,0,0,0,0.002014208,0.000730847410003,0.001382684305419,2.20811805001193E-06,4.17752068417518E-06
1122053100,769684,1.64454093754534E+018,1,0,0,0,0,0,0,0,0,0,0,0,0,0,0,0,0,0,0,0,0,0,0,0,0,0,0.402072638273,-9.61051654816,0.696272134781,0,0,0,0,0,0,0,0,0,0.002014208,0.000809857924591,0.001402436904053,2.44683346586062E-06,4.23719944745808E-06
1123764700,769685,1.64454093754735E+018,1,0,0,0,0,0,0,0,0,0,0,0,0,0,0,0,0,0,0,0,0,0,0,0,0,0,0.38245934248,-9.62032318115,0.735498726368,0,0,0,0,0,0,0,0,0,0.002013696,0.000770156848115,0.001481070843292,2.32629264663149E-06,4.47363964928161E-06
1125969400,769686,1.64454093754937E+018,1,0,0,0,0,0,0,0,0,0,0,0,0,0,0,0,0,0,0,0,0,0,0,0,0,0,0.362846046686,-9.61051654816,0.686465501785,0,0,0,0,0,0,0,0,0,0.002016256,0.000731590518707,0.001384090186767,2.21261065932893E-06,4.18602021541518E-06
1128068800,769687,1.64454093755138E+018,1,0,0,0,0,0,0,0,0,0,0,0,0,0,0,0,0,0,0,0,0,0,0,0,0,0,0.38245934248,-9.58109664917,0.686465501785,0,0,0,0,0,0,0,0,0,0.002013696,0.000770156848115,0.001382332835082,2.32629264663149E-06,4.17539715101128E-06
1129975400,769688,1.6445409375534E+018,1,0,0,0,0,0,0,0,0,0,0,0,0,0,0,0,0,0,0,0,0,0,0,0,0,0,0.38245934248,-9.61051654816,0.637432217598,0,0,0,0,0,0,0,0,0,0.002015744,0.000770940124848,0.00128490016803,2.33102689653243E-06,3.88504470645778E-06
1132471000,769689,1.64454093755541E+018,1,0,0,0,0,0,0,0,0,0,0,0,0,0,0,0,0,0,0,0,0,0,0,0,0,0,0.38245934248,-9.64974308014,0.666852176189,0,0,0,0,0,0,0,0,0,0.002014208,0.000770352667298,0.001343178988097,2.32747575793932E-06,4.05816279488621E-06
1134329300,769690,1.64454093755742E+018,1,0,0,0,0,0,0,0,0,0,0,0,0,0,0,0,0,0,0,0,0,0,0,0,0,0,0.402072638273,-9.64974308014,0.637432217598,0,0,0,0,0,0,0,0,0,0.002013952,0.000809754993995,0.001283757889496,2.44621153449989E-06,3.87814015359915E-06
1135968000,769691,1.64454093755944E+018,1,0,0,0,0,0,0,0,0,0,0,0,0,0,0,0,0,0,0,0,0,0,0,0,0,0,0.38245934248,-9.57129001617,0.666852176189,0,0,0,0,0,0,0,0,0,0.002016,0.00077103803444,0.001344373987197,2.33161901614559E-06,4.0653869372838E-06
1138257600,769692,1.64454093756145E+018,1,0,0,0,0,0,0,0,0,0,0,0,0,0,0,0,0,0,0,0,0,0,0,0,0,0,0.362846046686,-9.62032318115,0.666852176189,0,0,0,0,0,0,0,0,0,0.002013696,0.000730661632827,0.001342837559783,2.20699561106704E-06,4.05609993417744E-06
1139947700,769693,1.64454093756347E+018,1,0,0,0,0,0,0,0,0,0,0,0,0,0,0,0,0,0,0,0,0,0,0,0,0,0,0.402072638273,-9.62032318115,0.696272134781,0,0,0,0,0,0,0,0,0,0.002016,0.000810578438758,0.001403684623719,2.4511891988053E-06,4.24474230212473E-06
1142103200,769694,1.64454093756548E+018,1,0,0,0,0,0,0,0,0,0,0,0,0,0,0,0,0,0,0,0,0,0,0,0,0,0,0.343232750893,-9.62032318115,0.696272134781,0,0,0,0,0,0,0,0,0,0.002013952,0.000691254285126,0.001402258658386,2.0882294250585E-06,4.23612244436211E-06
1144273500,769695,1.6445409375675E+018,1,0,0,0,0,0,0,0,0,0,0,0,0,0,0,0,0,0,0,0,0,0,0,0,0,0,0.343232750893,-9.61051654816,0.686465501785,0,0,0,0,0,0,0,0,0,0.002016256,0.000692045093385,0.001384090186767,2.09301010771064E-06,4.18602021541518E-06
1145918400,769696,1.64454093756951E+018,1,0,0,0,0,0,0,0,0,0,0,0,0,0,0,0,0,0,0,0,0,0,0,0,0,0,0.38245934248,-9.61051654816,0.725692093372,0,0,0,0,0,0,0,0,0,0.002013696,0.000770156848115,0.001461323265655,2.32629264663149E-06,4.41399122213408E-06
1147995000,769697,1.64454093757153E+018,1,0,0,0,0,0,0,0,0,0,0,0,0,0,0,0,0,0,0,0,0,0,0,0,0,0,0.38245934248,-9.62032318115,0.696272134781,0,0,0,0,0,0,0,0,0,0.002014208,0.000770352667298,0.001402436904053,2.32747575793932E-06,4.23719944745808E-06
1149986400,769698,1.64454093757354E+018,1,0,0,0,0,0,0,0,0,0,0,0,0,0,0,0,0,0,0,0,0,0,0,0,0,0,0.362846046686,-9.61051654816,0.666852176189,0,0,0,0,0,0,0,0,0,0.002015744,0.000731404741531,0.00134420327304,2.21148707896907E-06,4.06435452361587E-06
1152028100,769699,1.64454093757556E+018,1,0,0,0,0,0,0,0,0,0,0,0,0,0,0,0,0,0,0,0,0,0,0,0,0,0,0.38245934248,-9.62032318115,0.735498726368,0,0,0,0,0,0,0,0,0,0.002014208,0.000770352667298,0.00148144741864,2.32747575793932E-06,4.47591486330677E-06
1154222200,769700,1.64454093757757E+018,1,0,0,0,0,0,0,0,0,0,0,0,0,0,0,0,0,0,0,0,0,0,0,0,0,0,0.38245934248,-9.62032318115,0.686465501785,0,0,0,0,0,0,0,0,0,0.002016,0.00077103803444,0.001383914451599,2.33161901614559E-06,4.18495730163405E-06
1155966800,769701,1.64454093757959E+018,1,0,0,0,0,0,0,0,0,0,0,0,0,0,0,0,0,0,0,0,0,0,0,0,0,0,0.402072638273,-9.58109664917,0.735498726368,0,0,0,0,0,0,0,0,0,0.002013696,0.0008096520634,0.001481070843292,2.44558968218985E-06,4.47363964928161E-06
1158062400,769702,1.6445409375816E+018,1,0,0,0,0,0,0,0,0,0,0,0,0,0,0,0,0,0,0,0,0,0,0,0,0,0,0.362846046686,-9.64974308014,0.735498726368,0,0,0,0,0,0,0,0,0,0.002016,0.000731497630119,0.001482765432358,2.21204883347978E-06,4.48388266745025E-06
1160270500,769703,1.64454093758362E+018,1,0,0,0,0,0,0,0,0,0,0,0,0,0,0,0,0,0,0,0,0,0,0,0,0,0,0.402072638273,-9.62032318115,0.725692093372,0,0,0,0,0,0,0,0,0,0.002013696,0.0008096520634,0.001461323265655,2.44558968218985E-06,4.41399122213408E-06
1162166700,769704,1.64454093758563E+018,1,0,0,0,0,0,0,0,0,0,0,0,0,0,0,0,0,0,0,0,0,0,0,0,0,0,0.38245934248,-9.61051654816,0.725692093372,0,0,0,0,0,0,0,0,0,0.002016256,0.000771135944031,0.001463181037414,2.33221121095333E-06,4.42522131865787E-06
1164169300,769705,1.64454093758765E+018,1,0,0,0,0,0,0,0,0,0,0,0,0,0,0,0,0,0,0,0,0,0,0,0,0,0,0.38245934248,-9.58109664917,0.696272134781,0,0,0,0,0,0,0,0,0,0.002013952,0.000770254757706,0.001402258658386,2.32688416468812E-06,4.23612244436211E-06
1166261200,769706,1.64454093758966E+018,1,0,0,0,0,0,0,0,0,0,0,0,0,0,0,0,0,0,0,0,0,0,0,0,0,0,0.38245934248,-9.64974308014,0.686465501785,0,0,0,0,0,0,0,0,0,0.002013952,0.000770254757706,0.001382508570251,2.32688416468812E-06,4.17645885011092E-06
1168283600,769707,1.64454093759168E+018,1,0,0,0,0,0,0,0,0,0,0,0,0,0,0,0,0,0,0,0,0,0,0,0,0,0,0.402072638273,-9.58109664917,0.637432217598,0,0,0,0,0,0,0,0,0,0.002016256,0.000810681369354,0.001285226533325,2.45181176257162E-06,3.88701856376442E-06
1170345700,769708,1.64454093759369E+018,1,0,0,0,0,0,0,0,0,0,0,0,0,0,0,0,0,0,0,0,0,0,0,0,0,0,0.402072638273,-9.61051654816,0.696272134781,0,0,0,0,0,0,0,0,0,0.002013696,0.0008096520634,0.00140208041272,2.44558968218985E-06,4.2350455781588E-06
1172353100,769709,1.6445409375957E+018,1,0,0,0,0,0,0,0,0,0,0,0,0,0,0,0,0,0,0,0,0,0,0,0,0,0,0.421685934067,-9.61051654816,0.696272134781,0,0,0,0,0,0,0,0,0,0.002014208,0.000849363181885,0.001402436904053,2.56619117378801E-06,4.23719944745808E-06
1174207600,769710,1.64454093759772E+018,1,0,0,0,0,0,0,0,0,0,0,0,0,0,0,0,0,0,0,0,0,0,0,0,0,0,0.38245934248,-9.62032318115,0.725692093372,0,0,0,0,0,0,0,0,0,0.002015744,0.000770940124848,0.001462809483062,2.33102689653243E-06,4.42297415793814E-06
1176197300,769711,1.64454093759973E+018,1,0,0,0,0,0,0,0,0,0,0,0,0,0,0,0,0,0,0,0,0,0,0,0,0,0,0.362846046686,-9.64974308014,0.696272134781,0,0,0,0,0,0,0,0,0,0.002013696,0.000730661632827,0.00140208041272,2.20699561106704E-06,4.2350455781588E-06
1178284200,769712,1.64454093760175E+018,1,0,0,0,0,0,0,0,0,0,0,0,0,0,0,0,0,0,0,0,0,0,0,0,0,0,0.402072638273,-9.57129001617,0.666852176189,0,0,0,0,0,0,0,0,0,0.002014464,0.000809960855186,0.001343349702254,2.44745547627206E-06,4.05919442190331E-06
1180307100,769713,1.64454093760376E+018,1,0,0,0,0,0,0,0,0,0,0,0,0,0,0,0,0,0,0,0,0,0,0,0,0,0,0.402072638273,-9.58109664917,0.686465501785,0,0,0,0,0,0,0,0,0,0.002013952,0.000809754993995,0.001382508570251,2.44621153449989E-06,4.17645885011092E-06
1182296400,769714,1.64454093760578E+018,1,0,0,0,0,0,0,0,0,0,0,0,0,0,0,0,0,0,0,0,0,0,0,0,0,0,0.402072638273,-9.62032318115,0.686465501785,0,0,0,0,0,0,0,0,0,0.002015744,0.000810475508163,0.00138373871643,2.45056671408969E-06,4.18389452281752E-06
1184388700,769715,1.64454093760779E+018,1,0,0,0,0,0,0,0,0,0,0,0,0,0,0,0,0,0,0,0,0,0,0,0,0,0,0.402072638273,-9.64974308014,0.696272134781,0,0,0,0,0,0,0,0,0,0.002013952,0.000809754993995,0.001402258658386,2.44621153449989E-06,4.23612244436211E-06
1186262800,769716,1.64454093760981E+018,1,0,0,0,0,0,0,0,0,0,0,0,0,0,0,0,0,0,0,0,0,0,0,0,0,0,0.38245934248,-9.61051654816,0.735498726368,0,0,0,0,0,0,0,0,0,0.002016256,0.000771135944031,0.001482953720032,2.33221121095333E-06,4.48502150360477E-06
1188151600,769717,1.64454093761182E+018,1,0,0,0,0,0,0,0,0,0,0,0,0,0,0,0,0,0,0,0,0,0,0,0,0,0,0.402072638273,-9.62032318115,0.735498726368,0,0,0,0,0,0,0,0,0,0.002013952,0.000809754993995,0.001481259130966,2.44621153449989E-06,4.47477718399172E-06
1190164300,769718,1.64454093761384E+018,1,0,0,0,0,0,0,0,0,0,0,0,0,0,0,0,0,0,0,0,0,0,0,0,0,0,0.38245934248,-9.64974308014,0.666852176189,0,0,0,0,0,0,0,0,0,0.002013952,0.000770254757706,0.00134300827394,2.32688416468812E-06,4.05713129897759E-06
1192241000,769719,1.64454093761585E+018,1,0,0,0,0,0,0,0,0,0,0,0,0,0,0,0,0,0,0,0,0,0,0,0,0,0,0.362846046686,-9.64974308014,0.637432217598,0,0,0,0,0,0,0,0,0,0.002016,0.000731497630119,0.001285063350678,2.21204883347978E-06,3.88603157244897E-06
1194254600,769720,1.64454093761787E+018,1,0,0,0,0,0,0,0,0,0,0,0,0,0,0,0,0,0,0,0,0,0,0,0,0,0,0.402072638273,-9.61051654816,0.666852176189,0,0,0,0,0,0,0,0,0,0.002013696,0.0008096520634,0.001342837559783,2.44558968218985E-06,4.05609993417744E-06
1196583500,769721,1.64454093761988E+018,1,0,0,0,0,0,0,0,0,0,0,0,0,0,0,0,0,0,0,0,0,0,0,0,0,0,0.402072638273,-9.62032318115,0.696272134781,0,0,0,0,0,0,0,0,0,0.002014208,0.000809857924591,0.001402436904053,2.44683346586062E-06,4.23719944745808E-06
1198464000,769722,1.6445409376219E+018,1,0,0,0,0,0,0,0,0,0,0,0,0,0,0,0,0,0,0,0,0,0,0,0,0,0,0.38245934248,-9.62032318115,0.686465501785,0,0,0,0,0,0,0,0,0,0.002015744,0.000770940124848,0.00138373871643,2.33102689653243E-06,4.18389452281752E-06
1200542400,769723,1.64454093762391E+018,1,0,0,0,0,0,0,0,0,0,0,0,0,0,0,0,0,0,0,0,0,0,0,0,0,0,0.402072638273,-9.64974308014,0.725692093372,0,0,0,0,0,0,0,0,0,0.002014208,0.000809857924591,0.001461694820007,2.44683346586062E-06,4.41623610002387E-06
1202471300,769724,1.64454093762593E+018,1,0,0,0,0,0,0,0,0,0,0,0,0,0,0,0,0,0,0,0,0,0,0,0,0,0,0.421685934067,-9.62032318115,0.696272134781,0,0,0,0,0,0,0,0,0,0.002015744,0.00085001089148,0.001403506378052,2.57010653165304E-06,4.24366434078005E-06
1204480600,769725,1.64454093762794E+018,1,0,0,0,0,0,0,0,0,0,0,0,0,0,0,0,0,0,0,0,0,0,0,0,0,0,0.402072638273,-9.62032318115,0.686465501785,0,0,0,0,0,0,0,0,0,0.002013696,0.0008096520634,0.001382332835082,2.44558968218985E-06,4.17539715101128E-06
1206452100,769726,1.64454093762995E+018,1,0,0,0,0,0,0,0,0,0,0,0,0,0,0,0,0,0,0,0,0,0,0,0,0,0,0.402072638273,-9.66935634613,0.696272134781,0,0,0,0,0,0,0,0,0,0.00201472,0.000810063785781,0.001402793395386,2.44807756573419E-06,4.23935386432805E-06
1208574800,769727,1.64454093763197E+018,1,0,0,0,0,0,0,0,0,0,0,0,0,0,0,0,0,0,0,0,0,0,0,0,0,0,0.38245934248,-9.64974308014,0.666852176189,0,0,0,0,0,0,0,0,0,0.002015232,0.000770744305665,0.001343861844726,2.32984288288979E-06,4.06229008960543E-06
1210493900,769728,1.64454093763398E+018,1,0,0,0,0,0,0,0,0,0,0,0,0,0,0,0,0,0,0,0,0,0,0,0,0,0,0.38245934248,-9.62032318115,0.637432217598,0,0,0,0,0,0,0,0,0,0.002014208,0.000770352667298,0.001283921072144,2.32747575793932E-06,3.87912614232042E-06
1212536300,769729,1.644540937636E+018,1,0,0,0,0,0,0,0,0,0,0,0,0,0,0,0,0,0,0,0,0,0,0,0,0,0,0.38245934248,-9.61051654816,0.686465501785,0,0,0,0,0,0,0,0,0,0.002014208,0.000770352667298,0.001382684305419,2.32747575793932E-06,4.17752068417518E-06
1214445000,769730,1.64454093763801E+018,1,0,0,0,0,0,0,0,0,0,0,0,0,0,0,0,0,0,0,0,0,0,0,0,0,0,0.362846046686,-9.61051654816,0.686465501785,0,0,0,0,0,0,0,0,0,0.002015744,0.000731404741531,0.00138373871643,2.21148707896907E-06,4.18389452281752E-06
1216464800,769731,1.64454093764003E+018,1,0,0,0,0,0,0,0,0,0,0,0,0,0,0,0,0,0,0,0,0,0,0,0,0,0,0.402072638273,-9.62032318115,0.686465501785,0,0,0,0,0,0,0,0,0,0.002014208,0.000809857924591,0.001382684305419,2.44683346586062E-06,4.17752068417518E-06
1218395700,769732,1.64454093764204E+018,1,0,0,0,0,0,0,0,0,0,0,0,0,0,0,0,0,0,0,0,0,0,0,0,0,0,0.38245934248,-9.61051654816,0.637432217598,0,0,0,0,0,0,0,0,0,0.002013696,0.000770156848115,0.001283594706848,2.32629264663149E-06,3.87715429020216E-06
1220454100,769733,1.64454093764406E+018,1,0,0,0,0,0,0,0,0,0,0,0,0,0,0,0,0,0,0,0,0,0,0,0,0,0,0.402072638273,-9.66935634613,0.735498726368,0,0,0,0,0,0,0,0,0,0.002016,0.000810578438758,0.001482765432358,2.4511891988053E-06,4.48388266745025E-06
1222507300,769734,1.64454093764607E+018,1,0,0,0,0,0,0,0,0,0,0,0,0,0,0,0,0,0,0,0,0,0,0,0,0,0,0.38245934248,-9.61051654816,0.696272134781,0,0,0,0,0,0,0,0,0,0.002014208,0.000770352667298,0.001402436904053,2.32747575793932E-06,4.23719944745808E-06
1224544800,769735,1.64454093764809E+018,1,0,0,0,0,0,0,0,0,0,0,0,0,0,0,0,0,0,0,0,0,0,0,0,0,0,0.38245934248,-9.56148338318,0.686465501785,0,0,0,0,0,0,0,0,0,0.002016256,0.000771135944031,0.001384090186767,2.33221121095333E-06,4.18602021541518E-06
1226563300,769736,1.6445409376501E+018,1,0,0,0,0,0,0,0,0,0,0,0,0,0,0,0,0,0,0,0,0,0,0,0,0,0,0.402072638273,-9.62032318115,0.735498726368,0,0,0,0,0,0,0,0,0,0.002013696,0.0008096520634,0.001481070843292,2.44558968218985E-06,4.47363964928161E-06
1228579600,769737,1.64454093765212E+018,1,0,0,0,0,0,0,0,0,0,0,0,0,0,0,0,0,0,0,0,0,0,0,0,0,0,0.38245934248,-9.57129001617,0.725692093372,0,0,0,0,0,0,0,0,0,0.002016,0.00077103803444,0.001462995260238,2.33161901614559E-06,4.42409766695957E-06
1230689400,769738,1.64454093765413E+018,1,0,0,0,0,0,0,0,0,0,0,0,0,0,0,0,0,0,0,0,0,0,0,0,0,0,0.402072638273,-9.61051654816,0.696272134781,0,0,0,0,0,0,0,0,0,0.002013696,0.0008096520634,0.00140208041272,2.44558968218985E-06,4.2350455781588E-06
1232752500,769739,1.64454093765615E+018,1,0,0,0,0,0,0,0,0,0,0,0,0,0,0,0,0,0,0,0,0,0,0,0,0,0,0.402072638273,-9.64974308014,0.666852176189,0,0,0,0,0,0,0,0,0,0.002014208,0.000809857924591,0.001343178988097,2.44683346586062E-06,4.05816279488621E-06
1234816900,769740,1.64454093765816E+018,1,0,0,0,0,0,0,0,0,0,0,0,0,0,0,0,0,0,0,0,0,0,0,0,0,0,0.38245934248,-9.64974308014,0.666852176189,0,0,0,0,0,0,0,0,0,0.002016,0.00077103803444,0.001344373987197,2.33161901614559E-06,4.0653869372838E-06
1236756700,769741,1.64454093766018E+018,1,0,0,0,0,0,0,0,0,0,0,0,0,0,0,0,0,0,0,0,0,0,0,0,0,0,0.402072638273,-9.57129001617,0.686465501785,0,0,0,0,0,0,0,0,0,0.002013696,0.0008096520634,0.001382332835082,2.44558968218985E-06,4.17539715101128E-06
1238705500,769742,1.64454093766219E+018,1,0,0,0,0,0,0,0,0,0,0,0,0,0,0,0,0,0,0,0,0,0,0,0,0,0,0.38245934248,-9.61051654816,0.686465501785,0,0,0,0,0,0,0,0,0,0.002014464,0.00077045057689,0.001382860040588,2.32806742638509E-06,4.17858265320405E-06
1240635800,769743,1.64454093766421E+018,1,0,0,0,0,0,0,0,0,0,0,0,0,0,0,0,0,0,0,0,0,0,0,0,0,0,0.402072638273,-9.64974308014,0.666852176189,0,0,0,0,0,0,0,0,0,0.002015232,0.000810269646972,0.001343861844726,2.44932198181054E-06,4.06229008960543E-06
1242798800,769744,1.64454093766622E+018,1,0,0,0,0,0,0,0,0,0,0,0,0,0,0,0,0,0,0,0,0,0,0,0,0,0,0.402072638273,-9.58109664917,0.696272134781,0,0,0,0,0,0,0,0,0,0.002014208,0.000809857924591,0.001402436904053,2.44683346586062E-06,4.23719944745808E-06
1244881500,769745,1.64454093766824E+018,1,0,0,0,0,0,0,0,0,0,0,0,0,0,0,0,0,0,0,0,0,0,0,0,0,0,0.362846046686,-9.61051654816,0.666852176189,0,0,0,0,0,0,0,0,0,0.002016,0.000731497630119,0.001344373987197,2.21204883347978E-06,4.0653869372838E-06
1247264600,769746,1.64454093767025E+018,1,0,0,0,0,0,0,0,0,0,0,0,0,0,0,0,0,0,0,0,0,0,0,0,0,0,0.362846046686,-9.58109664917,0.696272134781,0,0,0,0,0,0,0,0,0,0.002013952,0.000730754521415,0.001402258658386,2.20755679487027E-06,4.23612244436211E-06
1248757300,769747,1.64454093767227E+018,1,0,0,0,0,0,0,0,0,0,0,0,0,0,0,0,0,0,0,0,0,0,0,0,0,0,0.38245934248,-9.61051654816,0.686465501785,0,0,0,0,0,0,0,0,0,0.002016256,0.000771135944031,0.001384090186767,2.33221121095333E-06,4.18602021541518E-06
1251121900,769748,1.64454093767428E+018,1,0,0,0,0,0,0,0,0,0,0,0,0,0,0,0,0,0,0,0,0,0,0,0,0,0,0.362846046686,-9.61051654816,0.686465501785,0,0,0,0,0,0,0,0,0,0.002013952,0.000730754521415,0.001382508570251,2.20755679487027E-06,4.17645885011092E-06
1253257200,769749,1.64454093767629E+018,1,0,0,0,0,0,0,0,0,0,0,0,0,0,0,0,0,0,0,0,0,0,0,0,0,0,0.402072638273,-9.61051654816,0.686465501785,0,0,0,0,0,0,0,0,0,0.002013952,0.000809754993995,0.001382508570251,2.44621153449989E-06,4.17645885011092E-06
1254750700,769750,1.64454093767831E+018,1,0,0,0,0,0,0,0,0,0,0,0,0,0,0,0,0,0,0,0,0,0,0,0,0,0,0.38245934248,-9.64974308014,0.686465501785,0,0,0,0,0,0,0,0,0,0.002016256,0.000771135944031,0.001384090186767,2.33221121095333E-06,4.18602021541518E-06
1257149700,769751,1.64454093768032E+018,1,0,0,0,0,0,0,0,0,0,0,0,0,0,0,0,0,0,0,0,0,0,0,0,0,0,0.343232750893,-9.61051654816,0.696272134781,0,0,0,0,0,0,0,0,0,0.002013952,0.000691254285126,0.001402258658386,2.0882294250585E-06,4.23612244436211E-06
1259292200,769752,1.64454093768234E+018,1,0,0,0,0,0,0,0,0,0,0,0,0,0,0,0,0,0,0,0,0,0,0,0,0,0,0.362846046686,-9.64974308014,0.666852176189,0,0,0,0,0,0,0,0,0,0.002013696,0.000730661632827,0.001342837559783,2.20699561106704E-06,4.05609993417744E-06
1260703200,769753,1.64454093768435E+018,1,0,0,0,0,0,0,0,0,0,0,0,0,0,0,0,0,0,0,0,0,0,0,0,0,0,0.362846046686,-9.66935634613,0.696272134781,0,0,0,0,0,0,0,0,0,0.002016,0.000731497630119,0.001403684623719,2.21204883347978E-06,4.24474230212473E-06
1262810200,769754,1.64454093768637E+018,1,0,0,0,0,0,0,0,0,0,0,0,0,0,0,0,0,0,0,0,0,0,0,0,0,0,0.362846046686,-9.61051654816,0.696272134781,0,0,0,0,0,0,0,0,0,0.002014208,0.000730847410003,0.001402436904053,2.20811805001193E-06,4.23719944745808E-06
1264972500,769755,1.64454093768838E+018,1,0,0,0,0,0,0,0,0,0,0,0,0,0,0,0,0,0,0,0,0,0,0,0,0,0,0.38245934248,-9.64974308014,0.725692093372,0,0,0,0,0,0,0,0,0,0.002016,0.00077103803444,0.001462995260238,2.33161901614559E-06,4.42409766695957E-06
1267129300,769756,1.6445409376904E+018,1,0,0,0,0,0,0,0,0,0,0,0,0,0,0,0,0,0,0,0,0,0,0,0,0,0,0.38245934248,-9.58109664917,0.696272134781,0,0,0,0,0,0,0,0,0,0.002013696,0.000770156848115,0.00140208041272,2.32629264663149E-06,4.2350455781588E-06
1269086000,769757,1.64454093769241E+018,1,0,0,0,0,0,0,0,0,0,0,0,0,0,0,0,0,0,0,0,0,0,0,0,0,0,0.343232750893,-9.61051654816,0.686465501785,0,0,0,0,0,0,0,0,0,0.002013952,0.000691254285126,0.001382508570251,2.0882294250585E-06,4.17645885011092E-06
1271087600,769758,1.64454093769443E+018,1,0,0,0,0,0,0,0,0,0,0,0,0,0,0,0,0,0,0,0,0,0,0,0,0,0,0.362846046686,-9.61051654816,0.725692093372,0,0,0,0,0,0,0,0,0,0.002016256,0.000731590518707,0.001463181037414,2.21261065932893E-06,4.42522131865787E-06
1273427100,769759,1.64454093769644E+018,1,0,0,0,0,0,0,0,0,0,0,0,0,0,0,0,0,0,0,0,0,0,0,0,0,0,0.38245934248,-9.61051654816,0.725692093372,0,0,0,0,0,0,0,0,0,0.002013696,0.000770156848115,0.001461323265655,2.32629264663149E-06,4.41399122213408E-06
1274959900,769760,1.64454093769846E+018,1,0,0,0,0,0,0,0,0,0,0,0,0,0,0,0,0,0,0,0,0,0,0,0,0,0,0.362846046686,-9.58109664917,0.725692093372,0,0,0,0,0,0,0,0,0,0.002013696,0.000730661632827,0.001461323265655,2.20699561106704E-06,4.41399122213408E-06
1277647300,769761,1.64454093770047E+018,1,0,0,0,0,0,0,0,0,0,0,0,0,0,0,0,0,0,0,0,0,0,0,0,0,0,0.38245934248,-9.62032318115,0.764918684959,0,0,0,0,0,0,0,0,0,0.002016256,0.000771135944031,0.001542271888061,2.33221121095333E-06,4.66442242190055E-06
1279010300,769762,1.64454093770248E+018,1,0,0,0,0,0,0,0,0,0,0,0,0,0,0,0,0,0,0,0,0,0,0,0,0,0,0.362846046686,-9.64974308014,0.725692093372,0,0,0,0,0,0,0,0,0,0.002013696,0.000730661632827,0.001461323265655,2.20699561106704E-06,4.41399122213408E-06
1280954700,769763,1.6445409377045E+018,1,0,0,0,0,0,0,0,0,0,0,0,0,0,0,0,0,0,0,0,0,0,0,0,0,0,0.402072638273,-9.61051654816,0.686465501785,0,0,0,0,0,0,0,0,0,0.002016256,0.000810681369354,0.001384090186767,2.45181176257162E-06,4.18602021541518E-06
1283014400,769764,1.64454093770652E+018,1,0,0,0,0,0,0,0,0,0,0,0,0,0,0,0,0,0,0,0,0,0,0,0,0,0,0.402072638273,-9.61051654816,0.666852176189,0,0,0,0,0,0,0,0,0,0.002013952,0.000809754993995,0.00134300827394,2.44621153449989E-06,4.05713129897759E-06
1284942700,769765,1.64454093770853E+018,1,0,0,0,0,0,0,0,0,0,0,0,0,0,0,0,0,0,0,0,0,0,0,0,0,0,0.38245934248,-9.62032318115,0.735498726368,0,0,0,0,0,0,0,0,0,0.002013952,0.000770254757706,0.001481259130966,2.32688416468812E-06,4.47477718399172E-06
1286929700,769766,1.64454093771055E+018,1,0,0,0,0,0,0,0,0,0,0,0,0,0,0,0,0,0,0,0,0,0,0,0,0,0,0.362846046686,-9.58109664917,0.696272134781,0,0,0,0,0,0,0,0,0,0.002015744,0.000731404741531,0.001403506378052,2.21148707896907E-06,4.24366434078005E-06
1289034400,769767,1.64454093771256E+018,1,0,0,0,0,0,0,0,0,0,0,0,0,0,0,0,0,0,0,0,0,0,0,0,0,0,0.38245934248,-9.61051654816,0.696272134781,0,0,0,0,0,0,0,0,0,0.002014464,0.00077045057689,0.001402615149719,2.32806742638509E-06,4.23827658744673E-06
1291052100,769768,1.64454093771457E+018,1,0,0,0,0,0,0,0,0,0,0,0,0,0,0,0,0,0,0,0,0,0,0,0,0,0,0.402072638273,-9.62032318115,0.725692093372,0,0,0,0,0,0,0,0,0,0.002013696,0.0008096520634,0.001461323265655,2.44558968218985E-06,4.41399122213408E-06
1293040400,769769,1.64454093771659E+018,1,0,0,0,0,0,0,0,0,0,0,0,0,0,0,0,0,0,0,0,0,0,0,0,0,0,0.362846046686,-9.64974308014,0.696272134781,0,0,0,0,0,0,0,0,0,0.002016,0.000731497630119,0.001403684623719,2.21204883347978E-06,4.24474230212473E-06
1295017700,769770,1.6445409377186E+018,1,0,0,0,0,0,0,0,0,0,0,0,0,0,0,0,0,0,0,0,0,0,0,0,0,0,0.38245934248,-9.62032318115,0.725692093372,0,0,0,0,0,0,0,0,0,0.002014208,0.000770352667298,0.001461694820007,2.32747575793932E-06,4.41623610002387E-06
1297019200,769771,1.64454093772062E+018,1,0,0,0,0,0,0,0,0,0,0,0,0,0,0,0,0,0,0,0,0,0,0,0,0,0,0.38245934248,-9.62032318115,0.764918684959,0,0,0,0,0,0,0,0,0,0.002016,0.00077103803444,0.001542076068877,2.33161901614559E-06,4.66323803228509E-06
1299188500,769772,1.64454093772263E+018,1,0,0,0,0,0,0,0,0,0,0,0,0,0,0,0,0,0,0,0,0,0,0,0,0,0,0.38245934248,-9.61051654816,0.696272134781,0,0,0,0,0,0,0,0,0,0.002013952,0.000770254757706,0.001402258658386,2.32688416468812E-06,4.23612244436211E-06
1301170300,769773,1.64454093772465E+018,1,0,0,0,0,0,0,0,0,0,0,0,0,0,0,0,0,0,0,0,0,0,0,0,0,0,0.362846046686,-9.61051654816,0.725692093372,0,0,0,0,0,0,0,0,0,0.002013696,0.000730661632827,0.001461323265655,2.20699561106704E-06,4.41399122213408E-06
1303269100,769774,1.64454093772666E+018,1,0,0,0,0,0,0,0,0,0,0,0,0,0,0,0,0,0,0,0,0,0,0,0,0,0,0.343232750893,-9.61051654816,0.764918684959,0,0,0,0,0,0,0,0,0,0.002016256,0.000692045093385,0.001542271888061,2.09301010771064E-06,4.66442242190055E-06
1305131500,769775,1.64454093772868E+018,1,0,0,0,0,0,0,0,0,0,0,0,0,0,0,0,0,0,0,0,0,0,0,0,0,0,0.402072638273,-9.62032318115,0.696272134781,0,0,0,0,0,0,0,0,0,0.002013952,0.000809754993995,0.001402258658386,2.44621153449989E-06,4.23612244436211E-06
1307700000,769776,1.64454093773069E+018,1,0,0,0,0,0,0,0,0,0,0,0,0,0,0,0,0,0,0,0,0,0,0,0,0,0,0.402072638273,-9.62032318115,0.696272134781,0,0,0,0,0,0,0,0,0,0.002013696,0.0008096520634,0.00140208041272,2.44558968218985E-06,4.2350455781588E-06
1309244800,769777,1.64454093773271E+018,1,0,0,0,0,0,0,0,0,0,0,0,0,0,0,0,0,0,0,0,0,0,0,0,0,0,0.362846046686,-9.62032318115,0.686465501785,0,0,0,0,0,0,0,0,0,0.002014464,0.000730940298591,0.001382860040588,2.20867937649204E-06,4.17858265320405E-06
1311166300,769778,1.64454093773472E+018,1,0,0,0,0,0,0,0,0,0,0,0,0,0,0,0,0,0,0,0,0,0,0,0,0,0,0.402072638273,-9.61051654816,0.696272134781,0,0,0,0,0,0,0,0,0,0.002015232,0.000810269646972,0.001403149886719,2.44932198181054E-06,4.24150882876871E-06
1313309700,769779,1.64454093773673E+018,1,0,0,0,0,0,0,0,0,0,0,0,0,0,0,0,0,0,0,0,0,0,0,0,0,0,0.38245934248,-9.58109664917,0.735498726368,0,0,0,0,0,0,0,0,0,0.002014208,0.000770352667298,0.00148144741864,2.32747575793932E-06,4.47591486330677E-06
1315227700,769780,1.64454093773875E+018,1,0,0,0,0,0,0,0,0,0,0,0,0,0,0,0,0,0,0,0,0,0,0,0,0,0,0.402072638273,-9.64974308014,0.686465501785,0,0,0,0,0,0,0,0,0,0.002014208,0.000809857924591,0.001382684305419,2.44683346586062E-06,4.17752068417518E-06
1317301100,769781,1.64454093774076E+018,1,0,0,0,0,0,0,0,0,0,0,0,0,0,0,0,0,0,0,0,0,0,0,0,0,0,0.402072638273,-9.64974308014,0.666852176189,0,0,0,0,0,0,0,0,0,0.002015744,0.000810475508163,0.00134420327304,2.45056671408969E-06,4.06435452361587E-06
1319319400,769782,1.64454093774278E+018,1,0,0,0,0,0,0,0,0,0,0,0,0,0,0,0,0,0,0,0,0,0,0,0,0,0,0.402072638273,-9.62032318115,0.637432217598,0,0,0,0,0,0,0,0,0,0.002014208,0.000809857924591,0.001283921072144,2.44683346586062E-06,3.87912614232042E-06
1321633200,769783,1.64454093774479E+018,1,0,0,0,0,0,0,0,0,0,0,0,0,0,0,0,0,0,0,0,0,0,0,0,0,0,0.402072638273,-9.61051654816,0.725692093372,0,0,0,0,0,0,0,0,0,0.002016,0.000810578438758,0.001462995260238,2.4511891988053E-06,4.42409766695957E-06
1323642800,769784,1.64454093774681E+018,1,0,0,0,0,0,0,0,0,0,0,0,0,0,0,0,0,0,0,0,0,0,0,0,0,0,0.402072638273,-9.57129001617,0.686465501785,0,0,0,0,0,0,0,0,0,0.002013952,0.000809754993995,0.001382508570251,2.44621153449989E-06,4.17645885011092E-06
1325335800,769785,1.64454093774882E+018,1,0,0,0,0,0,0,0,0,0,0,0,0,0,0,0,0,0,0,0,0,0,0,0,0,0,0.362846046686,-9.62032318115,0.735498726368,0,0,0,0,0,0,0,0,0,0.002013952,0.000730754521415,0.001481259130966,2.20755679487027E-06,4.47477718399172E-06
1327298200,769786,1.64454093775084E+018,1,0,0,0,0,0,0,0,0,0,0,0,0,0,0,0,0,0,0,0,0,0,0,0,0,0,0.402072638273,-9.64974308014,0.686465501785,0,0,0,0,0,0,0,0,0,0.002016,0.000810578438758,0.001383914451599,2.4511891988053E-06,4.18495730163405E-06
1329242200,769787,1.64454093775285E+018,1,0,0,0,0,0,0,0,0,0,0,0,0,0,0,0,0,0,0,0,0,0,0,0,0,0,0.402072638273,-9.62032318115,0.637432217598,0,0,0,0,0,0,0,0,0,0.002013696,0.0008096520634,0.001283594706848,2.44558968218985E-06,3.87715429020216E-06
1331172300,769788,1.64454093775487E+018,1,0,0,0,0,0,0,0,0,0,0,0,0,0,0,0,0,0,0,0,0,0,0,0,0,0,0.402072638273,-9.64974308014,0.666852176189,0,0,0,0,0,0,0,0,0,0.002014208,0.000809857924591,0.001343178988097,2.44683346586062E-06,4.05816279488621E-06
1333418600,769789,1.64454093775688E+018,1,0,0,0,0,0,0,0,0,0,0,0,0,0,0,0,0,0,0,0,0,0,0,0,0,0,0.402072638273,-9.64974308014,0.696272134781,0,0,0,0,0,0,0,0,0,0.002015744,0.000810475508163,0.001403506378052,2.45056671408969E-06,4.24366434078005E-06
1335423600,769790,1.6445409377589E+018,1,0,0,0,0,0,0,0,0,0,0,0,0,0,0,0,0,0,0,0,0,0,0,0,0,0,0.38245934248,-9.64974308014,0.696272134781,0,0,0,0,0,0,0,0,0,0.002014208,0.000770352667298,0.001402436904053,2.32747575793932E-06,4.23719944745808E-06
1337570700,769791,1.64454093776091E+018,1,0,0,0,0,0,0,0,0,0,0,0,0,0,0,0,0,0,0,0,0,0,0,0,0,0,0.421685934067,-9.61051654816,0.666852176189,0,0,0,0,0,0,0,0,0,0.002014208,0.000849363181885,0.001343178988097,2.56619117378801E-06,4.05816279488621E-06
1339929900,769792,1.64454093776293E+018,1,0,0,0,0,0,0,0,0,0,0,0,0,0,0,0,0,0,0,0,0,0,0,0,0,0,0.402072638273,-9.58109664917,0.627625584602,0,0,0,0,0,0,0,0,0,0.002015488,0.000810372577568,0.001264971834258,2.44994430842477E-06,3.82430332842844E-06
1341531900,769793,1.64454093776494E+018,1,0,0,0,0,0,0,0,0,0,0,0,0,0,0,0,0,0,0,0,0,0,0,0,0,0,0.38245934248,-9.64974308014,0.666852176189,0,0,0,0,0,0,0,0,0,0.002014464,0.00077045057689,0.001343349702254,2.32806742638509E-06,4.05919442190331E-06
1343567300,769794,1.64454093776696E+018,1,0,0,0,0,0,0,0,0,0,0,0,0,0,0,0,0,0,0,0,0,0,0,0,0,0,0.38245934248,-9.64974308014,0.686465501785,0,0,0,0,0,0,0,0,0,0.002015744,0.000770940124848,0.00138373871643,2.33102689653243E-06,4.18389452281752E-06
1345453100,769795,1.64454093776897E+018,1,0,0,0,0,0,0,0,0,0,0,0,0,0,0,0,0,0,0,0,0,0,0,0,0,0,0.38245934248,-9.61051654816,0.666852176189,0,0,0,0,0,0,0,0,0,0.002013696,0.000770156848115,0.001342837559783,2.32629264663149E-06,4.05609993417744E-06
1348019000,769796,1.64454093777099E+018,1,0,0,0,0,0,0,0,0,0,0,0,0,0,0,0,0,0,0,0,0,0,0,0,0,0,0.362846046686,-9.61051654816,0.637432217598,0,0,0,0,0,0,0,0,0,0.002016,0.000731497630119,0.001285063350678,2.21204883347978E-06,3.88603157244897E-06
1349826200,769797,1.644540937773E+018,1,0,0,0,0,0,0,0,0,0,0,0,0,0,0,0,0,0,0,0,0,0,0,0,0,0,0.402072638273,-9.64974308014,0.637432217598,0,0,0,0,0,0,0,0,0,0.002013952,0.000809754993995,0.001283757889496,2.44621153449989E-06,3.87814015359915E-06
1351533700,769798,1.64454093777502E+018,1,0,0,0,0,0,0,0,0,0,0,0,0,0,0,0,0,0,0,0,0,0,0,0,0,0,0.402072638273,-9.64974308014,0.637432217598,0,0,0,0,0,0,0,0,0,0.002016256,0.000810681369354,0.001285226533325,2.45181176257162E-06,3.88701856376442E-06
1353519400,769799,1.64454093777703E+018,1,0,0,0,0,0,0,0,0,0,0,0,0,0,0,0,0,0,0,0,0,0,0,0,0,0,0.38245934248,-9.62032318115,0.637432217598,0,0,0,0,0,0,0,0,0,0.002013952,0.000770254757706,0.001283757889496,2.32688416468812E-06,3.87814015359915E-06
1355407000,769800,1.64454093777905E+018,1,0,0,0,0,0,0,0,0,0,0,0,0,0,0,0,0,0,0,0,0,0,0,0,0,0,0.402072638273,-9.64974308014,0.666852176189,0,0,0,0,0,0,0,0,0,0.002015744,0.000810475508163,0.00134420327304,2.45056671408969E-06,4.06435452361587E-06
1357499000,769801,1.64454093778106E+018,1,0,0,0,0,0,0,0,0,0,0,0,0,0,0,0,0,0,0,0,0,0,0,0,0,0,0.421685934067,-9.58109664917,0.637432217598,0,0,0,0,0,0,0,0,0,0.002013952,0.000849255230286,0.001283757889496,2.56553890431774E-06,3.87814015359915E-06
1359748800,769802,1.64454093778308E+018,1,0,0,0,0,0,0,0,0,0,0,0,0,0,0,0,0,0,0,0,0,0,0,0,0,0,0.402072638273,-9.58109664917,0.686465501785,0,0,0,0,0,0,0,0,0,0.002016256,0.000810681369354,0.001384090186767,2.45181176257162E-06,4.18602021541518E-06
1361429800,769803,1.64454093778509E+018,1,0,0,0,0,0,0,0,0,0,0,0,0,0,0,0,0,0,0,0,0,0,0,0,0,0,0.362846046686,-9.58109664917,0.686465501785,0,0,0,0,0,0,0,0,0,0.002016256,0.000731590518707,0.001384090186767,2.21261065932893E-06,4.18602021541518E-06
1363404800,769804,1.64454093778711E+018,1,0,0,0,0,0,0,0,0,0,0,0,0,0,0,0,0,0,0,0,0,0,0,0,0,0,0.38245934248,-9.61051654816,0.666852176189,0,0,0,0,0,0,0,0,0,0.002013952,0.000770254757706,0.00134300827394,2.32688416468812E-06,4.05713129897759E-06
1365429600,769805,1.64454093778912E+018,1,0,0,0,0,0,0,0,0,0,0,0,0,0,0,0,0,0,0,0,0,0,0,0,0,0,0.38245934248,-9.62032318115,0.686465501785,0,0,0,0,0,0,0,0,0,0.002016,0.00077103803444,0.001383914451599,2.33161901614559E-06,4.18495730163405E-06
1368145200,769806,1.64454093779114E+018,1,0,0,0,0,0,0,0,0,0,0,0,0,0,0,0,0,0,0,0,0,0,0,0,0,0,0.362846046686,-9.62032318115,0.696272134781,0,0,0,0,0,0,0,0,0,0.002013696,0.000730661632827,0.00140208041272,2.20699561106704E-06,4.2350455781588E-06
1370149400,769807,1.64454093779315E+018,1,0,0,0,0,0,0,0,0,0,0,0,0,0,0,0,0,0,0,0,0,0,0,0,0,0,0.402072638273,-9.62032318115,0.686465501785,0,0,0,0,0,0,0,0,0,0.002016,0.000810578438758,0.001383914451599,2.4511891988053E-06,4.18495730163405E-06
1371755000,769808,1.64454093779517E+018,1,0,0,0,0,0,0,0,0,0,0,0,0,0,0,0,0,0,0,0,0,0,0,0,0,0,0.38245934248,-9.62032318115,0.666852176189,0,0,0,0,0,0,0,0,0,0.002013952,0.000770254757706,0.00134300827394,2.32688416468812E-06,4.05713129897759E-06
1374347400,769809,1.64454093779718E+018,1,0,0,0,0,0,0,0,0,0,0,0,0,0,0,0,0,0,0,0,0,0,0,0,0,0,0.38245934248,-9.58109664917,0.696272134781,0,0,0,0,0,0,0,0,0,0.002015744,0.000770940124848,0.001403506378052,2.33102689653243E-06,4.24366434078005E-06
1375761000,769810,1.6445409377992E+018,1,0,0,0,0,0,0,0,0,0,0,0,0,0,0,0,0,0,0,0,0,0,0,0,0,0,0.362846046686,-9.58109664917,0.666852176189,0,0,0,0,0,0,0,0,0,0.002014208,0.000730847410003,0.001343178988097,2.20811805001193E-06,4.05816279488621E-06
1378137700,769811,1.64454093780121E+018,1,0,0,0,0,0,0,0,0,0,0,0,0,0,0,0,0,0,0,0,0,0,0,0,0,0,0.402072638273,-9.61051654816,0.666852176189,0,0,0,0,0,0,0,0,0,0.002013696,0.0008096520634,0.001342837559783,2.44558968218985E-06,4.05609993417744E-06
1380023200,769812,1.64454093780323E+018,1,0,0,0,0,0,0,0,0,0,0,0,0,0,0,0,0,0,0,0,0,0,0,0,0,0,0.402072638273,-9.64974308014,0.725692093372,0,0,0,0,0,0,0,0,0,0.002016,0.000810578438758,0.001462995260238,2.4511891988053E-06,4.42409766695957E-06
1382317300,769813,1.64454093780524E+018,1,0,0,0,0,0,0,0,0,0,0,0,0,0,0,0,0,0,0,0,0,0,0,0,0,0,0.38245934248,-9.61051654816,0.725692093372,0,0,0,0,0,0,0,0,0,0.002014208,0.000770352667298,0.001461694820007,2.32747575793932E-06,4.41623610002387E-06
1384325100,769814,1.64454093780726E+018,1,0,0,0,0,0,0,0,0,0,0,0,0,0,0,0,0,0,0,0,0,0,0,0,0,0,0.38245934248,-9.64974308014,0.686465501785,0,0,0,0,0,0,0,0,0,0.002016256,0.000771135944031,0.001384090186767,2.33221121095333E-06,4.18602021541518E-06
1385780000,769815,1.64454093780927E+018,1,0,0,0,0,0,0,0,0,0,0,0,0,0,0,0,0,0,0,0,0,0,0,0,0,0,0.38245934248,-9.61051654816,0.686465501785,0,0,0,0,0,0,0,0,0,0.002013696,0.000770156848115,0.001382332835082,2.32629264663149E-06,4.17539715101128E-06
1387876900,769816,1.64454093781129E+018,1,0,0,0,0,0,0,0,0,0,0,0,0,0,0,0,0,0,0,0,0,0,0,0,0,0,0.38245934248,-9.58109664917,0.666852176189,0,0,0,0,0,0,0,0,0,0.002016,0.00077103803444,0.001344373987197,2.33161901614559E-06,4.0653869372838E-06
1389757700,769817,1.6445409378133E+018,1,0,0,0,0,0,0,0,0,0,0,0,0,0,0,0,0,0,0,0,0,0,0,0,0,0,0.362846046686,-9.62032318115,0.696272134781,0,0,0,0,0,0,0,0,0,0.002013696,0.000730661632827,0.00140208041272,2.20699561106704E-06,4.2350455781588E-06
1391629500,769818,1.64454093781532E+018,1,0,0,0,0,0,0,0,0,0,0,0,0,0,0,0,0,0,0,0,0,0,0,0,0,0,0.38245934248,-9.66935634613,0.764918684959,0,0,0,0,0,0,0,0,0,0.002016256,0.000771135944031,0.001542271888061,2.33221121095333E-06,4.66442242190055E-06
1393800200,769819,1.64454093781733E+018,1,0,0,0,0,0,0,0,0,0,0,0,0,0,0,0,0,0,0,0,0,0,0,0,0,0,0.362846046686,-9.56148338318,0.686465501785,0,0,0,0,0,0,0,0,0,0.002013952,0.000730754521415,0.001382508570251,2.20755679487027E-06,4.17645885011092E-06
1395662200,769820,1.64454093781935E+018,1,0,0,0,0,0,0,0,0,0,0,0,0,0,0,0,0,0,0,0,0,0,0,0,0,0,0.38245934248,-9.56148338318,0.686465501785,0,0,0,0,0,0,0,0,0,0.002016,0.00077103803444,0.001383914451599,2.33161901614559E-06,4.18495730163405E-06
1397810400,769821,1.64454093782136E+018,1,0,0,0,0,0,0,0,0,0,0,0,0,0,0,0,0,0,0,0,0,0,0,0,0,0,0.38245934248,-9.62032318115,0.725692093372,0,0,0,0,0,0,0,0,0,0.002013696,0.000770156848115,0.001461323265655,2.32629264663149E-06,4.41399122213408E-06
1399721700,769822,1.64454093782338E+018,1,0,0,0,0,0,0,0,0,0,0,0,0,0,0,0,0,0,0,0,0,0,0,0,0,0,0.38245934248,-9.61051654816,0.696272134781,0,0,0,0,0,0,0,0,0,0.002016256,0.000771135944031,0.001403862869385,2.33221121095333E-06,4.24582040036209E-06
1401914600,769823,1.64454093782539E+018,1,0,0,0,0,0,0,0,0,0,0,0,0,0,0,0,0,0,0,0,0,0,0,0,0,0,0.402072638273,-9.62032318115,0.696272134781,0,0,0,0,0,0,0,0,0,0.002013952,0.000809754993995,0.001402258658386,2.44621153449989E-06,4.23612244436211E-06
1403975600,769824,1.64454093782741E+018,1,0,0,0,0,0,0,0,0,0,0,0,0,0,0,0,0,0,0,0,0,0,0,0,0,0,0.38245934248,-9.62032318115,0.725692093372,0,0,0,0,0,0,0,0,0,0.002016256,0.000771135944031,0.001463181037414,2.33221121095333E-06,4.42522131865787E-06
1406042200,769825,1.64454093782942E+018,1,0,0,0,0,0,0,0,0,0,0,0,0,0,0,0,0,0,0,0,0,0,0,0,0,0,0.362846046686,-9.58109664917,0.735498726368,0,0,0,0,0,0,0,0,0,0.002013696,0.000730661632827,0.001481070843292,2.20699561106704E-06,4.47363964928161E-06
1408059900,769826,1.64454093783144E+018,1,0,0,0,0,0,0,0,0,0,0,0,0,0,0,0,0,0,0,0,0,0,0,0,0,0,0.362846046686,-9.57129001617,0.725692093372,0,0,0,0,0,0,0,0,0,0.002015744,0.000731404741531,0.001462809483062,2.21148707896907E-06,4.42297415793814E-06
1409921100,769827,1.64454093783345E+018,1,0,0,0,0,0,0,0,0,0,0,0,0,0,0,0,0,0,0,0,0,0,0,0,0,0,0.362846046686,-9.58109664917,0.696272134781,0,0,0,0,0,0,0,0,0,0.002014464,0.000730940298591,0.001402615149719,2.20867937649204E-06,4.23827658744673E-06
1411955400,769828,1.64454093783547E+018,1,0,0,0,0,0,0,0,0,0,0,0,0,0,0,0,0,0,0,0,0,0,0,0,0,0,0.402072638273,-9.62032318115,0.725692093372,0,0,0,0,0,0,0,0,0,0.002016,0.000810578438758,0.001462995260238,2.4511891988053E-06,4.42409766695957E-06
1413893300,769829,1.64454093783748E+018,1,0,0,0,0,0,0,0,0,0,0,0,0,0,0,0,0,0,0,0,0,0,0,0,0,0,0.38245934248,-9.62032318115,0.735498726368,0,0,0,0,0,0,0,0,0,0.002013696,0.000770156848115,0.001481070843292,2.32629264663149E-06,4.47363964928161E-06
1415961200,769830,1.64454093783949E+018,1,0,0,0,0,0,0,0,0,0,0,0,0,0,0,0,0,0,0,0,0,0,0,0,0,0,0.362846046686,-9.62032318115,0.774725317955,0,0,0,0,0,0,0,0,0,0.002013952,0.000730754521415,0.001560259603546,2.20755679487027E-06,4.71343192362134E-06
1417942200,769831,1.64454093784151E+018,1,0,0,0,0,0,0,0,0,0,0,0,0,0,0,0,0,0,0,0,0,0,0,0,0,0,0.402072638273,-9.62032318115,0.725692093372,0,0,0,0,0,0,0,0,0,0.002016256,0.000810681369354,0.001463181037414,2.45181176257162E-06,4.42522131865787E-06
1420025300,769832,1.64454093784352E+018,1,0,0,0,0,0,0,0,0,0,0,0,0,0,0,0,0,0,0,0,0,0,0,0,0,0,0.362846046686,-9.61051654816,0.666852176189,0,0,0,0,0,0,0,0,0,0.002013696,0.000730661632827,0.001342837559783,2.20699561106704E-06,4.05609993417744E-06
1421963100,769833,1.64454093784554E+018,1,0,0,0,0,0,0,0,0,0,0,0,0,0,0,0,0,0,0,0,0,0,0,0,0,0,0.38245934248,-9.64974308014,0.735498726368,0,0,0,0,0,0,0,0,0,0.002016256,0.000771135944031,0.001482953720032,2.33221121095333E-06,4.48502150360477E-06
1424022600,769834,1.64454093784755E+018,1,0,0,0,0,0,0,0,0,0,0,0,0,0,0,0,0,0,0,0,0,0,0,0,0,0,0.362846046686,-9.58109664917,0.686465501785,0,0,0,0,0,0,0,0,0,0.002013696,0.000730661632827,0.001382332835082,2.20699561106704E-06,4.17539715101128E-06
1426076600,769835,1.64454093784957E+018,1,0,0,0,0,0,0,0,0,0,0,0,0,0,0,0,0,0,0,0,0,0,0,0,0,0,0.362846046686,-9.62032318115,0.696272134781,0,0,0,0,0,0,0,0,0,0.002016,0.000731497630119,0.001403684623719,2.21204883347978E-06,4.24474230212473E-06
1428054800,769836,1.64454093785158E+018,1,0,0,0,0,0,0,0,0,0,0,0,0,0,0,0,0,0,0,0,0,0,0,0,0,0,0.402072638273,-9.61051654816,0.686465501785,0,0,0,0,0,0,0,0,0,0.002014208,0.000809857924591,0.001382684305419,2.44683346586062E-06,4.17752068417518E-06
1429950100,769837,1.6445409378536E+018,1,0,0,0,0,0,0,0,0,0,0,0,0,0,0,0,0,0,0,0,0,0,0,0,0,0,0.38245934248,-9.62032318115,0.696272134781,0,0,0,0,0,0,0,0,0,0.002016,0.00077103803444,0.001403684623719,2.33161901614559E-06,4.24474230212473E-06
1431905300,769838,1.64454093785561E+018,1,0,0,0,0,0,0,0,0,0,0,0,0,0,0,0,0,0,0,0,0,0,0,0,0,0,0.343232750893,-9.61051654816,0.696272134781,0,0,0,0,0,0,0,0,0,0.002013696,0.000691166417542,0.00140208041272,2.08769857550868E-06,4.2350455781588E-06
1434534300,769839,1.64454093785763E+018,1,0,0,0,0,0,0,0,0,0,0,0,0,0,0,0,0,0,0,0,0,0,0,0,0,0,0.402072638273,-9.64974308014,0.686465501785,0,0,0,0,0,0,0,0,0,0.002016,0.000810578438758,0.001383914451599,2.4511891988053E-06,4.18495730163405E-06
1436316500,769840,1.64454093785964E+018,1,0,0,0,0,0,0,0,0,0,0,0,0,0,0,0,0,0,0,0,0,0,0,0,0,0,0.402072638273,-9.62032318115,0.686465501785,0,0,0,0,0,0,0,0,0,0.002013952,0.000809754993995,0.001382508570251,2.44621153449989E-06,4.17645885011092E-06
1438273200,769841,1.64454093786166E+018,1,0,0,0,0,0,0,0,0,0,0,0,0,0,0,0,0,0,0,0,0,0,0,0,0,0,0.402072638273,-9.58109664917,0.686465501785,0,0,0,0,0,0,0,0,0,0.002016256,0.000810681369354,0.001384090186767,2.45181176257162E-06,4.18602021541518E-06
1440156600,769842,1.64454093786367E+018,1,0,0,0,0,0,0,0,0,0,0,0,0,0,0,0,0,0,0,0,0,0,0,0,0,0,0.402072638273,-9.64974308014,0.725692093372,0,0,0,0,0,0,0,0,0,0.002013952,0.000809754993995,0.001461509042831,2.44621153449989E-06,4.41511358974054E-06
1442219800,769843,1.64454093786569E+018,1,0,0,0,0,0,0,0,0,0,0,0,0,0,0,0,0,0,0,0,0,0,0,0,0,0,0.402072638273,-9.62032318115,0.696272134781,0,0,0,0,0,0,0,0,0,0.002016,0.000810578438758,0.001403684623719,2.4511891988053E-06,4.24474230212473E-06
1444218900,769844,1.64454093786771E+018,1,0,0,0,0,0,0,0,0,0,0,0,0,0,0,0,0,0,0,0,0,0,0,0,0,0,0.402072638273,-9.58109664917,0.666852176189,0,0,0,0,0,0,0,0,0,0.002016,0.000810578438758,0.001344373987197,2.4511891988053E-06,4.0653869372838E-06
1446225800,769845,1.64454093786972E+018,1,0,0,0,0,0,0,0,0,0,0,0,0,0,0,0,0,0,0,0,0,0,0,0,0,0,0.402072638273,-9.61051654816,0.686465501785,0,0,0,0,0,0,0,0,0,0.002013952,0.000809754993995,0.001382508570251,2.44621153449989E-06,4.17645885011092E-06
1448472700,769846,1.64454093787174E+018,1,0,0,0,0,0,0,0,0,0,0,0,0,0,0,0,0,0,0,0,0,0,0,0,0,0,0.421685934067,-9.64974308014,0.735498726368,0,0,0,0,0,0,0,0,0,0.002015488,0.000849902939881,0.00148238885701,2.5694537647418E-06,4.48160542895602E-06
1450295800,769847,1.64454093787375E+018,1,0,0,0,0,0,0,0,0,0,0,0,0,0,0,0,0,0,0,0,0,0,0,0,0,0,0.402072638273,-9.62032318115,0.666852176189,0,0,0,0,0,0,0,0,0,0.002014464,0.000809960855186,0.001343349702254,2.44745547627206E-06,4.05919442190331E-06
1452201900,769848,1.64454093787577E+018,1,0,0,0,0,0,0,0,0,0,0,0,0,0,0,0,0,0,0,0,0,0,0,0,0,0,0.38245934248,-9.58109664917,0.666852176189,0,0,0,0,0,0,0,0,0,0.002015744,0.000770940124848,0.00134420327304,2.33102689653243E-06,4.06435452361587E-06
1454197800,769849,1.64454093787778E+018,1,0,0,0,0,0,0,0,0,0,0,0,0,0,0,0,0,0,0,0,0,0,0,0,0,0,0.362846046686,-9.62032318115,0.637432217598,0,0,0,0,0,0,0,0,0,0.002013952,0.000730754521415,0.001283757889496,2.20755679487027E-06,3.87814015359915E-06
1456357900,769850,1.6445409378798E+018,1,0,0,0,0,0,0,0,0,0,0,0,0,0,0,0,0,0,0,0,0,0,0,0,0,0,0.38245934248,-9.64974308014,0.666852176189,0,0,0,0,0,0,0,0,0,0.002016,0.00077103803444,0.001344373987197,2.33161901614559E-06,4.0653869372838E-06
1458292600,769851,1.64454093788181E+018,1,0,0,0,0,0,0,0,0,0,0,0,0,0,0,0,0,0,0,0,0,0,0,0,0,0,0.402072638273,-9.62032318115,0.686465501785,0,0,0,0,0,0,0,0,0,0.002014208,0.000809857924591,0.001382684305419,2.44683346586062E-06,4.17752068417518E-06
1460233500,769852,1.64454093788383E+018,1,0,0,0,0,0,0,0,0,0,0,0,0,0,0,0,0,0,0,0,0,0,0,0,0,0,0.402072638273,-9.61051654816,0.666852176189,0,0,0,0,0,0,0,0,0,0.002016256,0.000810681369354,0.001344544701354,2.45181176257162E-06,4.06641948206021E-06
1462300800,769853,1.64454093788584E+018,1,0,0,0,0,0,0,0,0,0,0,0,0,0,0,0,0,0,0,0,0,0,0,0,0,0,0.362846046686,-9.61051654816,0.666852176189,0,0,0,0,0,0,0,0,0,0.002013696,0.000730661632827,0.001342837559783,2.20699561106704E-06,4.05609993417744E-06
1464239400,769854,1.64454093788786E+018,1,0,0,0,0,0,0,0,0,0,0,0,0,0,0,0,0,0,0,0,0,0,0,0,0,0,0.402072638273,-9.58109664917,0.637432217598,0,0,0,0,0,0,0,0,0,0.002016,0.000810578438758,0.001285063350678,2.4511891988053E-06,3.88603157244897E-06
1466180400,769855,1.64454093788987E+018,1,0,0,0,0,0,0,0,0,0,0,0,0,0,0,0,0,0,0,0,0,0,0,0,0,0,0.402072638273,-9.62032318115,0.627625584602,0,0,0,0,0,0,0,0,0,0.002016,0.000810578438758,0.001265293178558,2.4511891988053E-06,3.82624657195828E-06
1468452700,769856,1.64454093789189E+018,1,0,0,0,0,0,0,0,0,0,0,0,0,0,0,0,0,0,0,0,0,0,0,0,0,0,0.402072638273,-9.64974308014,0.696272134781,0,0,0,0,0,0,0,0,0,0.002013696,0.0008096520634,0.00140208041272,2.44558968218985E-06,4.2350455781588E-06
1470634300,769857,1.6445409378939E+018,1,0,0,0,0,0,0,0,0,0,0,0,0,0,0,0,0,0,0,0,0,0,0,0,0,0,0.421685934067,-9.64974308014,0.686465501785,0,0,0,0,0,0,0,0,0,0.002016,0.000850118843079,0.001383914451599,2.57075938147111E-06,4.18495730163405E-06
1472608100,769858,1.64454093789592E+018,1,0,0,0,0,0,0,0,0,0,0,0,0,0,0,0,0,0,0,0,0,0,0,0,0,0,0.402072638273,-9.64974308014,0.666852176189,0,0,0,0,0,0,0,0,0,0.002014208,0.000809857924591,0.001343178988097,2.44683346586062E-06,4.05816279488621E-06
1474464900,769859,1.64454093789793E+018,1,0,0,0,0,0,0,0,0,0,0,0,0,0,0,0,0,0,0,0,0,0,0,0,0,0,0.402072638273,-9.57129001617,0.686465501785,0,0,0,0,0,0,0,0,0,0.002015488,0.000810372577568,0.001383562981262,2.44994430842477E-06,4.18283187896561E-06
1476457000,769860,1.64454093789994E+018,1,0,0,0,0,0,0,0,0,0,0,0,0,0,0,0,0,0,0,0,0,0,0,0,0,0,0.362846046686,-9.64974308014,0.637432217598,0,0,0,0,0,0,0,0,0,0.002014208,0.000730847410003,0.001283921072144,2.20811805001193E-06,3.87912614232042E-06
1478397100,769861,1.64454093790196E+018,1,0,0,0,0,0,0,0,0,0,0,0,0,0,0,0,0,0,0,0,0,0,0,0,0,0,0.402072638273,-9.64974308014,0.666852176189,0,0,0,0,0,0,0,0,0,0.002016,0.000810578438758,0.001344373987197,2.4511891988053E-06,4.0653869372838E-06
1480497400,769862,1.64454093790398E+018,1,0,0,0,0,0,0,0,0,0,0,0,0,0,0,0,0,0,0,0,0,0,0,0,0,0,0.402072638273,-9.62032318115,0.637432217598,0,0,0,0,0,0,0,0,0,0.002016256,0.000810681369354,0.001285226533325,2.45181176257162E-06,3.88701856376442E-06
1482458700,769863,1.64454093790599E+018,1,0,0,0,0,0,0,0,0,0,0,0,0,0,0,0,0,0,0,0,0,0,0,0,0,0,0.402072638273,-9.61051654816,0.725692093372,0,0,0,0,0,0,0,0,0,0.002013952,0.000809754993995,0.001461509042831,2.44621153449989E-06,4.41511358974054E-06
1484429200,769864,1.64454093790801E+018,1,0,0,0,0,0,0,0,0,0,0,0,0,0,0,0,0,0,0,0,0,0,0,0,0,0,0.402072638273,-9.62032318115,0.666852176189,0,0,0,0,0,0,0,0,0,0.002015744,0.000810475508163,0.00134420327304,2.45056671408969E-06,4.06435452361587E-06
1486481200,769865,1.64454093791002E+018,1,0,0,0,0,0,0,0,0,0,0,0,0,0,0,0,0,0,0,0,0,0,0,0,0,0,0.402072638273,-9.61051654816,0.627625584602,0,0,0,0,0,0,0,0,0,0.002014208,0.000809857924591,0.00126416847351,2.44683346586062E-06,3.81944737903752E-06
1488450400,769866,1.64454093791204E+018,1,0,0,0,0,0,0,0,0,0,0,0,0,0,0,0,0,0,0,0,0,0,0,0,0,0,0.38245934248,-9.64974308014,0.637432217598,0,0,0,0,0,0,0,0,0,0.002016,0.00077103803444,0.001285063350678,2.33161901614559E-06,3.88603157244897E-06
1490461000,769867,1.64454093791405E+018,1,0,0,0,0,0,0,0,0,0,0,0,0,0,0,0,0,0,0,0,0,0,0,0,0,0,0.402072638273,-9.64974308014,0.696272134781,0,0,0,0,0,0,0,0,0,0.002015744,0.000810475508163,0.001403506378052,2.45056671408969E-06,4.24366434078005E-06
1492449600,769868,1.64454093791607E+018,1,0,0,0,0,0,0,0,0,0,0,0,0,0,0,0,0,0,0,0,0,0,0,0,0,0,0.38245934248,-9.62032318115,0.686465501785,0,0,0,0,0,0,0,0,0,0.002014464,0.00077045057689,0.001382860040588,2.32806742638509E-06,4.17858265320405E-06
1494437600,769869,1.64454093791808E+018,1,0,0,0,0,0,0,0,0,0,0,0,0,0,0,0,0,0,0,0,0,0,0,0,0,0,0.362846046686,-9.58109664917,0.696272134781,0,0,0,0,0,0,0,0,0,0.002015488,0.000731311852943,0.001403328132385,2.21092539579679E-06,4.24258651632805E-06
1496557000,769870,1.6445409379201E+018,1,0,0,0,0,0,0,0,0,0,0,0,0,0,0,0,0,0,0,0,0,0,0,0,0,0,0.402072638273,-9.61051654816,0.696272134781,0,0,0,0,0,0,0,0,0,0.002013952,0.000809754993995,0.001402258658386,2.44621153449989E-06,4.23612244436211E-06
1498544000,769871,1.64454093792211E+018,1,0,0,0,0,0,0,0,0,0,0,0,0,0,0,0,0,0,0,0,0,0,0,0,0,0,0.38245934248,-9.61051654816,0.725692093372,0,0,0,0,0,0,0,0,0,0.002015744,0.000770940124848,0.001462809483062,2.33102689653243E-06,4.42297415793814E-06
1500480500,769872,1.64454093792413E+018,1,0,0,0,0,0,0,0,0,0,0,0,0,0,0,0,0,0,0,0,0,0,0,0,0,0,0.402072638273,-9.64974308014,0.725692093372,0,0,0,0,0,0,0,0,0,0.002014208,0.000809857924591,0.001461694820007,2.44683346586062E-06,4.41623610002387E-06
1502748300,769873,1.64454093792614E+018,1,0,0,0,0,0,0,0,0,0,0,0,0,0,0,0,0,0,0,0,0,0,0,0,0,0,0.362846046686,-9.61051654816,0.696272134781,0,0,0,0,0,0,0,0,0,0.002016,0.000731497630119,0.001403684623719,2.21204883347978E-06,4.24474230212473E-06
1504828300,769874,1.64454093792816E+018,1,0,0,0,0,0,0,0,0,0,0,0,0,0,0,0,0,0,0,0,0,0,0,0,0,0,0.402072638273,-9.62032318115,0.696272134781,0,0,0,0,0,0,0,0,0,0.002016,0.000810578438758,0.001403684623719,2.4511891988053E-06,4.24474230212473E-06
1506684600,769875,1.64454093793017E+018,1,0,0,0,0,0,0,0,0,0,0,0,0,0,0,0,0,0,0,0,0,0,0,0,0,0,0.38245934248,-9.61051654816,0.735498726368,0,0,0,0,0,0,0,0,0,0.002014208,0.000770352667298,0.00148144741864,2.32747575793932E-06,4.47591486330677E-06
1508701900,769876,1.64454093793219E+018,1,0,0,0,0,0,0,0,0,0,0,0,0,0,0,0,0,0,0,0,0,0,0,0,0,0,0.38245934248,-9.58109664917,0.686465501785,0,0,0,0,0,0,0,0,0,0.002015744,0.000770940124848,0.00138373871643,2.33102689653243E-06,4.18389452281752E-06
1510631200,769877,1.6445409379342E+018,1,0,0,0,0,0,0,0,0,0,0,0,0,0,0,0,0,0,0,0,0,0,0,0,0,0,0.402072638273,-9.62032318115,0.725692093372,0,0,0,0,0,0,0,0,0,0.002014208,0.000809857924591,0.001461694820007,2.44683346586062E-06,4.41623610002387E-06
1512900700,769878,1.64454093793622E+018,1,0,0,0,0,0,0,0,0,0,0,0,0,0,0,0,0,0,0,0,0,0,0,0,0,0,0.402072638273,-9.58109664917,0.725692093372,0,0,0,0,0,0,0,0,0,0.002016,0.000810578438758,0.001462995260238,2.4511891988053E-06,4.42409766695957E-06
1514755200,769879,1.64454093793823E+018,1,0,0,0,0,0,0,0,0,0,0,0,0,0,0,0,0,0,0,0,0,0,0,0,0,0,0.38245934248,-9.64974308014,0.735498726368,0,0,0,0,0,0,0,0,0,0.002013952,0.000770254757706,0.001481259130966,2.32688416468812E-06,4.47477718399172E-06
1516753800,769880,1.64454093794025E+018,1,0,0,0,0,0,0,0,0,0,0,0,0,0,0,0,0,0,0,0,0,0,0,0,0,0,0.402072638273,-9.62032318115,0.725692093372,0,0,0,0,0,0,0,0,0,0.002016256,0.000810681369354,0.001463181037414,2.45181176257162E-06,4.42522131865787E-06
1518696700,769881,1.64454093794226E+018,1,0,0,0,0,0,0,0,0,0,0,0,0,0,0,0,0,0,0,0,0,0,0,0,0,0,0.343232750893,-9.61051654816,0.725692093372,0,0,0,0,0,0,0,0,0,0.002013696,0.000691166417542,0.001461323265655,2.08769857550868E-06,4.41399122213408E-06
1520661700,769882,1.64454093794428E+018,1,0,0,0,0,0,0,0,0,0,0,0,0,0,0,0,0,0,0,0,0,0,0,0,0,0,0.402072638273,-9.57129001617,0.696272134781,0,0,0,0,0,0,0,0,0,0.002016,0.000810578438758,0.001403684623719,2.4511891988053E-06,4.24474230212473E-06
1522702000,769883,1.64454093794629E+018,1,0,0,0,0,0,0,0,0,0,0,0,0,0,0,0,0,0,0,0,0,0,0,0,0,0,0.38245934248,-9.61051654816,0.764918684959,0,0,0,0,0,0,0,0,0,0.002016,0.00077103803444,0.001542076068877,2.33161901614559E-06,4.66323803228509E-06
1524786900,769884,1.64454093794831E+018,1,0,0,0,0,0,0,0,0,0,0,0,0,0,0,0,0,0,0,0,0,0,0,0,0,0,0.38245934248,-9.62032318115,0.696272134781,0,0,0,0,0,0,0,0,0,0.002013952,0.000770254757706,0.001402258658386,2.32688416468812E-06,4.23612244436211E-06
1526674900,769885,1.64454093795032E+018,1,0,0,0,0,0,0,0,0,0,0,0,0,0,0,0,0,0,0,0,0,0,0,0,0,0,0.38245934248,-9.62032318115,0.686465501785,0,0,0,0,0,0,0,0,0,0.002016,0.00077103803444,0.001383914451599,2.33161901614559E-06,4.18495730163405E-06
1528850600,769886,1.64454093795234E+018,1,0,0,0,0,0,0,0,0,0,0,0,0,0,0,0,0,0,0,0,0,0,0,0,0,0,0.362846046686,-9.58109664917,0.686465501785,0,0,0,0,0,0,0,0,0,0.002013696,0.000730661632827,0.001382332835082,2.20699561106704E-06,4.17539715101128E-06
1530668400,769887,1.64454093795436E+018,1,0,0,0,0,0,0,0,0,0,0,0,0,0,0,0,0,0,0,0,0,0,0,0,0,0,0.38245934248,-9.61051654816,0.696272134781,0,0,0,0,0,0,0,0,0,0.002016512,0.000771233853623,0.001404041115052,2.33280348095562E-06,4.24689863549211E-06
1532665000,769888,1.64454093795637E+018,1,0,0,0,0,0,0,0,0,0,0,0,0,0,0,0,0,0,0,0,0,0,0,0,0,0,0.402072638273,-9.61051654816,0.696272134781,0,0,0,0,0,0,0,0,0,0.002015488,0.000810372577568,0.001403328132385,2.44994430842477E-06,4.24258651632805E-06
1535155900,769889,1.64454093795838E+018,1,0,0,0,0,0,0,0,0,0,0,0,0,0,0,0,0,0,0,0,0,0,0,0,0,0,0.402072638273,-9.61051654816,0.725692093372,0,0,0,0,0,0,0,0,0,0.002014208,0.000809857924591,0.001461694820007,2.44683346586062E-06,4.41623610002387E-06
1537042200,769890,1.6445409379604E+018,1,0,0,0,0,0,0,0,0,0,0,0,0,0,0,0,0,0,0,0,0,0,0,0,0,0,0.362846046686,-9.64974308014,0.686465501785,0,0,0,0,0,0,0,0,0,0.002015744,0.000731404741531,0.00138373871643,2.21148707896907E-06,4.18389452281752E-06
1538929700,769891,1.64454093796241E+018,1,0,0,0,0,0,0,0,0,0,0,0,0,0,0,0,0,0,0,0,0,0,0,0,0,0,0.38245934248,-9.58109664917,0.686465501785,0,0,0,0,0,0,0,0,0,0.002013952,0.000770254757706,0.001382508570251,2.32688416468812E-06,4.17645885011092E-06
1540931200,769892,1.64454093796443E+018,1,0,0,0,0,0,0,0,0,0,0,0,0,0,0,0,0,0,0,0,0,0,0,0,0,0,0.362846046686,-9.61051654816,0.686465501785,0,0,0,0,0,0,0,0,0,0.002016,0.000731497630119,0.001383914451599,2.21204883347978E-06,4.18495730163405E-06
1542916700,769893,1.64454093796644E+018,1,0,0,0,0,0,0,0,0,0,0,0,0,0,0,0,0,0,0,0,0,0,0,0,0,0,0.402072638273,-9.62032318115,0.725692093372,0,0,0,0,0,0,0,0,0,0.002014208,0.000809857924591,0.001461694820007,2.44683346586062E-06,4.41623610002387E-06
1545202100,769894,1.64454093796846E+018,1,0,0,0,0,0,0,0,0,0,0,0,0,0,0,0,0,0,0,0,0,0,0,0,0,0,0.362846046686,-9.64974308014,0.686465501785,0,0,0,0,0,0,0,0,0,0.002016256,0.000731590518707,0.001384090186767,2.21261065932893E-06,4.18602021541518E-06
1547049300,769895,1.64454093797048E+018,1,0,0,0,0,0,0,0,0,0,0,0,0,0,0,0,0,0,0,0,0,0,0,0,0,0,0.38245934248,-9.62032318115,0.686465501785,0,0,0,0,0,0,0,0,0,0.002015744,0.000770940124848,0.00138373871643,2.33102689653243E-06,4.18389452281752E-06
1549126300,769896,1.64454093797249E+018,1,0,0,0,0,0,0,0,0,0,0,0,0,0,0,0,0,0,0,0,0,0,0,0,0,0,0.362846046686,-9.64974308014,0.627625584602,0,0,0,0,0,0,0,0,0,0.002013696,0.000730661632827,0.001263847129211,2.20699561106704E-06,3.81750586305463E-06
1550990600,769897,1.64454093797451E+018,1,0,0,0,0,0,0,0,0,0,0,0,0,0,0,0,0,0,0,0,0,0,0,0,0,0,0.402072638273,-9.62032318115,0.686465501785,0,0,0,0,0,0,0,0,0,0.002016256,0.000810681369354,0.001384090186767,2.45181176257162E-06,4.18602021541518E-06
1553062600,769898,1.64454093797652E+018,1,0,0,0,0,0,0,0,0,0,0,0,0,0,0,0,0,0,0,0,0,0,0,0,0,0,0.38245934248,-9.64974308014,0.696272134781,0,0,0,0,0,0,0,0,0,0.002013696,0.000770156848115,0.00140208041272,2.32629264663149E-06,4.2350455781588E-06
1555472700,769899,1.64454093797854E+018,1,0,0,0,0,0,0,0,0,0,0,0,0,0,0,0,0,0,0,0,0,0,0,0,0,0,0.402072638273,-9.58109664917,0.627625584602,0,0,0,0,0,0,0,0,0,0.002016256,0.000810681369354,0.001265453850707,2.45181176257162E-06,3.82721837881752E-06
1557075200,769900,1.64454093798055E+018,1,0,0,0,0,0,0,0,0,0,0,0,0,0,0,0,0,0,0,0,0,0,0,0,0,0,0.402072638273,-9.62032318115,0.686465501785,0,0,0,0,0,0,0,0,0,0.002013952,0.000809754993995,0.001382508570251,2.44621153449989E-06,4.17645885011092E-06
1559431500,769901,1.64454093798257E+018,1,0,0,0,0,0,0,0,0,0,0,0,0,0,0,0,0,0,0,0,0,0,0,0,0,0,0.362846046686,-9.64974308014,0.637432217598,0,0,0,0,0,0,0,0,0,0.002016,0.000731497630119,0.001285063350678,2.21204883347978E-06,3.88603157244897E-06
1560971000,769902,1.64454093798458E+018,1,0,0,0,0,0,0,0,0,0,0,0,0,0,0,0,0,0,0,0,0,0,0,0,0,0,0.402072638273,-9.62032318115,0.637432217598,0,0,0,0,0,0,0,0,0,0.002013696,0.0008096520634,0.001283594706848,2.44558968218985E-06,3.87715429020216E-06
1562981100,769903,1.6445409379866E+018,1,0,0,0,0,0,0,0,0,0,0,0,0,0,0,0,0,0,0,0,0,0,0,0,0,0,0.402072638273,-9.64974308014,0.627625584602,0,0,0,0,0,0,0,0,0,0.002016256,0.000810681369354,0.001265453850707,2.45181176257162E-06,3.82721837881752E-06
1565503500,769904,1.64454093798861E+018,1,0,0,0,0,0,0,0,0,0,0,0,0,0,0,0,0,0,0,0,0,0,0,0,0,0,0.362846046686,-9.64974308014,0.696272134781,0,0,0,0,0,0,0,0,0,0.002013952,0.000730754521415,0.001402258658386,2.20755679487027E-06,4.23612244436211E-06
1566962200,769905,1.64454093799063E+018,1,0,0,0,0,0,0,0,0,0,0,0,0,0,0,0,0,0,0,0,0,0,0,0,0,0,0.402072638273,-9.64974308014,0.666852176189,0,0,0,0,0,0,0,0,0,0.002016256,0.000810681369354,0.001344544701354,2.45181176257162E-06,4.06641948206021E-06
1569004000,769906,1.64454093799264E+018,1,0,0,0,0,0,0,0,0,0,0,0,0,0,0,0,0,0,0,0,0,0,0,0,0,0,0.38245934248,-9.62032318115,0.686465501785,0,0,0,0,0,0,0,0,0,0.002013696,0.000770156848115,0.001382332835082,2.32629264663149E-06,4.17539715101128E-06
1571175900,769907,1.64454093799466E+018,1,0,0,0,0,0,0,0,0,0,0,0,0,0,0,0,0,0,0,0,0,0,0,0,0,0,0.402072638273,-9.64974308014,0.637432217598,0,0,0,0,0,0,0,0,0,0.002016,0.000810578438758,0.001285063350678,2.4511891988053E-06,3.88603157244897E-06
1573250200,769908,1.64454093799667E+018,1,0,0,0,0,0,0,0,0,0,0,0,0,0,0,0,0,0,0,0,0,0,0,0,0,0,0.402072638273,-9.62032318115,0.666852176189,0,0,0,0,0,0,0,0,0,0.002014208,0.000809857924591,0.001343178988097,2.44683346586062E-06,4.05816279488621E-06
1575367400,769909,1.64454093799869E+018,1,0,0,0,0,0,0,0,0,0,0,0,0,0,0,0,0,0,0,0,0,0,0,0,0,0,0.402072638273,-9.64974308014,0.666852176189,0,0,0,0,0,0,0,0,0,0.002016,0.000810578438758,0.001344373987197,2.4511891988053E-06,4.0653869372838E-06
1577214700,769910,1.6445409380007E+018,1,0,0,0,0,0,0,0,0,0,0,0,0,0,0,0,0,0,0,0,0,0,0,0,0,0,0.38245934248,-9.62032318115,0.686465501785,0,0,0,0,0,0,0,0,0,0.002013696,0.000770156848115,0.001382332835082,2.32629264663149E-06,4.17539715101128E-06
1579204800,769911,1.64454093800272E+018,1,0,0,0,0,0,0,0,0,0,0,0,0,0,0,0,0,0,0,0,0,0,0,0,0,0,0.38245934248,-9.61051654816,0.598205626011,0,0,0,0,0,0,0,0,0,0.002016256,0.000771135944031,0.001206135682678,2.33221121095333E-06,3.64781746052174E-06
1581309000,769912,1.64454093800473E+018,1,0,0,0,0,0,0,0,0,0,0,0,0,0,0,0,0,0,0,0,0,0,0,0,0,0,0.402072638273,-9.64974308014,0.686465501785,0,0,0,0,0,0,0,0,0,0.002013952,0.000809754993995,0.001382508570251,2.44621153449989E-06,4.17645885011092E-06
1583151200,769913,1.64454093800675E+018,1,0,0,0,0,0,0,0,0,0,0,0,0,0,0,0,0,0,0,0,0,0,0,0,0,0,0.362846046686,-9.64974308014,0.637432217598,0,0,0,0,0,0,0,0,0,0.002015744,0.000731404741531,0.00128490016803,2.21148707896907E-06,3.88504470645778E-06
1585505500,769914,1.64454093800876E+018,1,0,0,0,0,0,0,0,0,0,0,0,0,0,0,0,0,0,0,0,0,0,0,0,0,0,0.38245934248,-9.64974308014,0.686465501785,0,0,0,0,0,0,0,0,0,0.002014208,0.000770352667298,0.001382684305419,2.32747575793932E-06,4.17752068417518E-06
1587236800,769915,1.64454093801078E+018,1,0,0,0,0,0,0,0,0,0,0,0,0,0,0,0,0,0,0,0,0,0,0,0,0,0,0.402072638273,-9.62032318115,0.686465501785,0,0,0,0,0,0,0,0,0,0.002015744,0.000810475508163,0.00138373871643,2.45056671408969E-06,4.18389452281752E-06
1589696200,769916,1.64454093801279E+018,1,0,0,0,0,0,0,0,0,0,0,0,0,0,0,0,0,0,0,0,0,0,0,0,0,0,0.38245934248,-9.66935634613,0.696272134781,0,0,0,0,0,0,0,0,0,0.002013952,0.000770254757706,0.001402258658386,2.32688416468812E-06,4.23612244436211E-06
1591228500,769917,1.64454093801481E+018,1,0,0,0,0,0,0,0,0,0,0,0,0,0,0,0,0,0,0,0,0,0,0,0,0,0,0.402072638273,-9.62032318115,0.637432217598,0,0,0,0,0,0,0,0,0,0.002016,0.000810578438758,0.001285063350678,2.4511891988053E-06,3.88603157244897E-06
1593173100,769918,1.64454093801682E+018,1,0,0,0,0,0,0,0,0,0,0,0,0,0,0,0,0,0,0,0,0,0,0,0,0,0,0.421685934067,-9.66935634613,0.686465501785,0,0,0,0,0,0,0,0,0,0.002014464,0.000849471133484,0.001382860040588,2.56684352616511E-06,4.17858265320405E-06
1595389000,769919,1.64454093801884E+018,1,0,0,0,0,0,0,0,0,0,0,0,0,0,0,0,0,0,0,0,0,0,0,0,0,0,0.38245934248,-9.62032318115,0.686465501785,0,0,0,0,0,0,0,0,0,0.002015744,0.000770940124848,0.00138373871643,2.33102689653243E-06,4.18389452281752E-06
1597221600,769920,1.64454093802085E+018,1,0,0,0,0,0,0,0,0,0,0,0,0,0,0,0,0,0,0,0,0,0,0,0,0,0,0.402072638273,-9.62032318115,0.666852176189,0,0,0,0,0,0,0,0,0,0.002015488,0.000810372577568,0.001344032558883,2.44994430842477E-06,4.06332224105641E-06
1599688300,769921,1.64454093802287E+018,1,0,0,0,0,0,0,0,0,0,0,0,0,0,0,0,0,0,0,0,0,0,0,0,0,0,0.38245934248,-9.62032318115,0.725692093372,0,0,0,0,0,0,0,0,0,0.002014464,0.00077045057689,0.001461880597183,2.32806742638509E-06,4.41735875298407E-06
1601264000,769922,1.64454093802488E+018,1,0,0,0,0,0,0,0,0,0,0,0,0,0,0,0,0,0,0,0,0,0,0,0,0,0,0.38245934248,-9.62032318115,0.637432217598,0,0,0,0,0,0,0,0,0,0.002015744,0.000770940124848,0.00128490016803,2.33102689653243E-06,3.88504470645778E-06
1603858800,769923,1.6445409380269E+018,1,0,0,0,0,0,0,0,0,0,0,0,0,0,0,0,0,0,0,0,0,0,0,0,0,0,0.402072638273,-9.61051654816,0.686465501785,0,0,0,0,0,0,0,0,0,0.002013952,0.000809754993995,0.001382508570251,2.44621153449989E-06,4.17645885011092E-06
1605596400,769924,1.64454093802891E+018,1,0,0,0,0,0,0,0,0,0,0,0,0,0,0,0,0,0,0,0,0,0,0,0,0,0,0.402072638273,-9.64974308014,0.735498726368,0,0,0,0,0,0,0,0,0,0.002016256,0.000810681369354,0.001482953720032,2.45181176257162E-06,4.48502150360477E-06
1607429000,769925,1.64454093803093E+018,1,0,0,0,0,0,0,0,0,0,0,0,0,0,0,0,0,0,0,0,0,0,0,0,0,0,0.402072638273,-9.64974308014,0.696272134781,0,0,0,0,0,0,0,0,0,0.002013952,0.000809754993995,0.001402258658386,2.44621153449989E-06,4.23612244436211E-06
1609449300,769926,1.64454093803294E+018,1,0,0,0,0,0,0,0,0,0,0,0,0,0,0,0,0,0,0,0,0,0,0,0,0,0,0.402072638273,-9.61051654816,0.696272134781,0,0,0,0,0,0,0,0,0,0.002016,0.000810578438758,0.001403684623719,2.4511891988053E-06,4.24474230212473E-06
1611546300,769927,1.64454093803496E+018,1,0,0,0,0,0,0,0,0,0,0,0,0,0,0,0,0,0,0,0,0,0,0,0,0,0,0.402072638273,-9.62032318115,0.686465501785,0,0,0,0,0,0,0,0,0,0.002014208,0.000809857924591,0.001382684305419,2.44683346586062E-06,4.17752068417518E-06
1613934000,769928,1.64454093803697E+018,1,0,0,0,0,0,0,0,0,0,0,0,0,0,0,0,0,0,0,0,0,0,0,0,0,0,0.421685934067,-9.62032318115,0.696272134781,0,0,0,0,0,0,0,0,0,0.002015488,0.000849902939881,0.001403328132385,2.5694537647418E-06,4.24258651632805E-06
1615422200,769929,1.64454093803899E+018,1,0,0,0,0,0,0,0,0,0,0,0,0,0,0,0,0,0,0,0,0,0,0,0,0,0,0.402072638273,-9.61051654816,0.696272134781,0,0,0,0,0,0,0,0,0,0.002014208,0.000809857924591,0.001402436904053,2.44683346586062E-06,4.23719944745808E-06
1617630400,769930,1.644540938041E+018,1,0,0,0,0,0,0,0,0,0,0,0,0,0,0,0,0,0,0,0,0,0,0,0,0,0,0.402072638273,-9.58109664917,0.774725317955,0,0,0,0,0,0,0,0,0,0.002016,0.000810578438758,0.001561846240997,2.4511891988053E-06,4.72302303277578E-06
1619990800,769931,1.64454093804302E+018,1,0,0,0,0,0,0,0,0,0,0,0,0,0,0,0,0,0,0,0,0,0,0,0,0,0,0.362846046686,-9.62032318115,0.735498726368,0,0,0,0,0,0,0,0,0,0.002013952,0.000730754521415,0.001481259130966,2.20755679487027E-06,4.47477718399172E-06
1621567900,769932,1.64454093804503E+018,1,0,0,0,0,0,0,0,0,0,0,0,0,0,0,0,0,0,0,0,0,0,0,0,0,0,0.38245934248,-9.57129001617,0.735498726368,0,0,0,0,0,0,0,0,0,0.002016,0.00077103803444,0.001482765432358,2.33161901614559E-06,4.48388266745025E-06
1623473900,769933,1.64454093804705E+018,1,0,0,0,0,0,0,0,0,0,0,0,0,0,0,0,0,0,0,0,0,0,0,0,0,0,0.402072638273,-9.58109664917,0.735498726368,0,0,0,0,0,0,0,0,0,0.002014208,0.000809857924591,0.00148144741864,2.44683346586062E-06,4.47591486330677E-06
1625587200,769934,1.64454093804906E+018,1,0,0,0,0,0,0,0,0,0,0,0,0,0,0,0,0,0,0,0,0,0,0,0,0,0,0.421685934067,-9.61051654816,0.735498726368,0,0,0,0,0,0,0,0,0,0.002016,0.000850118843079,0.001482765432358,2.57075938147111E-06,4.48388266745025E-06
1627627100,769935,1.64454093805108E+018,1,0,0,0,0,0,0,0,0,0,0,0,0,0,0,0,0,0,0,0,0,0,0,0,0,0,0.402072638273,-9.64974308014,0.686465501785,0,0,0,0,0,0,0,0,0,0.002013696,0.0008096520634,0.001382332835082,2.44558968218985E-06,4.17539715101128E-06
1629438300,769936,1.64454093805309E+018,1,0,0,0,0,0,0,0,0,0,0,0,0,0,0,0,0,0,0,0,0,0,0,0,0,0,0.402072638273,-9.66935634613,0.735498726368,0,0,0,0,0,0,0,0,0,0.002016,0.000810578438758,0.001482765432358,2.4511891988053E-06,4.48388266745025E-06
1631492100,769937,1.64454093805511E+018,1,0,0,0,0,0,0,0,0,0,0,0,0,0,0,0,0,0,0,0,0,0,0,0,0,0,0.402072638273,-9.61051654816,0.696272134781,0,0,0,0,0,0,0,0,0,0.002014208,0.000809857924591,0.001402436904053,2.44683346586062E-06,4.23719944745808E-06
1633446600,769938,1.64454093805712E+018,1,0,0,0,0,0,0,0,0,0,0,0,0,0,0,0,0,0,0,0,0,0,0,0,0,0,0.402072638273,-9.62032318115,0.686465501785,0,0,0,0,0,0,0,0,0,0.002015488,0.000810372577568,0.001383562981262,2.44994430842477E-06,4.18283187896561E-06
1635493300,769939,1.64454093805914E+018,1,0,0,0,0,0,0,0,0,0,0,0,0,0,0,0,0,0,0,0,0,0,0,0,0,0,0.38245934248,-9.62032318115,0.725692093372,0,0,0,0,0,0,0,0,0,0.002014464,0.00077045057689,0.001461880597183,2.32806742638509E-06,4.41735875298407E-06
1637763800,769940,1.64454093806115E+018,1,0,0,0,0,0,0,0,0,0,0,0,0,0,0,0,0,0,0,0,0,0,0,0,0,0,0.38245934248,-9.64974308014,0.735498726368,0,0,0,0,0,0,0,0,0,0.002015744,0.000770940124848,0.001482577144684,2.33102689653243E-06,4.48274397590067E-06
1639702500,769941,1.64454093806317E+018,1,0,0,0,0,0,0,0,0,0,0,0,0,0,0,0,0,0,0,0,0,0,0,0,0,0,0.38245934248,-9.62032318115,0.696272134781,0,0,0,0,0,0,0,0,0,0.002013696,0.000770156848115,0.00140208041272,2.32629264663149E-06,4.2350455781588E-06
1642125100,769942,1.64454093806518E+018,1,0,0,0,0,0,0,0,0,0,0,0,0,0,0,0,0,0,0,0,0,0,0,0,0,0,0.402072638273,-9.62032318115,0.725692093372,0,0,0,0,0,0,0,0,0,0.002016768,0.000810887230545,0.001463552591766,2.45305712725634E-06,4.42746905008508E-06
1644167500,769943,1.6445409380672E+018,1,0,0,0,0,0,0,0,0,0,0,0,0,0,0,0,0,0,0,0,0,0,0,0,0,0,0.343232750893,-9.62032318115,0.735498726368,0,0,0,0,0,0,0,0,0,0.002015488,0.000691781490632,0.00148238885701,2.09141593948585E-06,4.48160542895602E-06
1645691200,769944,1.64454093806921E+018,1,0,0,0,0,0,0,0,0,0,0,0,0,0,0,0,0,0,0,0,0,0,0,0,0,0,0.38245934248,-9.62032318115,0.725692093372,0,0,0,0,0,0,0,0,0,0.002014464,0.00077045057689,0.001461880597183,2.32806742638509E-06,4.41735875298407E-06
1647795400,769945,1.64454093807123E+018,1,0,0,0,0,0,0,0,0,0,0,0,0,0,0,0,0,0,0,0,0,0,0,0,0,0,0.38245934248,-9.61051654816,0.696272134781,0,0,0,0,0,0,0,0,0,0.002015232,0.000770744305665,0.001403149886719,2.32984288288979E-06,4.24150882876871E-06
1650286600,769946,1.64454093807324E+018,1,0,0,0,0,0,0,0,0,0,0,0,0,0,0,0,0,0,0,0,0,0,0,0,0,0,0.343232750893,-9.62032318115,0.637432217598,0,0,0,0,0,0,0,0,0,0.002014208,0.000691342152711,0.001283921072144,2.08876034209063E-06,3.87912614232042E-06
1651810900,769947,1.64454093807526E+018,1,0,0,0,0,0,0,0,0,0,0,0,0,0,0,0,0,0,0,0,0,0,0,0,0,0,0.402072638273,-9.61051654816,0.696272134781,0,0,0,0,0,0,0,0,0,0.002016,0.000810578438758,0.001403684623719,2.4511891988053E-06,4.24474230212473E-06
1653780900,769948,1.64454093807727E+018,1,0,0,0,0,0,0,0,0,0,0,0,0,0,0,0,0,0,0,0,0,0,0,0,0,0,0.402072638273,-9.64974308014,0.666852176189,0,0,0,0,0,0,0,0,0,0.002013952,0.000809754993995,0.00134300827394,2.44621153449989E-06,4.05713129897759E-06
1655754500,769949,1.64454093807929E+018,1,0,0,0,0,0,0,0,0,0,0,0,0,0,0,0,0,0,0,0,0,0,0,0,0,0,0.402072638273,-9.62032318115,0.735498726368,0,0,0,0,0,0,0,0,0,0.002016256,0.000810681369354,0.001482953720032,2.45181176257162E-06,4.48502150360477E-06
1657807500,769950,1.6445409380813E+018,1,0,0,0,0,0,0,0,0,0,0,0,0,0,0,0,0,0,0,0,0,0,0,0,0,0,0.402072638273,-9.64974308014,0.666852176189,0,0,0,0,0,0,0,0,0,0.002013952,0.000809754993995,0.00134300827394,2.44621153449989E-06,4.05713129897759E-06
1659808700,769951,1.64454093808332E+018,1,0,0,0,0,0,0,0,0,0,0,0,0,0,0,0,0,0,0,0,0,0,0,0,0,0,0.38245934248,-9.62032318115,0.686465501785,0,0,0,0,0,0,0,0,0,0.002013696,0.000770156848115,0.001382332835082,2.32629264663149E-06,4.17539715101128E-06
1661724600,769952,1.64454093808533E+018,1,0,0,0,0,0,0,0,0,0,0,0,0,0,0,0,0,0,0,0,0,0,0,0,0,0,0.38245934248,-9.61051654816,0.637432217598,0,0,0,0,0,0,0,0,0,0.002016,0.00077103803444,0.001285063350678,2.33161901614559E-06,3.88603157244897E-06
1663795000,769953,1.64454093808735E+018,1,0,0,0,0,0,0,0,0,0,0,0,0,0,0,0,0,0,0,0,0,0,0,0,0,0,0.38245934248,-9.62032318115,0.637432217598,0,0,0,0,0,0,0,0,0,0.002016,0.00077103803444,0.001285063350678,2.33161901614559E-06,3.88603157244897E-06
1665687200,769954,1.64454093808936E+018,1,0,0,0,0,0,0,0,0,0,0,0,0,0,0,0,0,0,0,0,0,0,0,0,0,0,0.362846046686,-9.62032318115,0.686465501785,0,0,0,0,0,0,0,0,0,0.002014208,0.000730847410003,0.001382684305419,2.20811805001193E-06,4.17752068417518E-06
1667794400,769955,1.64454093809138E+018,1,0,0,0,0,0,0,0,0,0,0,0,0,0,0,0,0,0,0,0,0,0,0,0,0,0,0.421685934067,-9.61051654816,0.696272134781,0,0,0,0,0,0,0,0,0,0.002016,0.000850118843079,0.001403684623719,2.57075938147111E-06,4.24474230212473E-06
1669764900,769956,1.64454093809339E+018,1,0,0,0,0,0,0,0,0,0,0,0,0,0,0,0,0,0,0,0,0,0,0,0,0,0,0.402072638273,-9.61051654816,0.696272134781,0,0,0,0,0,0,0,0,0,0.002013952,0.000809754993995,0.001402258658386,2.44621153449989E-06,4.23612244436211E-06
1671969900,769957,1.64454093809541E+018,1,0,0,0,0,0,0,0,0,0,0,0,0,0,0,0,0,0,0,0,0,0,0,0,0,0,0.402072638273,-9.66935634613,0.696272134781,0,0,0,0,0,0,0,0,0,0.002016,0.000810578438758,0.001403684623719,2.4511891988053E-06,4.24474230212473E-06
1674125800,769958,1.64454093809742E+018,1,0,0,0,0,0,0,0,0,0,0,0,0,0,0,0,0,0,0,0,0,0,0,0,0,0,0.402072638273,-9.64974308014,0.686465501785,0,0,0,0,0,0,0,0,0,0.002013696,0.0008096520634,0.001382332835082,2.44558968218985E-06,4.17539715101128E-06
1675934700,769959,1.64454093809944E+018,1,0,0,0,0,0,0,0,0,0,0,0,0,0,0,0,0,0,0,0,0,0,0,0,0,0,0.362846046686,-9.62032318115,0.686465501785,0,0,0,0,0,0,0,0,0,0.002016256,0.000731590518707,0.001384090186767,2.21261065932893E-06,4.18602021541518E-06
1678469000,769960,1.64454093810145E+018,1,0,0,0,0,0,0,0,0,0,0,0,0,0,0,0,0,0,0,0,0,0,0,0,0,0,0.402072638273,-9.58109664917,0.696272134781,0,0,0,0,0,0,0,0,0,0.002013952,0.000809754993995,0.001402258658386,2.44621153449989E-06,4.23612244436211E-06
1680493200,769961,1.64454093810347E+018,1,0,0,0,0,0,0,0,0,0,0,0,0,0,0,0,0,0,0,0,0,0,0,0,0,0,0.343232750893,-9.62032318115,0.637432217598,0,0,0,0,0,0,0,0,0,0.002016,0.0006919572258,0.001285063350678,2.09247865082007E-06,3.88603157244897E-06
1681977700,769962,1.64454093810548E+018,1,0,0,0,0,0,0,0,0,0,0,0,0,0,0,0,0,0,0,0,0,0,0,0,0,0,0.362846046686,-9.64974308014,0.696272134781,0,0,0,0,0,0,0,0,0,0.002014208,0.000730847410003,0.001402436904053,2.20811805001193E-06,4.23719944745808E-06
1684126400,769963,1.6445409381075E+018,1,0,0,0,0,0,0,0,0,0,0,0,0,0,0,0,0,0,0,0,0,0,0,0,0,0,0.38245934248,-9.61051654816,0.637432217598,0,0,0,0,0,0,0,0,0,0.002015488,0.000770842215256,0.001284736985382,2.33043485211383E-06,3.88405796579087E-06
1686074800,769964,1.64454093810951E+018,1,0,0,0,0,0,0,0,0,0,0,0,0,0,0,0,0,0,0,0,0,0,0,0,0,0,0.343232750893,-9.64974308014,0.627625584602,0,0,0,0,0,0,0,0,0,0.002013952,0.000691254285126,0.00126400780136,2.0882294250585E-06,3.81847655934797E-06
1687976900,769965,1.64454093811153E+018,1,0,0,0,0,0,0,0,0,0,0,0,0,0,0,0,0,0,0,0,0,0,0,0,0,0,0.362846046686,-9.61051654816,0.637432217598,0,0,0,0,0,0,0,0,0,0.002016512,0.000731683407295,0.001285389715973,2.21317255651652E-06,3.88800568040415E-06
1690093100,769966,1.64454093811354E+018,1,0,0,0,0,0,0,0,0,0,0,0,0,0,0,0,0,0,0,0,0,0,0,0,0,0,0.402072638273,-9.66935634613,0.686465501785,0,0,0,0,0,0,0,0,0,0.002013952,0.000809754993995,0.001382508570251,2.44621153449989E-06,4.17645885011092E-06
1692071400,769967,1.64454093811556E+018,1,0,0,0,0,0,0,0,0,0,0,0,0,0,0,0,0,0,0,0,0,0,0,0,0,0,0.402072638273,-9.61051654816,0.637432217598,0,0,0,0,0,0,0,0,0,0.002016256,0.000810681369354,0.001285226533325,2.45181176257162E-06,3.88701856376442E-06
1693916600,769968,1.64454093811757E+018,1,0,0,0,0,0,0,0,0,0,0,0,0,0,0,0,0,0,0,0,0,0,0,0,0,0,0.362846046686,-9.62032318115,0.686465501785,0,0,0,0,0,0,0,0,0,0.002013696,0.000730661632827,0.001382332835082,2.20699561106704E-06,4.17539715101128E-06
1696009400,769969,1.64454093811959E+018,1,0,0,0,0,0,0,0,0,0,0,0,0,0,0,0,0,0,0,0,0,0,0,0,0,0,0.402072638273,-9.61051654816,0.666852176189,0,0,0,0,0,0,0,0,0,0.002016,0.000810578438758,0.001344373987197,2.4511891988053E-06,4.0653869372838E-06
1697931800,769970,1.6445409381216E+018,1,0,0,0,0,0,0,0,0,0,0,0,0,0,0,0,0,0,0,0,0,0,0,0,0,0,0.362846046686,-9.64974308014,0.725692093372,0,0,0,0,0,0,0,0,0,0.002013952,0.000730754521415,0.001461509042831,2.20755679487027E-06,4.41511358974054E-06
1699954700,769971,1.64454093812362E+018,1,0,0,0,0,0,0,0,0,0,0,0,0,0,0,0,0,0,0,0,0,0,0,0,0,0,0.362846046686,-9.58109664917,0.696272134781,0,0,0,0,0,0,0,0,0,0.002015744,0.000731404741531,0.001403506378052,2.21148707896907E-06,4.24366434078005E-06
1701939300,769972,1.64454093812563E+018,1,0,0,0,0,0,0,0,0,0,0,0,0,0,0,0,0,0,0,0,0,0,0,0,0,0,0.38245934248,-9.57129001617,0.696272134781,0,0,0,0,0,0,0,0,0,0.002016,0.00077103803444,0.001403684623719,2.33161901614559E-06,4.24474230212473E-06
1704000500,769973,1.64454093812765E+018,1,0,0,0,0,0,0,0,0,0,0,0,0,0,0,0,0,0,0,0,0,0,0,0,0,0,0.402072638273,-9.62032318115,0.725692093372,0,0,0,0,0,0,0,0,0,0.002013952,0.000809754993995,0.001461509042831,2.44621153449989E-06,4.41511358974054E-06
1706236500,769974,1.64454093812966E+018,1,0,0,0,0,0,0,0,0,0,0,0,0,0,0,0,0,0,0,0,0,0,0,0,0,0,0.402072638273,-9.66935634613,0.686465501785,0,0,0,0,0,0,0,0,0,0.002016256,0.000810681369354,0.001384090186767,2.45181176257162E-06,4.18602021541518E-06
1708695000,769975,1.64454093813168E+018,1,0,0,0,0,0,0,0,0,0,0,0,0,0,0,0,0,0,0,0,0,0,0,0,0,0,0.402072638273,-9.58109664917,0.696272134781,0,0,0,0,0,0,0,0,0,0.002016256,0.000810681369354,0.001403862869385,2.45181176257162E-06,4.24582040036209E-06
1710780400,769976,1.64454093813369E+018,1,0,0,0,0,0,0,0,0,0,0,0,0,0,0,0,0,0,0,0,0,0,0,0,0,0,0.402072638273,-9.61051654816,0.735498726368,0,0,0,0,0,0,0,0,0,0.002013696,0.0008096520634,0.001481070843292,2.44558968218985E-06,4.47363964928161E-06
1712224900,769977,1.64454093813571E+018,1,0,0,0,0,0,0,0,0,0,0,0,0,0,0,0,0,0,0,0,0,0,0,0,0,0,0.402072638273,-9.61051654816,0.696272134781,0,0,0,0,0,0,0,0,0,0.002014208,0.000809857924591,0.001402436904053,2.44683346586062E-06,4.23719944745808E-06
