%time,field.header.seq,field.header.stamp,field.header.frame_id,field.orientation.x,field.orientation.y,field.orientation.z,field.orientation.w,field.orientation_covariance0,field.orientation_covariance1,field.orientation_covariance2,field.orientation_covariance3,field.orientation_covariance4,field.orientation_covariance5,field.orientation_covariance6,field.orientation_covariance7,field.orientation_covariance8,field.angular_velocity.x,field.angular_velocity.y,field.angular_velocity.z,field.angular_velocity_covariance0,field.angular_velocity_covariance1,field.angular_velocity_covariance2,field.angular_velocity_covariance3,field.angular_velocity_covariance4,field.angular_velocity_covariance5,field.angular_velocity_covariance6,field.angular_velocity_covariance7,field.angular_velocity_covariance8,field.linear_acceleration.x,field.linear_acceleration.y,field.linear_acceleration.z,field.linear_acceleration_covariance0,field.linear_acceleration_covariance1,field.linear_acceleration_covariance2,field.linear_acceleration_covariance3,field.linear_acceleration_covariance4,field.linear_acceleration_covariance5,field.linear_acceleration_covariance6,field.linear_acceleration_covariance7,field.linear_acceleration_covariance8
1233700,8466,1644543030456295490,1,0.0,0.0,0.0,0.0,0.0,0.0,0.0,0.0,0.0,0.0,0.0,0.0,0.0,0.0,0.0,0.0,0.0,0.0,0.0,0.0,0.0,0.0,0.0,0.0,0.0,0.176519691944,-9.58109664917,-0.470719188452,0.0,0.0,0.0,0.0,0.0,0.0,0.0,0.0,0.0
3311500,8467,1644543030458312035,1,0.0,0.0,0.0,0.0,0.0,0.0,0.0,0.0,0.0,0.0,0.0,0.0,0.0,0.0,0.0,0.0,0.0,0.0,0.0,0.0,0.0,0.0,0.0,0.0,0.0,0.225552946329,-9.57129001617,-0.470719188452,0.0,0.0,0.0,0.0,0.0,0.0,0.0,0.0,0.0
5168300,8468,1644543030460328579,1,0.0,0.0,0.0,0.0,0.0,0.0,0.0,0.0,0.0,0.0,0.0,0.0,0.0,0.0,0.0,0.0,0.0,0.0,0.0,0.0,0.0,0.0,0.0,0.0,0.0,0.245166242123,-9.58109664917,-0.470719188452,0.0,0.0,0.0,0.0,0.0,0.0,0.0,0.0,0.0
6979300,8469,1644543030462345123,1,0.0,0.0,0.0,0.0,0.0,0.0,0.0,0.0,0.0,0.0,0.0,0.0,0.0,0.0,0.0,0.0,0.0,0.0,0.0,0.0,0.0,0.0,0.0,0.0,0.0,0.176519691944,-9.58109664917,-0.470719188452,0.0,0.0,0.0,0.0,0.0,0.0,0.0,0.0,0.0
8987800,8470,1644543030464362144,1,0.0,0.0,0.0,0.0,0.0,0.0,0.0,0.0,0.0,0.0,0.0,0.0,0.0,0.0,0.0,0.0,0.0,0.0,0.0,0.0,0.0,0.0,0.0,0.0,0.0,0.196132987738,-9.57129001617,-0.509945809841,0.0,0.0,0.0,0.0,0.0,0.0,0.0,0.0,0.0
11012200,8471,1644543030466378689,1,0.0,0.0,0.0,0.0,0.0,0.0,0.0,0.0,0.0,0.0,0.0,0.0,0.0,0.0,0.0,0.0,0.0,0.0,0.0,0.0,0.0,0.0,0.0,0.0,0.0,0.264779537916,-9.57129001617,-0.402072638273,0.0,0.0,0.0,0.0,0.0,0.0,0.0,0.0,0.0
12892400,8472,1644543030468395233,1,0.0,0.0,0.0,0.0,0.0,0.0,0.0,0.0,0.0,0.0,0.0,0.0,0.0,0.0,0.0,0.0,0.0,0.0,0.0,0.0,0.0,0.0,0.0,0.0,0.0,0.176519691944,-9.64974308014,-0.470719188452,0.0,0.0,0.0,0.0,0.0,0.0,0.0,0.0,0.0
14881500,8473,1644543030470411777,1,0.0,0.0,0.0,0.0,0.0,0.0,0.0,0.0,0.0,0.0,0.0,0.0,0.0,0.0,0.0,0.0,0.0,0.0,0.0,0.0,0.0,0.0,0.0,0.0,0.0,0.166713044047,-9.64974308014,-0.451105892658,0.0,0.0,0.0,0.0,0.0,0.0,0.0,0.0,0.0
16917100,8474,1644543030472428799,1,0.0,0.0,0.0,0.0,0.0,0.0,0.0,0.0,0.0,0.0,0.0,0.0,0.0,0.0,0.0,0.0,0.0,0.0,0.0,0.0,0.0,0.0,0.0,0.0,0.0,0.225552946329,-9.58109664917,-0.470719188452,0.0,0.0,0.0,0.0,0.0,0.0,0.0,0.0,0.0
18965300,8475,1644543030474445343,1,0.0,0.0,0.0,0.0,0.0,0.0,0.0,0.0,0.0,0.0,0.0,0.0,0.0,0.0,0.0,0.0,0.0,0.0,0.0,0.0,0.0,0.0,0.0,0.0,0.0,0.245166242123,-9.61051654816,-0.490332484245,0.0,0.0,0.0,0.0,0.0,0.0,0.0,0.0,0.0
20918300,8476,1644543030476459980,1,0.0,0.0,0.0,0.0,0.0,0.0,0.0,0.0,0.0,0.0,0.0,0.0,0.0,0.0,0.0,0.0,0.0,0.0,0.0,0.0,0.0,0.0,0.0,0.0,0.0,0.245166242123,-9.61051654816,-0.470719188452,0.0,0.0,0.0,0.0,0.0,0.0,0.0,0.0,0.0
22966600,8477,1644543030478476524,1,0.0,0.0,0.0,0.0,0.0,0.0,0.0,0.0,0.0,0.0,0.0,0.0,0.0,0.0,0.0,0.0,0.0,0.0,0.0,0.0,0.0,0.0,0.0,0.0,0.0,0.196132987738,-9.58109664917,-0.402072638273,0.0,0.0,0.0,0.0,0.0,0.0,0.0,0.0,0.0
24948700,8478,1644543030480493069,1,0.0,0.0,0.0,0.0,0.0,0.0,0.0,0.0,0.0,0.0,0.0,0.0,0.0,0.0,0.0,0.0,0.0,0.0,0.0,0.0,0.0,0.0,0.0,0.0,0.0,0.225552946329,-9.61051654816,-0.451105892658,0.0,0.0,0.0,0.0,0.0,0.0,0.0,0.0,0.0
27455700,8479,1644543030482510090,1,0.0,0.0,0.0,0.0,0.0,0.0,0.0,0.0,0.0,0.0,0.0,0.0,0.0,0.0,0.0,0.0,0.0,0.0,0.0,0.0,0.0,0.0,0.0,0.0,0.0,0.264779537916,-9.62032318115,-0.470719188452,0.0,0.0,0.0,0.0,0.0,0.0,0.0,0.0,0.0
29260300,8480,1644543030484526634,1,0.0,0.0,0.0,0.0,0.0,0.0,0.0,0.0,0.0,0.0,0.0,0.0,0.0,0.0,0.0,0.0,0.0,0.0,0.0,0.0,0.0,0.0,0.0,0.0,0.0,0.245166242123,-9.61051654816,-0.421685934067,0.0,0.0,0.0,0.0,0.0,0.0,0.0,0.0,0.0
31230100,8481,1644543030486543179,1,0.0,0.0,0.0,0.0,0.0,0.0,0.0,0.0,0.0,0.0,0.0,0.0,0.0,0.0,0.0,0.0,0.0,0.0,0.0,0.0,0.0,0.0,0.0,0.0,0.0,0.196132987738,-9.56148338318,-0.470719188452,0.0,0.0,0.0,0.0,0.0,0.0,0.0,0.0,0.0
840799200,8883,1644543031297220230,1,0.0,0.0,0.0,0.0,0.0,0.0,0.0,0.0,0.0,0.0,0.0,0.0,0.0,0.0,0.0,0.0,0.0,0.0,0.0,0.0,0.0,0.0,0.0,0.0,0.0,0.245166242123,-9.5222568512,-0.402072638273,0.0,0.0,0.0,0.0,0.0,0.0,0.0,0.0,0.0
844702900,8885,1644543031301253319,1,0.0,0.0,0.0,0.0,0.0,0.0,0.0,0.0,0.0,0.0,0.0,0.0,0.0,0.0,0.0,0.0,0.0,0.0,0.0,0.0,0.0,0.0,0.0,0.0,0.0,0.245166242123,-9.66935634613,-0.402072638273,0.0,0.0,0.0,0.0,0.0,0.0,0.0,0.0,0.0
846769500,8886,1644543031303269863,1,0.0,0.0,0.0,0.0,0.0,0.0,0.0,0.0,0.0,0.0,0.0,0.0,0.0,0.0,0.0,0.0,0.0,0.0,0.0,0.0,0.0,0.0,0.0,0.0,0.0,0.402072638273,-9.67916297913,-0.274586200714,0.0,0.0,0.0,0.0,0.0,0.0,0.0,0.0,0.0
850856100,8888,1644543031307302952,1,0.0,0.0,0.0,0.0,0.0,0.0,0.0,0.0,0.0,0.0,0.0,0.0,0.0,0.0,0.0,0.0,0.0,0.0,0.0,0.0,0.0,0.0,0.0,0.0,0.0,0.196132987738,-9.58109664917,-0.549172401428,0.0,0.0,0.0,0.0,0.0,0.0,0.0,0.0,0.0
852764400,8889,1644543031309319496,1,0.0,0.0,0.0,0.0,0.0,0.0,0.0,0.0,0.0,0.0,0.0,0.0,0.0,0.0,0.0,0.0,0.0,0.0,0.0,0.0,0.0,0.0,0.0,0.0,0.0,0.00980664975941,-9.35554409027,-0.764918684959,0.0,0.0,0.0,0.0,0.0,0.0,0.0,0.0,0.0
854643600,8890,1644543031311333895,1,0.0,0.0,0.0,0.0,0.0,0.0,0.0,0.0,0.0,0.0,0.0,0.0,0.0,0.0,0.0,0.0,0.0,0.0,0.0,0.0,0.0,0.0,0.0,0.0,0.0,-0.313812792301,-8.99269771576,-1.20621788502,0.0,0.0,0.0,0.0,0.0,0.0,0.0,0.0,0.0
856644200,8891,1644543031313350677,1,0.0,0.0,0.0,0.0,0.0,0.0,0.0,0.0,0.0,0.0,0.0,0.0,0.0,0.0,0.0,0.0,0.0,0.0,0.0,0.0,0.0,0.0,0.0,0.0,0.0,-0.176519691944,-9.45361042023,-0.735498726368,0.0,0.0,0.0,0.0,0.0,0.0,0.0,0.0,0.0
858631200,8892,1644543031315369129,1,0.0,0.0,0.0,0.0,0.0,0.0,0.0,0.0,0.0,0.0,0.0,0.0,0.0,0.0,0.0,0.0,0.0,0.0,0.0,0.0,0.0,0.0,0.0,0.0,0.0,0.176519691944,-9.75761604309,-0.402072638273,0.0,0.0,0.0,0.0,0.0,0.0,0.0,0.0,0.0
860689300,8893,1644543031317385674,1,0.0,0.0,0.0,0.0,0.0,0.0,0.0,0.0,0.0,0.0,0.0,0.0,0.0,0.0,0.0,0.0,0.0,0.0,0.0,0.0,0.0,0.0,0.0,0.0,0.0,0.421685934067,-9.48303031921,-0.402072638273,0.0,0.0,0.0,0.0,0.0,0.0,0.0,0.0,0.0
862782600,8894,1644543031319402456,1,0.0,0.0,0.0,0.0,0.0,0.0,0.0,0.0,0.0,0.0,0.0,0.0,0.0,0.0,0.0,0.0,0.0,0.0,0.0,0.0,0.0,0.0,0.0,0.0,0.0,0.402072638273,-9.61051654816,-0.470719188452,0.0,0.0,0.0,0.0,0.0,0.0,0.0,0.0,0.0
864938500,8895,1644543031321419001,1,0.0,0.0,0.0,0.0,0.0,0.0,0.0,0.0,0.0,0.0,0.0,0.0,0.0,0.0,0.0,0.0,0.0,0.0,0.0,0.0,0.0,0.0,0.0,0.0,0.0,0.0784531980753,-9.70858287811,-0.402072638273,0.0,0.0,0.0,0.0,0.0,0.0,0.0,0.0,0.0
867123400,8896,1644543031323435545,1,0.0,0.0,0.0,0.0,0.0,0.0,0.0,0.0,0.0,0.0,0.0,0.0,0.0,0.0,0.0,0.0,0.0,0.0,0.0,0.0,0.0,0.0,0.0,0.0,0.0,0.0392265990376,-9.5222568512,-0.57859236002,0.0,0.0,0.0,0.0,0.0,0.0,0.0,0.0,0.0
869058900,8897,1644543031325453997,1,0.0,0.0,0.0,0.0,0.0,0.0,0.0,0.0,0.0,0.0,0.0,0.0,0.0,0.0,0.0,0.0,0.0,0.0,0.0,0.0,0.0,0.0,0.0,0.0,0.0,0.274586200714,-9.56148338318,-0.549172401428,0.0,0.0,0.0,0.0,0.0,0.0,0.0,0.0,0.0
871028200,8898,1644543031327468395,1,0.0,0.0,0.0,0.0,0.0,0.0,0.0,0.0,0.0,0.0,0.0,0.0,0.0,0.0,0.0,0.0,0.0,0.0,0.0,0.0,0.0,0.0,0.0,0.0,0.0,0.313812792301,-9.66935634613,-0.362846046686,0.0,0.0,0.0,0.0,0.0,0.0,0.0,0.0,0.0
872950700,8899,1644543031329487085,1,0.0,0.0,0.0,0.0,0.0,0.0,0.0,0.0,0.0,0.0,0.0,0.0,0.0,0.0,0.0,0.0,0.0,0.0,0.0,0.0,0.0,0.0,0.0,0.0,0.0,0.137293100357,-9.66935634613,-0.402072638273,0.0,0.0,0.0,0.0,0.0,0.0,0.0,0.0,0.0
874972900,8900,1644543031331503630,1,0.0,0.0,0.0,0.0,0.0,0.0,0.0,0.0,0.0,0.0,0.0,0.0,0.0,0.0,0.0,0.0,0.0,0.0,0.0,0.0,0.0,0.0,0.0,0.0,0.0,0.166713044047,-9.5222568512,-0.558979034424,0.0,0.0,0.0,0.0,0.0,0.0,0.0,0.0,0.0
877075500,8901,1644543031333520174,1,0.0,0.0,0.0,0.0,0.0,0.0,0.0,0.0,0.0,0.0,0.0,0.0,0.0,0.0,0.0,0.0,0.0,0.0,0.0,0.0,0.0,0.0,0.0,0.0,0.0,0.294199496508,-9.58109664917,-0.490332484245,0.0,0.0,0.0,0.0,0.0,0.0,0.0,0.0,0.0
878942800,8902,1644543031335536957,1,0.0,0.0,0.0,0.0,0.0,0.0,0.0,0.0,0.0,0.0,0.0,0.0,0.0,0.0,0.0,0.0,0.0,0.0,0.0,0.0,0.0,0.0,0.0,0.0,0.0,0.274586200714,-9.66935634613,-0.421685934067,0.0,0.0,0.0,0.0,0.0,0.0,0.0,0.0,0.0
881010000,8903,1644543031337553501,1,0.0,0.0,0.0,0.0,0.0,0.0,0.0,0.0,0.0,0.0,0.0,0.0,0.0,0.0,0.0,0.0,0.0,0.0,0.0,0.0,0.0,0.0,0.0,0.0,0.0,0.166713044047,-9.58109664917,-0.490332484245,0.0,0.0,0.0,0.0,0.0,0.0,0.0,0.0,0.0
882957100,8904,1644543031339569807,1,0.0,0.0,0.0,0.0,0.0,0.0,0.0,0.0,0.0,0.0,0.0,0.0,0.0,0.0,0.0,0.0,0.0,0.0,0.0,0.0,0.0,0.0,0.0,0.0,0.0,0.176519691944,-9.58109664917,-0.490332484245,0.0,0.0,0.0,0.0,0.0,0.0,0.0,0.0,0.0
884902800,8905,1644543031341586351,1,0.0,0.0,0.0,0.0,0.0,0.0,0.0,0.0,0.0,0.0,0.0,0.0,0.0,0.0,0.0,0.0,0.0,0.0,0.0,0.0,0.0,0.0,0.0,0.0,0.0,0.245166242123,-9.61051654816,-0.57859236002,0.0,0.0,0.0,0.0,0.0,0.0,0.0,0.0,0.0
886896600,8906,1644543031343603134,1,0.0,0.0,0.0,0.0,0.0,0.0,0.0,0.0,0.0,0.0,0.0,0.0,0.0,0.0,0.0,0.0,0.0,0.0,0.0,0.0,0.0,0.0,0.0,0.0,0.0,0.196132987738,-9.64974308014,-0.470719188452,0.0,0.0,0.0,0.0,0.0,0.0,0.0,0.0,0.0
888905400,8907,1644543031345619678,1,0.0,0.0,0.0,0.0,0.0,0.0,0.0,0.0,0.0,0.0,0.0,0.0,0.0,0.0,0.0,0.0,0.0,0.0,0.0,0.0,0.0,0.0,0.0,0.0,0.0,0.245166242123,-9.64974308014,-0.362846046686,0.0,0.0,0.0,0.0,0.0,0.0,0.0,0.0,0.0
891062100,8908,1644543031347636223,1,0.0,0.0,0.0,0.0,0.0,0.0,0.0,0.0,0.0,0.0,0.0,0.0,0.0,0.0,0.0,0.0,0.0,0.0,0.0,0.0,0.0,0.0,0.0,0.0,0.0,0.196132987738,-9.56148338318,-0.598205626011,0.0,0.0,0.0,0.0,0.0,0.0,0.0,0.0,0.0
893009000,8909,1644543031349652529,1,0.0,0.0,0.0,0.0,0.0,0.0,0.0,0.0,0.0,0.0,0.0,0.0,0.0,0.0,0.0,0.0,0.0,0.0,0.0,0.0,0.0,0.0,0.0,0.0,0.0,0.176519691944,-9.61051654816,-0.509945809841,0.0,0.0,0.0,0.0,0.0,0.0,0.0,0.0,0.0
895069300,8910,1644543031351671219,1,0.0,0.0,0.0,0.0,0.0,0.0,0.0,0.0,0.0,0.0,0.0,0.0,0.0,0.0,0.0,0.0,0.0,0.0,0.0,0.0,0.0,0.0,0.0,0.0,0.0,0.245166242123,-9.64974308014,-0.451105892658,0.0,0.0,0.0,0.0,0.0,0.0,0.0,0.0,0.0
897355100,8911,1644543031353687763,1,0.0,0.0,0.0,0.0,0.0,0.0,0.0,0.0,0.0,0.0,0.0,0.0,0.0,0.0,0.0,0.0,0.0,0.0,0.0,0.0,0.0,0.0,0.0,0.0,0.0,0.294199496508,-9.61051654816,-0.421685934067,0.0,0.0,0.0,0.0,0.0,0.0,0.0,0.0,0.0
899023900,8912,1644543031355704308,1,0.0,0.0,0.0,0.0,0.0,0.0,0.0,0.0,0.0,0.0,0.0,0.0,0.0,0.0,0.0,0.0,0.0,0.0,0.0,0.0,0.0,0.0,0.0,0.0,0.0,0.264779537916,-9.58109664917,-0.451105892658,0.0,0.0,0.0,0.0,0.0,0.0,0.0,0.0,0.0
900948900,8913,1644543031357720852,1,0.0,0.0,0.0,0.0,0.0,0.0,0.0,0.0,0.0,0.0,0.0,0.0,0.0,0.0,0.0,0.0,0.0,0.0,0.0,0.0,0.0,0.0,0.0,0.0,0.0,0.225552946329,-9.57129001617,-0.451105892658,0.0,0.0,0.0,0.0,0.0,0.0,0.0,0.0,0.0
903022000,8914,1644543031359737635,1,0.0,0.0,0.0,0.0,0.0,0.0,0.0,0.0,0.0,0.0,0.0,0.0,0.0,0.0,0.0,0.0,0.0,0.0,0.0,0.0,0.0,0.0,0.0,0.0,0.0,0.245166242123,-9.62032318115,-0.490332484245,0.0,0.0,0.0,0.0,0.0,0.0,0.0,0.0,0.0
905352500,8915,1644543031361754179,1,0.0,0.0,0.0,0.0,0.0,0.0,0.0,0.0,0.0,0.0,0.0,0.0,0.0,0.0,0.0,0.0,0.0,0.0,0.0,0.0,0.0,0.0,0.0,0.0,0.0,0.294199496508,-9.58109664917,-0.451105892658,0.0,0.0,0.0,0.0,0.0,0.0,0.0,0.0,0.0
907496200,8916,1644543031363770485,1,0.0,0.0,0.0,0.0,0.0,0.0,0.0,0.0,0.0,0.0,0.0,0.0,0.0,0.0,0.0,0.0,0.0,0.0,0.0,0.0,0.0,0.0,0.0,0.0,0.0,0.245166242123,-9.61051654816,-0.490332484245,0.0,0.0,0.0,0.0,0.0,0.0,0.0,0.0,0.0
909487000,8917,1644543031365787029,1,0.0,0.0,0.0,0.0,0.0,0.0,0.0,0.0,0.0,0.0,0.0,0.0,0.0,0.0,0.0,0.0,0.0,0.0,0.0,0.0,0.0,0.0,0.0,0.0,0.0,0.166713044047,-9.53206348419,-0.57859236002,0.0,0.0,0.0,0.0,0.0,0.0,0.0,0.0,0.0
911717000,8918,1644543031367803812,1,0.0,0.0,0.0,0.0,0.0,0.0,0.0,0.0,0.0,0.0,0.0,0.0,0.0,0.0,0.0,0.0,0.0,0.0,0.0,0.0,0.0,0.0,0.0,0.0,0.0,0.196132987738,-9.58109664917,-0.558979034424,0.0,0.0,0.0,0.0,0.0,0.0,0.0,0.0,0.0
913244500,8919,1644543031369820356,1,0.0,0.0,0.0,0.0,0.0,0.0,0.0,0.0,0.0,0.0,0.0,0.0,0.0,0.0,0.0,0.0,0.0,0.0,0.0,0.0,0.0,0.0,0.0,0.0,0.0,0.264779537916,-9.56148338318,-0.470719188452,0.0,0.0,0.0,0.0,0.0,0.0,0.0,0.0,0.0
915456500,8920,1644543031371836901,1,0.0,0.0,0.0,0.0,0.0,0.0,0.0,0.0,0.0,0.0,0.0,0.0,0.0,0.0,0.0,0.0,0.0,0.0,0.0,0.0,0.0,0.0,0.0,0.0,0.0,0.245166242123,-9.58109664917,-0.490332484245,0.0,0.0,0.0,0.0,0.0,0.0,0.0,0.0,0.0
917461200,8921,1644543031373853207,1,0.0,0.0,0.0,0.0,0.0,0.0,0.0,0.0,0.0,0.0,0.0,0.0,0.0,0.0,0.0,0.0,0.0,0.0,0.0,0.0,0.0,0.0,0.0,0.0,0.0,0.245166242123,-9.62032318115,-0.549172401428,0.0,0.0,0.0,0.0,0.0,0.0,0.0,0.0,0.0
919563000,8922,1644543031375869989,1,0.0,0.0,0.0,0.0,0.0,0.0,0.0,0.0,0.0,0.0,0.0,0.0,0.0,0.0,0.0,0.0,0.0,0.0,0.0,0.0,0.0,0.0,0.0,0.0,0.0,0.264779537916,-9.64974308014,-0.549172401428,0.0,0.0,0.0,0.0,0.0,0.0,0.0,0.0,0.0
921441000,8923,1644543031377886534,1,0.0,0.0,0.0,0.0,0.0,0.0,0.0,0.0,0.0,0.0,0.0,0.0,0.0,0.0,0.0,0.0,0.0,0.0,0.0,0.0,0.0,0.0,0.0,0.0,0.0,0.274586200714,-9.64974308014,-0.451105892658,0.0,0.0,0.0,0.0,0.0,0.0,0.0,0.0,0.0
923443200,8924,1644543031379903078,1,0.0,0.0,0.0,0.0,0.0,0.0,0.0,0.0,0.0,0.0,0.0,0.0,0.0,0.0,0.0,0.0,0.0,0.0,0.0,0.0,0.0,0.0,0.0,0.0,0.0,0.264779537916,-9.61051654816,-0.470719188452,0.0,0.0,0.0,0.0,0.0,0.0,0.0,0.0,0.0
925631900,8925,1644543031381919622,1,0.0,0.0,0.0,0.0,0.0,0.0,0.0,0.0,0.0,0.0,0.0,0.0,0.0,0.0,0.0,0.0,0.0,0.0,0.0,0.0,0.0,0.0,0.0,0.0,0.0,0.245166242123,-9.61051654816,-0.549172401428,0.0,0.0,0.0,0.0,0.0,0.0,0.0,0.0,0.0
927511300,8926,1644543031383936167,1,0.0,0.0,0.0,0.0,0.0,0.0,0.0,0.0,0.0,0.0,0.0,0.0,0.0,0.0,0.0,0.0,0.0,0.0,0.0,0.0,0.0,0.0,0.0,0.0,0.0,0.166713044047,-9.58109664917,-0.509945809841,0.0,0.0,0.0,0.0,0.0,0.0,0.0,0.0,0.0
929863800,8927,1644543031385952711,1,0.0,0.0,0.0,0.0,0.0,0.0,0.0,0.0,0.0,0.0,0.0,0.0,0.0,0.0,0.0,0.0,0.0,0.0,0.0,0.0,0.0,0.0,0.0,0.0,0.0,0.264779537916,-9.61051654816,-0.509945809841,0.0,0.0,0.0,0.0,0.0,0.0,0.0,0.0,0.0
931703600,8928,1644543031387969255,1,0.0,0.0,0.0,0.0,0.0,0.0,0.0,0.0,0.0,0.0,0.0,0.0,0.0,0.0,0.0,0.0,0.0,0.0,0.0,0.0,0.0,0.0,0.0,0.0,0.0,0.245166242123,-9.61051654816,-0.470719188452,0.0,0.0,0.0,0.0,0.0,0.0,0.0,0.0,0.0
933425100,8929,1644543031389985800,1,0.0,0.0,0.0,0.0,0.0,0.0,0.0,0.0,0.0,0.0,0.0,0.0,0.0,0.0,0.0,0.0,0.0,0.0,0.0,0.0,0.0,0.0,0.0,0.0,0.0,0.225552946329,-9.61051654816,-0.470719188452,0.0,0.0,0.0,0.0,0.0,0.0,0.0,0.0,0.0
935742500,8930,1644543031392004490,1,0.0,0.0,0.0,0.0,0.0,0.0,0.0,0.0,0.0,0.0,0.0,0.0,0.0,0.0,0.0,0.0,0.0,0.0,0.0,0.0,0.0,0.0,0.0,0.0,0.0,0.274586200714,-9.61051654816,-0.490332484245,0.0,0.0,0.0,0.0,0.0,0.0,0.0,0.0,0.0
937496700,8931,1644543031394019127,1,0.0,0.0,0.0,0.0,0.0,0.0,0.0,0.0,0.0,0.0,0.0,0.0,0.0,0.0,0.0,0.0,0.0,0.0,0.0,0.0,0.0,0.0,0.0,0.0,0.0,0.274586200714,-9.58109664917,-0.509945809841,0.0,0.0,0.0,0.0,0.0,0.0,0.0,0.0,0.0
939480500,8932,1644543031396035433,1,0.0,0.0,0.0,0.0,0.0,0.0,0.0,0.0,0.0,0.0,0.0,0.0,0.0,0.0,0.0,0.0,0.0,0.0,0.0,0.0,0.0,0.0,0.0,0.0,0.0,0.274586200714,-9.58109664917,-0.421685934067,0.0,0.0,0.0,0.0,0.0,0.0,0.0,0.0,0.0
941479900,8933,1644543031398051977,1,0.0,0.0,0.0,0.0,0.0,0.0,0.0,0.0,0.0,0.0,0.0,0.0,0.0,0.0,0.0,0.0,0.0,0.0,0.0,0.0,0.0,0.0,0.0,0.0,0.0,0.245166242123,-9.64974308014,-0.490332484245,0.0,0.0,0.0,0.0,0.0,0.0,0.0,0.0,0.0
943456000,8934,1644543031400068521,1,0.0,0.0,0.0,0.0,0.0,0.0,0.0,0.0,0.0,0.0,0.0,0.0,0.0,0.0,0.0,0.0,0.0,0.0,0.0,0.0,0.0,0.0,0.0,0.0,0.0,0.264779537916,-9.66935634613,-0.402072638273,0.0,0.0,0.0,0.0,0.0,0.0,0.0,0.0,0.0
945416100,8935,1644543031402085304,1,0.0,0.0,0.0,0.0,0.0,0.0,0.0,0.0,0.0,0.0,0.0,0.0,0.0,0.0,0.0,0.0,0.0,0.0,0.0,0.0,0.0,0.0,0.0,0.0,0.0,0.225552946329,-9.66935634613,-0.38245934248,0.0,0.0,0.0,0.0,0.0,0.0,0.0,0.0,0.0
947412900,8936,1644543031404101849,1,0.0,0.0,0.0,0.0,0.0,0.0,0.0,0.0,0.0,0.0,0.0,0.0,0.0,0.0,0.0,0.0,0.0,0.0,0.0,0.0,0.0,0.0,0.0,0.0,0.0,0.264779537916,-9.64974308014,-0.421685934067,0.0,0.0,0.0,0.0,0.0,0.0,0.0,0.0,0.0
949473800,8937,1644543031406118393,1,0.0,0.0,0.0,0.0,0.0,0.0,0.0,0.0,0.0,0.0,0.0,0.0,0.0,0.0,0.0,0.0,0.0,0.0,0.0,0.0,0.0,0.0,0.0,0.0,0.0,0.225552946329,-9.57129001617,-0.470719188452,0.0,0.0,0.0,0.0,0.0,0.0,0.0,0.0,0.0
951540300,8938,1644543031408134699,1,0.0,0.0,0.0,0.0,0.0,0.0,0.0,0.0,0.0,0.0,0.0,0.0,0.0,0.0,0.0,0.0,0.0,0.0,0.0,0.0,0.0,0.0,0.0,0.0,0.0,0.225552946329,-9.58109664917,-0.470719188452,0.0,0.0,0.0,0.0,0.0,0.0,0.0,0.0,0.0
953703200,8939,1644543031410151482,1,0.0,0.0,0.0,0.0,0.0,0.0,0.0,0.0,0.0,0.0,0.0,0.0,0.0,0.0,0.0,0.0,0.0,0.0,0.0,0.0,0.0,0.0,0.0,0.0,0.0,0.225552946329,-9.61051654816,-0.451105892658,0.0,0.0,0.0,0.0,0.0,0.0,0.0,0.0,0.0
955794600,8940,1644543031412168026,1,0.0,0.0,0.0,0.0,0.0,0.0,0.0,0.0,0.0,0.0,0.0,0.0,0.0,0.0,0.0,0.0,0.0,0.0,0.0,0.0,0.0,0.0,0.0,0.0,0.0,0.225552946329,-9.58109664917,-0.529559075832,0.0,0.0,0.0,0.0,0.0,0.0,0.0,0.0,0.0
957517900,8941,1644543031414184570,1,0.0,0.0,0.0,0.0,0.0,0.0,0.0,0.0,0.0,0.0,0.0,0.0,0.0,0.0,0.0,0.0,0.0,0.0,0.0,0.0,0.0,0.0,0.0,0.0,0.0,0.225552946329,-9.62032318115,-0.509945809841,0.0,0.0,0.0,0.0,0.0,0.0,0.0,0.0,0.0
959538100,8942,1644543031416201115,1,0.0,0.0,0.0,0.0,0.0,0.0,0.0,0.0,0.0,0.0,0.0,0.0,0.0,0.0,0.0,0.0,0.0,0.0,0.0,0.0,0.0,0.0,0.0,0.0,0.0,0.245166242123,-9.62032318115,-0.549172401428,0.0,0.0,0.0,0.0,0.0,0.0,0.0,0.0,0.0
961567800,8943,1644543031418217421,1,0.0,0.0,0.0,0.0,0.0,0.0,0.0,0.0,0.0,0.0,0.0,0.0,0.0,0.0,0.0,0.0,0.0,0.0,0.0,0.0,0.0,0.0,0.0,0.0,0.0,0.225552946329,-9.57129001617,-0.686465501785,0.0,0.0,0.0,0.0,0.0,0.0,0.0,0.0,0.0
963554000,8944,1644543031420234203,1,0.0,0.0,0.0,0.0,0.0,0.0,0.0,0.0,0.0,0.0,0.0,0.0,0.0,0.0,0.0,0.0,0.0,0.0,0.0,0.0,0.0,0.0,0.0,0.0,0.0,0.245166242123,-9.58109664917,-0.764918684959,0.0,0.0,0.0,0.0,0.0,0.0,0.0,0.0,0.0
965402400,8945,1644543031422250748,1,0.0,0.0,0.0,0.0,0.0,0.0,0.0,0.0,0.0,0.0,0.0,0.0,0.0,0.0,0.0,0.0,0.0,0.0,0.0,0.0,0.0,0.0,0.0,0.0,0.0,0.196132987738,-9.56148338318,-0.686465501785,0.0,0.0,0.0,0.0,0.0,0.0,0.0,0.0,0.0
967513200,8946,1644543031424267292,1,0.0,0.0,0.0,0.0,0.0,0.0,0.0,0.0,0.0,0.0,0.0,0.0,0.0,0.0,0.0,0.0,0.0,0.0,0.0,0.0,0.0,0.0,0.0,0.0,0.0,0.176519691944,-9.56148338318,-0.57859236002,0.0,0.0,0.0,0.0,0.0,0.0,0.0,0.0,0.0
969600400,8947,1644543031426283836,1,0.0,0.0,0.0,0.0,0.0,0.0,0.0,0.0,0.0,0.0,0.0,0.0,0.0,0.0,0.0,0.0,0.0,0.0,0.0,0.0,0.0,0.0,0.0,0.0,0.0,0.137293100357,-9.56148338318,-0.470719188452,0.0,0.0,0.0,0.0,0.0,0.0,0.0,0.0,0.0
971510100,8948,1644543031428300381,1,0.0,0.0,0.0,0.0,0.0,0.0,0.0,0.0,0.0,0.0,0.0,0.0,0.0,0.0,0.0,0.0,0.0,0.0,0.0,0.0,0.0,0.0,0.0,0.0,0.0,0.0784531980753,-9.57129001617,-0.225552946329,0.0,0.0,0.0,0.0,0.0,0.0,0.0,0.0,0.0
973468200,8949,1644543031430316925,1,0.0,0.0,0.0,0.0,0.0,0.0,0.0,0.0,0.0,0.0,0.0,0.0,0.0,0.0,0.0,0.0,0.0,0.0,0.0,0.0,0.0,0.0,0.0,0.0,0.0,0.166713044047,-9.56148338318,-0.225552946329,0.0,0.0,0.0,0.0,0.0,0.0,0.0,0.0,0.0
975458500,8950,1644543031432333469,1,0.0,0.0,0.0,0.0,0.0,0.0,0.0,0.0,0.0,0.0,0.0,0.0,0.0,0.0,0.0,0.0,0.0,0.0,0.0,0.0,0.0,0.0,0.0,0.0,0.0,0.176519691944,-9.57129001617,-0.38245934248,0.0,0.0,0.0,0.0,0.0,0.0,0.0,0.0,0.0
977694300,8951,1644543031434350014,1,0.0,0.0,0.0,0.0,0.0,0.0,0.0,0.0,0.0,0.0,0.0,0.0,0.0,0.0,0.0,0.0,0.0,0.0,0.0,0.0,0.0,0.0,0.0,0.0,0.0,0.176519691944,-9.58109664917,-0.57859236002,0.0,0.0,0.0,0.0,0.0,0.0,0.0,0.0,0.0
979677100,8952,1644543031436366796,1,0.0,0.0,0.0,0.0,0.0,0.0,0.0,0.0,0.0,0.0,0.0,0.0,0.0,0.0,0.0,0.0,0.0,0.0,0.0,0.0,0.0,0.0,0.0,0.0,0.0,0.166713044047,-9.57129001617,-0.696272134781,0.0,0.0,0.0,0.0,0.0,0.0,0.0,0.0,0.0
981668300,8953,1644543031438383341,1,0.0,0.0,0.0,0.0,0.0,0.0,0.0,0.0,0.0,0.0,0.0,0.0,0.0,0.0,0.0,0.0,0.0,0.0,0.0,0.0,0.0,0.0,0.0,0.0,0.0,0.12748645246,-9.56148338318,-0.666852176189,0.0,0.0,0.0,0.0,0.0,0.0,0.0,0.0,0.0
983732600,8954,1644543031440399647,1,0.0,0.0,0.0,0.0,0.0,0.0,0.0,0.0,0.0,0.0,0.0,0.0,0.0,0.0,0.0,0.0,0.0,0.0,0.0,0.0,0.0,0.0,0.0,0.0,0.0,0.137293100357,-9.56148338318,-0.470719188452,0.0,0.0,0.0,0.0,0.0,0.0,0.0,0.0,0.0
985696000,8955,1644543031442416191,1,0.0,0.0,0.0,0.0,0.0,0.0,0.0,0.0,0.0,0.0,0.0,0.0,0.0,0.0,0.0,0.0,0.0,0.0,0.0,0.0,0.0,0.0,0.0,0.0,0.0,0.274586200714,-9.66935634613,-0.402072638273,0.0,0.0,0.0,0.0,0.0,0.0,0.0,0.0,0.0
987763100,8956,1644543031444432974,1,0.0,0.0,0.0,0.0,0.0,0.0,0.0,0.0,0.0,0.0,0.0,0.0,0.0,0.0,0.0,0.0,0.0,0.0,0.0,0.0,0.0,0.0,0.0,0.0,0.0,0.294199496508,-9.62032318115,-0.362846046686,0.0,0.0,0.0,0.0,0.0,0.0,0.0,0.0,0.0
989768200,8957,1644543031446449518,1,0.0,0.0,0.0,0.0,0.0,0.0,0.0,0.0,0.0,0.0,0.0,0.0,0.0,0.0,0.0,0.0,0.0,0.0,0.0,0.0,0.0,0.0,0.0,0.0,0.0,0.225552946329,-9.61051654816,-0.362846046686,0.0,0.0,0.0,0.0,0.0,0.0,0.0,0.0,0.0
991833100,8958,1644543031448466063,1,0.0,0.0,0.0,0.0,0.0,0.0,0.0,0.0,0.0,0.0,0.0,0.0,0.0,0.0,0.0,0.0,0.0,0.0,0.0,0.0,0.0,0.0,0.0,0.0,0.0,0.196132987738,-9.61051654816,-0.313812792301,0.0,0.0,0.0,0.0,0.0,0.0,0.0,0.0,0.0
993942300,8959,1644543031450482368,1,0.0,0.0,0.0,0.0,0.0,0.0,0.0,0.0,0.0,0.0,0.0,0.0,0.0,0.0,0.0,0.0,0.0,0.0,0.0,0.0,0.0,0.0,0.0,0.0,0.0,0.274586200714,-9.57129001617,-0.313812792301,0.0,0.0,0.0,0.0,0.0,0.0,0.0,0.0,0.0
995836900,8960,1644543031452498913,1,0.0,0.0,0.0,0.0,0.0,0.0,0.0,0.0,0.0,0.0,0.0,0.0,0.0,0.0,0.0,0.0,0.0,0.0,0.0,0.0,0.0,0.0,0.0,0.0,0.0,0.196132987738,-9.58109664917,-0.57859236002,0.0,0.0,0.0,0.0,0.0,0.0,0.0,0.0,0.0
998193600,8961,1644543031454515696,1,0.0,0.0,0.0,0.0,0.0,0.0,0.0,0.0,0.0,0.0,0.0,0.0,0.0,0.0,0.0,0.0,0.0,0.0,0.0,0.0,0.0,0.0,0.0,0.0,0.0,0.176519691944,-9.56148338318,-0.549172401428,0.0,0.0,0.0,0.0,0.0,0.0,0.0,0.0,0.0
1000350700,8962,1644543031456534147,1,0.0,0.0,0.0,0.0,0.0,0.0,0.0,0.0,0.0,0.0,0.0,0.0,0.0,0.0,0.0,0.0,0.0,0.0,0.0,0.0,0.0,0.0,0.0,0.0,0.0,0.166713044047,-9.57129001617,-0.362846046686,0.0,0.0,0.0,0.0,0.0,0.0,0.0,0.0,0.0
1001908700,8963,1644543031458550692,1,0.0,0.0,0.0,0.0,0.0,0.0,0.0,0.0,0.0,0.0,0.0,0.0,0.0,0.0,0.0,0.0,0.0,0.0,0.0,0.0,0.0,0.0,0.0,0.0,0.0,0.137293100357,-9.58109664917,-0.264779537916,0.0,0.0,0.0,0.0,0.0,0.0,0.0,0.0,0.0
1004069500,8964,1644543031460567474,1,0.0,0.0,0.0,0.0,0.0,0.0,0.0,0.0,0.0,0.0,0.0,0.0,0.0,0.0,0.0,0.0,0.0,0.0,0.0,0.0,0.0,0.0,0.0,0.0,0.0,0.137293100357,-9.56148338318,-0.274586200714,0.0,0.0,0.0,0.0,0.0,0.0,0.0,0.0,0.0
1005962300,8965,1644543031462583780,1,0.0,0.0,0.0,0.0,0.0,0.0,0.0,0.0,0.0,0.0,0.0,0.0,0.0,0.0,0.0,0.0,0.0,0.0,0.0,0.0,0.0,0.0,0.0,0.0,0.0,0.225552946329,-9.61051654816,-0.402072638273,0.0,0.0,0.0,0.0,0.0,0.0,0.0,0.0,0.0
1007725500,8966,1644543031464600325,1,0.0,0.0,0.0,0.0,0.0,0.0,0.0,0.0,0.0,0.0,0.0,0.0,0.0,0.0,0.0,0.0,0.0,0.0,0.0,0.0,0.0,0.0,0.0,0.0,0.0,0.176519691944,-9.56148338318,-0.38245934248,0.0,0.0,0.0,0.0,0.0,0.0,0.0,0.0,0.0
1009805200,8967,1644543031466616869,1,0.0,0.0,0.0,0.0,0.0,0.0,0.0,0.0,0.0,0.0,0.0,0.0,0.0,0.0,0.0,0.0,0.0,0.0,0.0,0.0,0.0,0.0,0.0,0.0,0.0,0.176519691944,-9.56148338318,-0.362846046686,0.0,0.0,0.0,0.0,0.0,0.0,0.0,0.0,0.0
1011972500,8968,1644543031468633652,1,0.0,0.0,0.0,0.0,0.0,0.0,0.0,0.0,0.0,0.0,0.0,0.0,0.0,0.0,0.0,0.0,0.0,0.0,0.0,0.0,0.0,0.0,0.0,0.0,0.0,0.225552946329,-9.58109664917,-0.402072638273,0.0,0.0,0.0,0.0,0.0,0.0,0.0,0.0,0.0
1014011100,8969,1644543031470650196,1,0.0,0.0,0.0,0.0,0.0,0.0,0.0,0.0,0.0,0.0,0.0,0.0,0.0,0.0,0.0,0.0,0.0,0.0,0.0,0.0,0.0,0.0,0.0,0.0,0.0,0.137293100357,-9.62032318115,-0.451105892658,0.0,0.0,0.0,0.0,0.0,0.0,0.0,0.0,0.0
1015969100,8970,1644543031472666740,1,0.0,0.0,0.0,0.0,0.0,0.0,0.0,0.0,0.0,0.0,0.0,0.0,0.0,0.0,0.0,0.0,0.0,0.0,0.0,0.0,0.0,0.0,0.0,0.0,0.0,0.176519691944,-9.64974308014,-0.451105892658,0.0,0.0,0.0,0.0,0.0,0.0,0.0,0.0,0.0
1018457700,8971,1644543031474683046,1,0.0,0.0,0.0,0.0,0.0,0.0,0.0,0.0,0.0,0.0,0.0,0.0,0.0,0.0,0.0,0.0,0.0,0.0,0.0,0.0,0.0,0.0,0.0,0.0,0.0,0.166713044047,-9.62032318115,-0.421685934067,0.0,0.0,0.0,0.0,0.0,0.0,0.0,0.0,0.0
1020382800,8972,1644543031476699591,1,0.0,0.0,0.0,0.0,0.0,0.0,0.0,0.0,0.0,0.0,0.0,0.0,0.0,0.0,0.0,0.0,0.0,0.0,0.0,0.0,0.0,0.0,0.0,0.0,0.0,0.176519691944,-9.64974308014,-0.402072638273,0.0,0.0,0.0,0.0,0.0,0.0,0.0,0.0,0.0
1022450500,8973,1644543031478714466,1,0.0,0.0,0.0,0.0,0.0,0.0,0.0,0.0,0.0,0.0,0.0,0.0,0.0,0.0,0.0,0.0,0.0,0.0,0.0,0.0,0.0,0.0,0.0,0.0,0.0,0.176519691944,-9.62032318115,-0.451105892658,0.0,0.0,0.0,0.0,0.0,0.0,0.0,0.0,0.0
1024377900,8974,1644543031480732918,1,0.0,0.0,0.0,0.0,0.0,0.0,0.0,0.0,0.0,0.0,0.0,0.0,0.0,0.0,0.0,0.0,0.0,0.0,0.0,0.0,0.0,0.0,0.0,0.0,0.0,0.225552946329,-9.62032318115,-0.421685934067,0.0,0.0,0.0,0.0,0.0,0.0,0.0,0.0,0.0
1026387200,8975,1644543031482747316,1,0.0,0.0,0.0,0.0,0.0,0.0,0.0,0.0,0.0,0.0,0.0,0.0,0.0,0.0,0.0,0.0,0.0,0.0,0.0,0.0,0.0,0.0,0.0,0.0,0.0,0.166713044047,-9.62032318115,-0.470719188452,0.0,0.0,0.0,0.0,0.0,0.0,0.0,0.0,0.0
1028513500,8976,1644543031484763861,1,0.0,0.0,0.0,0.0,0.0,0.0,0.0,0.0,0.0,0.0,0.0,0.0,0.0,0.0,0.0,0.0,0.0,0.0,0.0,0.0,0.0,0.0,0.0,0.0,0.0,0.225552946329,-9.57129001617,-0.490332484245,0.0,0.0,0.0,0.0,0.0,0.0,0.0,0.0,0.0
1030501400,8977,1644543031486780405,1,0.0,0.0,0.0,0.0,0.0,0.0,0.0,0.0,0.0,0.0,0.0,0.0,0.0,0.0,0.0,0.0,0.0,0.0,0.0,0.0,0.0,0.0,0.0,0.0,0.0,0.196132987738,-9.61051654816,-0.470719188452,0.0,0.0,0.0,0.0,0.0,0.0,0.0,0.0,0.0
1032415400,8978,1644543031488797188,1,0.0,0.0,0.0,0.0,0.0,0.0,0.0,0.0,0.0,0.0,0.0,0.0,0.0,0.0,0.0,0.0,0.0,0.0,0.0,0.0,0.0,0.0,0.0,0.0,0.0,0.225552946329,-9.58109664917,-0.421685934067,0.0,0.0,0.0,0.0,0.0,0.0,0.0,0.0,0.0
1035101400,8979,1644543031490813732,1,0.0,0.0,0.0,0.0,0.0,0.0,0.0,0.0,0.0,0.0,0.0,0.0,0.0,0.0,0.0,0.0,0.0,0.0,0.0,0.0,0.0,0.0,0.0,0.0,0.0,0.176519691944,-9.58109664917,-0.451105892658,0.0,0.0,0.0,0.0,0.0,0.0,0.0,0.0,0.0
1036629600,8980,1644543031492830038,1,0.0,0.0,0.0,0.0,0.0,0.0,0.0,0.0,0.0,0.0,0.0,0.0,0.0,0.0,0.0,0.0,0.0,0.0,0.0,0.0,0.0,0.0,0.0,0.0,0.0,0.225552946329,-9.61051654816,-0.490332484245,0.0,0.0,0.0,0.0,0.0,0.0,0.0,0.0,0.0
1038468000,8981,1644543031494846582,1,0.0,0.0,0.0,0.0,0.0,0.0,0.0,0.0,0.0,0.0,0.0,0.0,0.0,0.0,0.0,0.0,0.0,0.0,0.0,0.0,0.0,0.0,0.0,0.0,0.0,0.225552946329,-9.58109664917,-0.470719188452,0.0,0.0,0.0,0.0,0.0,0.0,0.0,0.0,0.0
1040556900,8982,1644543031496863365,1,0.0,0.0,0.0,0.0,0.0,0.0,0.0,0.0,0.0,0.0,0.0,0.0,0.0,0.0,0.0,0.0,0.0,0.0,0.0,0.0,0.0,0.0,0.0,0.0,0.0,0.225552946329,-9.62032318115,-0.402072638273,0.0,0.0,0.0,0.0,0.0,0.0,0.0,0.0,0.0
1042302700,8983,1644543031498879910,1,0.0,0.0,0.0,0.0,0.0,0.0,0.0,0.0,0.0,0.0,0.0,0.0,0.0,0.0,0.0,0.0,0.0,0.0,0.0,0.0,0.0,0.0,0.0,0.0,0.0,0.264779537916,-9.58109664917,-0.451105892658,0.0,0.0,0.0,0.0,0.0,0.0,0.0,0.0,0.0
1044513000,8984,1644543031500896454,1,0.0,0.0,0.0,0.0,0.0,0.0,0.0,0.0,0.0,0.0,0.0,0.0,0.0,0.0,0.0,0.0,0.0,0.0,0.0,0.0,0.0,0.0,0.0,0.0,0.0,0.245166242123,-9.58109664917,-0.421685934067,0.0,0.0,0.0,0.0,0.0,0.0,0.0,0.0,0.0
1046294400,8985,1644543031502912760,1,0.0,0.0,0.0,0.0,0.0,0.0,0.0,0.0,0.0,0.0,0.0,0.0,0.0,0.0,0.0,0.0,0.0,0.0,0.0,0.0,0.0,0.0,0.0,0.0,0.0,0.225552946329,-9.58109664917,-0.490332484245,0.0,0.0,0.0,0.0,0.0,0.0,0.0,0.0,0.0
1048200500,8986,1644543031504929543,1,0.0,0.0,0.0,0.0,0.0,0.0,0.0,0.0,0.0,0.0,0.0,0.0,0.0,0.0,0.0,0.0,0.0,0.0,0.0,0.0,0.0,0.0,0.0,0.0,0.0,0.225552946329,-9.61051654816,-0.421685934067,0.0,0.0,0.0,0.0,0.0,0.0,0.0,0.0,0.0
1050245600,8987,1644543031506946087,1,0.0,0.0,0.0,0.0,0.0,0.0,0.0,0.0,0.0,0.0,0.0,0.0,0.0,0.0,0.0,0.0,0.0,0.0,0.0,0.0,0.0,0.0,0.0,0.0,0.0,0.225552946329,-9.62032318115,-0.421685934067,0.0,0.0,0.0,0.0,0.0,0.0,0.0,0.0,0.0
1052353400,8988,1644543031508964539,1,0.0,0.0,0.0,0.0,0.0,0.0,0.0,0.0,0.0,0.0,0.0,0.0,0.0,0.0,0.0,0.0,0.0,0.0,0.0,0.0,0.0,0.0,0.0,0.0,0.0,0.196132987738,-9.58109664917,-0.451105892658,0.0,0.0,0.0,0.0,0.0,0.0,0.0,0.0,0.0
1054290400,8989,1644543031510981083,1,0.0,0.0,0.0,0.0,0.0,0.0,0.0,0.0,0.0,0.0,0.0,0.0,0.0,0.0,0.0,0.0,0.0,0.0,0.0,0.0,0.0,0.0,0.0,0.0,0.0,0.245166242123,-9.62032318115,-0.402072638273,0.0,0.0,0.0,0.0,0.0,0.0,0.0,0.0,0.0
1056461800,8990,1644543031512997866,1,0.0,0.0,0.0,0.0,0.0,0.0,0.0,0.0,0.0,0.0,0.0,0.0,0.0,0.0,0.0,0.0,0.0,0.0,0.0,0.0,0.0,0.0,0.0,0.0,0.0,0.245166242123,-9.64974308014,-0.490332484245,0.0,0.0,0.0,0.0,0.0,0.0,0.0,0.0,0.0
1058359700,8991,1644543031515014410,1,0.0,0.0,0.0,0.0,0.0,0.0,0.0,0.0,0.0,0.0,0.0,0.0,0.0,0.0,0.0,0.0,0.0,0.0,0.0,0.0,0.0,0.0,0.0,0.0,0.0,0.264779537916,-9.62032318115,-0.490332484245,0.0,0.0,0.0,0.0,0.0,0.0,0.0,0.0,0.0
1060346400,8992,1644543031517030716,1,0.0,0.0,0.0,0.0,0.0,0.0,0.0,0.0,0.0,0.0,0.0,0.0,0.0,0.0,0.0,0.0,0.0,0.0,0.0,0.0,0.0,0.0,0.0,0.0,0.0,0.264779537916,-9.62032318115,-0.470719188452,0.0,0.0,0.0,0.0,0.0,0.0,0.0,0.0,0.0
1062335800,8993,1644543031519047260,1,0.0,0.0,0.0,0.0,0.0,0.0,0.0,0.0,0.0,0.0,0.0,0.0,0.0,0.0,0.0,0.0,0.0,0.0,0.0,0.0,0.0,0.0,0.0,0.0,0.0,0.294199496508,-9.62032318115,-0.421685934067,0.0,0.0,0.0,0.0,0.0,0.0,0.0,0.0,0.0
1064671800,8994,1644543031521064043,1,0.0,0.0,0.0,0.0,0.0,0.0,0.0,0.0,0.0,0.0,0.0,0.0,0.0,0.0,0.0,0.0,0.0,0.0,0.0,0.0,0.0,0.0,0.0,0.0,0.0,0.274586200714,-9.58109664917,-0.402072638273,0.0,0.0,0.0,0.0,0.0,0.0,0.0,0.0,0.0
1066497600,8995,1644543031523080587,1,0.0,0.0,0.0,0.0,0.0,0.0,0.0,0.0,0.0,0.0,0.0,0.0,0.0,0.0,0.0,0.0,0.0,0.0,0.0,0.0,0.0,0.0,0.0,0.0,0.0,0.264779537916,-9.61051654816,-0.549172401428,0.0,0.0,0.0,0.0,0.0,0.0,0.0,0.0,0.0
1068538200,8996,1644543031525097132,1,0.0,0.0,0.0,0.0,0.0,0.0,0.0,0.0,0.0,0.0,0.0,0.0,0.0,0.0,0.0,0.0,0.0,0.0,0.0,0.0,0.0,0.0,0.0,0.0,0.0,0.264779537916,-9.62032318115,-0.490332484245,0.0,0.0,0.0,0.0,0.0,0.0,0.0,0.0,0.0
1070472200,8997,1644543031527113438,1,0.0,0.0,0.0,0.0,0.0,0.0,0.0,0.0,0.0,0.0,0.0,0.0,0.0,0.0,0.0,0.0,0.0,0.0,0.0,0.0,0.0,0.0,0.0,0.0,0.0,0.245166242123,-9.61051654816,-0.490332484245,0.0,0.0,0.0,0.0,0.0,0.0,0.0,0.0,0.0
1072197200,8998,1644543031529130220,1,0.0,0.0,0.0,0.0,0.0,0.0,0.0,0.0,0.0,0.0,0.0,0.0,0.0,0.0,0.0,0.0,0.0,0.0,0.0,0.0,0.0,0.0,0.0,0.0,0.0,0.225552946329,-9.64974308014,-0.509945809841,0.0,0.0,0.0,0.0,0.0,0.0,0.0,0.0,0.0
1074172100,8999,1644543031531146765,1,0.0,0.0,0.0,0.0,0.0,0.0,0.0,0.0,0.0,0.0,0.0,0.0,0.0,0.0,0.0,0.0,0.0,0.0,0.0,0.0,0.0,0.0,0.0,0.0,0.0,0.294199496508,-9.58109664917,-0.509945809841,0.0,0.0,0.0,0.0,0.0,0.0,0.0,0.0,0.0
1076167900,9000,1644543031533163309,1,0.0,0.0,0.0,0.0,0.0,0.0,0.0,0.0,0.0,0.0,0.0,0.0,0.0,0.0,0.0,0.0,0.0,0.0,0.0,0.0,0.0,0.0,0.0,0.0,0.0,0.274586200714,-9.61051654816,-0.529559075832,0.0,0.0,0.0,0.0,0.0,0.0,0.0,0.0,0.0
1078240400,9001,1644543031535179853,1,0.0,0.0,0.0,0.0,0.0,0.0,0.0,0.0,0.0,0.0,0.0,0.0,0.0,0.0,0.0,0.0,0.0,0.0,0.0,0.0,0.0,0.0,0.0,0.0,0.0,0.274586200714,-9.64974308014,-0.470719188452,0.0,0.0,0.0,0.0,0.0,0.0,0.0,0.0,0.0
1080241300,9002,1644543031537198544,1,0.0,0.0,0.0,0.0,0.0,0.0,0.0,0.0,0.0,0.0,0.0,0.0,0.0,0.0,0.0,0.0,0.0,0.0,0.0,0.0,0.0,0.0,0.0,0.0,0.0,0.225552946329,-9.61051654816,-0.451105892658,0.0,0.0,0.0,0.0,0.0,0.0,0.0,0.0,0.0
1082237800,9003,1644543031539214849,1,0.0,0.0,0.0,0.0,0.0,0.0,0.0,0.0,0.0,0.0,0.0,0.0,0.0,0.0,0.0,0.0,0.0,0.0,0.0,0.0,0.0,0.0,0.0,0.0,0.0,0.264779537916,-9.61051654816,-0.509945809841,0.0,0.0,0.0,0.0,0.0,0.0,0.0,0.0,0.0
1084444300,9004,1644543031541231394,1,0.0,0.0,0.0,0.0,0.0,0.0,0.0,0.0,0.0,0.0,0.0,0.0,0.0,0.0,0.0,0.0,0.0,0.0,0.0,0.0,0.0,0.0,0.0,0.0,0.0,0.245166242123,-9.61051654816,-0.451105892658,0.0,0.0,0.0,0.0,0.0,0.0,0.0,0.0,0.0
1086490900,9005,1644543031543247938,1,0.0,0.0,0.0,0.0,0.0,0.0,0.0,0.0,0.0,0.0,0.0,0.0,0.0,0.0,0.0,0.0,0.0,0.0,0.0,0.0,0.0,0.0,0.0,0.0,0.0,0.264779537916,-9.61051654816,-0.509945809841,0.0,0.0,0.0,0.0,0.0,0.0,0.0,0.0,0.0
1088643500,9006,1644543031545264721,1,0.0,0.0,0.0,0.0,0.0,0.0,0.0,0.0,0.0,0.0,0.0,0.0,0.0,0.0,0.0,0.0,0.0,0.0,0.0,0.0,0.0,0.0,0.0,0.0,0.0,0.225552946329,-9.58109664917,-0.490332484245,0.0,0.0,0.0,0.0,0.0,0.0,0.0,0.0,0.0
1090548900,9007,1644543031547281265,1,0.0,0.0,0.0,0.0,0.0,0.0,0.0,0.0,0.0,0.0,0.0,0.0,0.0,0.0,0.0,0.0,0.0,0.0,0.0,0.0,0.0,0.0,0.0,0.0,0.0,0.225552946329,-9.58109664917,-0.490332484245,0.0,0.0,0.0,0.0,0.0,0.0,0.0,0.0,0.0
1092427500,9008,1644543031549299717,1,0.0,0.0,0.0,0.0,0.0,0.0,0.0,0.0,0.0,0.0,0.0,0.0,0.0,0.0,0.0,0.0,0.0,0.0,0.0,0.0,0.0,0.0,0.0,0.0,0.0,0.225552946329,-9.61051654816,-0.529559075832,0.0,0.0,0.0,0.0,0.0,0.0,0.0,0.0,0.0
1094890900,9009,1644543031551316261,1,0.0,0.0,0.0,0.0,0.0,0.0,0.0,0.0,0.0,0.0,0.0,0.0,0.0,0.0,0.0,0.0,0.0,0.0,0.0,0.0,0.0,0.0,0.0,0.0,0.0,0.176519691944,-9.58109664917,-0.509945809841,0.0,0.0,0.0,0.0,0.0,0.0,0.0,0.0,0.0
1096666900,9010,1644543031553332806,1,0.0,0.0,0.0,0.0,0.0,0.0,0.0,0.0,0.0,0.0,0.0,0.0,0.0,0.0,0.0,0.0,0.0,0.0,0.0,0.0,0.0,0.0,0.0,0.0,0.0,0.225552946329,-9.58109664917,-0.490332484245,0.0,0.0,0.0,0.0,0.0,0.0,0.0,0.0,0.0
1098466600,9011,1644543031555349350,1,0.0,0.0,0.0,0.0,0.0,0.0,0.0,0.0,0.0,0.0,0.0,0.0,0.0,0.0,0.0,0.0,0.0,0.0,0.0,0.0,0.0,0.0,0.0,0.0,0.0,0.225552946329,-9.56148338318,-0.529559075832,0.0,0.0,0.0,0.0,0.0,0.0,0.0,0.0,0.0
1100451300,9012,1644543031557365894,1,0.0,0.0,0.0,0.0,0.0,0.0,0.0,0.0,0.0,0.0,0.0,0.0,0.0,0.0,0.0,0.0,0.0,0.0,0.0,0.0,0.0,0.0,0.0,0.0,0.0,0.196132987738,-9.58109664917,-0.451105892658,0.0,0.0,0.0,0.0,0.0,0.0,0.0,0.0,0.0
1102415200,9013,1644543031559382677,1,0.0,0.0,0.0,0.0,0.0,0.0,0.0,0.0,0.0,0.0,0.0,0.0,0.0,0.0,0.0,0.0,0.0,0.0,0.0,0.0,0.0,0.0,0.0,0.0,0.0,0.176519691944,-9.61051654816,-0.451105892658,0.0,0.0,0.0,0.0,0.0,0.0,0.0,0.0,0.0
1104433500,9014,1644543031561398983,1,0.0,0.0,0.0,0.0,0.0,0.0,0.0,0.0,0.0,0.0,0.0,0.0,0.0,0.0,0.0,0.0,0.0,0.0,0.0,0.0,0.0,0.0,0.0,0.0,0.0,0.176519691944,-9.58109664917,-0.451105892658,0.0,0.0,0.0,0.0,0.0,0.0,0.0,0.0,0.0
1106479200,9015,1644543031563415527,1,0.0,0.0,0.0,0.0,0.0,0.0,0.0,0.0,0.0,0.0,0.0,0.0,0.0,0.0,0.0,0.0,0.0,0.0,0.0,0.0,0.0,0.0,0.0,0.0,0.0,0.176519691944,-9.58109664917,-0.490332484245,0.0,0.0,0.0,0.0,0.0,0.0,0.0,0.0,0.0
1108573400,9016,1644543031565432072,1,0.0,0.0,0.0,0.0,0.0,0.0,0.0,0.0,0.0,0.0,0.0,0.0,0.0,0.0,0.0,0.0,0.0,0.0,0.0,0.0,0.0,0.0,0.0,0.0,0.0,0.176519691944,-9.58109664917,-0.470719188452,0.0,0.0,0.0,0.0,0.0,0.0,0.0,0.0,0.0
1110800300,9017,1644543031567448616,1,0.0,0.0,0.0,0.0,0.0,0.0,0.0,0.0,0.0,0.0,0.0,0.0,0.0,0.0,0.0,0.0,0.0,0.0,0.0,0.0,0.0,0.0,0.0,0.0,0.0,0.196132987738,-9.57129001617,-0.451105892658,0.0,0.0,0.0,0.0,0.0,0.0,0.0,0.0,0.0
1112471100,9018,1644543031569465399,1,0.0,0.0,0.0,0.0,0.0,0.0,0.0,0.0,0.0,0.0,0.0,0.0,0.0,0.0,0.0,0.0,0.0,0.0,0.0,0.0,0.0,0.0,0.0,0.0,0.0,0.176519691944,-9.61051654816,-0.421685934067,0.0,0.0,0.0,0.0,0.0,0.0,0.0,0.0,0.0
1114385700,9019,1644543031571481943,1,0.0,0.0,0.0,0.0,0.0,0.0,0.0,0.0,0.0,0.0,0.0,0.0,0.0,0.0,0.0,0.0,0.0,0.0,0.0,0.0,0.0,0.0,0.0,0.0,0.0,0.166713044047,-9.57129001617,-0.490332484245,0.0,0.0,0.0,0.0,0.0,0.0,0.0,0.0,0.0
1116459000,9020,1644543031573498249,1,0.0,0.0,0.0,0.0,0.0,0.0,0.0,0.0,0.0,0.0,0.0,0.0,0.0,0.0,0.0,0.0,0.0,0.0,0.0,0.0,0.0,0.0,0.0,0.0,0.0,0.176519691944,-9.57129001617,-0.490332484245,0.0,0.0,0.0,0.0,0.0,0.0,0.0,0.0,0.0
1118539700,9021,1644543031575514793,1,0.0,0.0,0.0,0.0,0.0,0.0,0.0,0.0,0.0,0.0,0.0,0.0,0.0,0.0,0.0,0.0,0.0,0.0,0.0,0.0,0.0,0.0,0.0,0.0,0.0,0.196132987738,-9.56148338318,-0.490332484245,0.0,0.0,0.0,0.0,0.0,0.0,0.0,0.0,0.0
1120698400,9022,1644543031577531576,1,0.0,0.0,0.0,0.0,0.0,0.0,0.0,0.0,0.0,0.0,0.0,0.0,0.0,0.0,0.0,0.0,0.0,0.0,0.0,0.0,0.0,0.0,0.0,0.0,0.0,0.196132987738,-9.58109664917,-0.451105892658,0.0,0.0,0.0,0.0,0.0,0.0,0.0,0.0,0.0
1122796900,9023,1644543031579548120,1,0.0,0.0,0.0,0.0,0.0,0.0,0.0,0.0,0.0,0.0,0.0,0.0,0.0,0.0,0.0,0.0,0.0,0.0,0.0,0.0,0.0,0.0,0.0,0.0,0.0,0.196132987738,-9.61051654816,-0.421685934067,0.0,0.0,0.0,0.0,0.0,0.0,0.0,0.0,0.0
1125068300,9024,1644543031581564665,1,0.0,0.0,0.0,0.0,0.0,0.0,0.0,0.0,0.0,0.0,0.0,0.0,0.0,0.0,0.0,0.0,0.0,0.0,0.0,0.0,0.0,0.0,0.0,0.0,0.0,0.166713044047,-9.58109664917,-0.470719188452,0.0,0.0,0.0,0.0,0.0,0.0,0.0,0.0,0.0
1127056000,9025,1644543031583583355,1,0.0,0.0,0.0,0.0,0.0,0.0,0.0,0.0,0.0,0.0,0.0,0.0,0.0,0.0,0.0,0.0,0.0,0.0,0.0,0.0,0.0,0.0,0.0,0.0,0.0,0.137293100357,-9.57129001617,-0.509945809841,0.0,0.0,0.0,0.0,0.0,0.0,0.0,0.0,0.0
1128739500,9026,1644543031585599661,1,0.0,0.0,0.0,0.0,0.0,0.0,0.0,0.0,0.0,0.0,0.0,0.0,0.0,0.0,0.0,0.0,0.0,0.0,0.0,0.0,0.0,0.0,0.0,0.0,0.0,0.196132987738,-9.56148338318,-0.451105892658,0.0,0.0,0.0,0.0,0.0,0.0,0.0,0.0,0.0
1131021400,9027,1644543031587616205,1,0.0,0.0,0.0,0.0,0.0,0.0,0.0,0.0,0.0,0.0,0.0,0.0,0.0,0.0,0.0,0.0,0.0,0.0,0.0,0.0,0.0,0.0,0.0,0.0,0.0,0.176519691944,-9.53206348419,-0.470719188452,0.0,0.0,0.0,0.0,0.0,0.0,0.0,0.0,0.0
1132987900,9028,1644543031589632750,1,0.0,0.0,0.0,0.0,0.0,0.0,0.0,0.0,0.0,0.0,0.0,0.0,0.0,0.0,0.0,0.0,0.0,0.0,0.0,0.0,0.0,0.0,0.0,0.0,0.0,0.166713044047,-9.56148338318,-0.451105892658,0.0,0.0,0.0,0.0,0.0,0.0,0.0,0.0,0.0
1135020300,9029,1644543031591649532,1,0.0,0.0,0.0,0.0,0.0,0.0,0.0,0.0,0.0,0.0,0.0,0.0,0.0,0.0,0.0,0.0,0.0,0.0,0.0,0.0,0.0,0.0,0.0,0.0,0.0,0.176519691944,-9.58109664917,-0.421685934067,0.0,0.0,0.0,0.0,0.0,0.0,0.0,0.0,0.0
1136998300,9030,1644543031593666077,1,0.0,0.0,0.0,0.0,0.0,0.0,0.0,0.0,0.0,0.0,0.0,0.0,0.0,0.0,0.0,0.0,0.0,0.0,0.0,0.0,0.0,0.0,0.0,0.0,0.0,0.176519691944,-9.58109664917,-0.421685934067,0.0,0.0,0.0,0.0,0.0,0.0,0.0,0.0,0.0
1139118900,9031,1644543031595682383,1,0.0,0.0,0.0,0.0,0.0,0.0,0.0,0.0,0.0,0.0,0.0,0.0,0.0,0.0,0.0,0.0,0.0,0.0,0.0,0.0,0.0,0.0,0.0,0.0,0.0,0.176519691944,-9.57129001617,-0.490332484245,0.0,0.0,0.0,0.0,0.0,0.0,0.0,0.0,0.0
1140991700,9032,1644543031597698927,1,0.0,0.0,0.0,0.0,0.0,0.0,0.0,0.0,0.0,0.0,0.0,0.0,0.0,0.0,0.0,0.0,0.0,0.0,0.0,0.0,0.0,0.0,0.0,0.0,0.0,0.196132987738,-9.58109664917,-0.402072638273,0.0,0.0,0.0,0.0,0.0,0.0,0.0,0.0,0.0
1143014300,9033,1644543031599715471,1,0.0,0.0,0.0,0.0,0.0,0.0,0.0,0.0,0.0,0.0,0.0,0.0,0.0,0.0,0.0,0.0,0.0,0.0,0.0,0.0,0.0,0.0,0.0,0.0,0.0,0.245166242123,-9.61051654816,-0.490332484245,0.0,0.0,0.0,0.0,0.0,0.0,0.0,0.0,0.0
1144923100,9034,1644543031601732254,1,0.0,0.0,0.0,0.0,0.0,0.0,0.0,0.0,0.0,0.0,0.0,0.0,0.0,0.0,0.0,0.0,0.0,0.0,0.0,0.0,0.0,0.0,0.0,0.0,0.0,0.225552946329,-9.62032318115,-0.470719188452,0.0,0.0,0.0,0.0,0.0,0.0,0.0,0.0,0.0
1146944000,9035,1644543031603750706,1,0.0,0.0,0.0,0.0,0.0,0.0,0.0,0.0,0.0,0.0,0.0,0.0,0.0,0.0,0.0,0.0,0.0,0.0,0.0,0.0,0.0,0.0,0.0,0.0,0.0,0.225552946329,-9.58109664917,-0.509945809841,0.0,0.0,0.0,0.0,0.0,0.0,0.0,0.0,0.0
1149038100,9036,1644543031605767250,1,0.0,0.0,0.0,0.0,0.0,0.0,0.0,0.0,0.0,0.0,0.0,0.0,0.0,0.0,0.0,0.0,0.0,0.0,0.0,0.0,0.0,0.0,0.0,0.0,0.0,0.196132987738,-9.62032318115,-0.451105892658,0.0,0.0,0.0,0.0,0.0,0.0,0.0,0.0,0.0
1150938800,9037,1644543031607783794,1,0.0,0.0,0.0,0.0,0.0,0.0,0.0,0.0,0.0,0.0,0.0,0.0,0.0,0.0,0.0,0.0,0.0,0.0,0.0,0.0,0.0,0.0,0.0,0.0,0.0,0.196132987738,-9.61051654816,-0.470719188452,0.0,0.0,0.0,0.0,0.0,0.0,0.0,0.0,0.0
1153111300,9038,1644543031609800339,1,0.0,0.0,0.0,0.0,0.0,0.0,0.0,0.0,0.0,0.0,0.0,0.0,0.0,0.0,0.0,0.0,0.0,0.0,0.0,0.0,0.0,0.0,0.0,0.0,0.0,0.245166242123,-9.61051654816,-0.509945809841,0.0,0.0,0.0,0.0,0.0,0.0,0.0,0.0,0.0
1155384900,9039,1644543031611816883,1,0.0,0.0,0.0,0.0,0.0,0.0,0.0,0.0,0.0,0.0,0.0,0.0,0.0,0.0,0.0,0.0,0.0,0.0,0.0,0.0,0.0,0.0,0.0,0.0,0.0,0.245166242123,-9.61051654816,-0.509945809841,0.0,0.0,0.0,0.0,0.0,0.0,0.0,0.0,0.0
1157351500,9040,1644543031613833427,1,0.0,0.0,0.0,0.0,0.0,0.0,0.0,0.0,0.0,0.0,0.0,0.0,0.0,0.0,0.0,0.0,0.0,0.0,0.0,0.0,0.0,0.0,0.0,0.0,0.0,0.196132987738,-9.64974308014,-0.529559075832,0.0,0.0,0.0,0.0,0.0,0.0,0.0,0.0,0.0
1159164900,9041,1644543031615850210,1,0.0,0.0,0.0,0.0,0.0,0.0,0.0,0.0,0.0,0.0,0.0,0.0,0.0,0.0,0.0,0.0,0.0,0.0,0.0,0.0,0.0,0.0,0.0,0.0,0.0,0.264779537916,-9.57129001617,-0.470719188452,0.0,0.0,0.0,0.0,0.0,0.0,0.0,0.0,0.0
1161295300,9042,1644543031617868662,1,0.0,0.0,0.0,0.0,0.0,0.0,0.0,0.0,0.0,0.0,0.0,0.0,0.0,0.0,0.0,0.0,0.0,0.0,0.0,0.0,0.0,0.0,0.0,0.0,0.0,0.264779537916,-9.64974308014,-0.421685934067,0.0,0.0,0.0,0.0,0.0,0.0,0.0,0.0,0.0
1162992700,9043,1644543031619884968,1,0.0,0.0,0.0,0.0,0.0,0.0,0.0,0.0,0.0,0.0,0.0,0.0,0.0,0.0,0.0,0.0,0.0,0.0,0.0,0.0,0.0,0.0,0.0,0.0,0.0,0.264779537916,-9.61051654816,-0.490332484245,0.0,0.0,0.0,0.0,0.0,0.0,0.0,0.0,0.0
1165099200,9044,1644543031621901512,1,0.0,0.0,0.0,0.0,0.0,0.0,0.0,0.0,0.0,0.0,0.0,0.0,0.0,0.0,0.0,0.0,0.0,0.0,0.0,0.0,0.0,0.0,0.0,0.0,0.0,0.245166242123,-9.58109664917,-0.490332484245,0.0,0.0,0.0,0.0,0.0,0.0,0.0,0.0,0.0
1166975700,9045,1644543031623918295,1,0.0,0.0,0.0,0.0,0.0,0.0,0.0,0.0,0.0,0.0,0.0,0.0,0.0,0.0,0.0,0.0,0.0,0.0,0.0,0.0,0.0,0.0,0.0,0.0,0.0,0.274586200714,-9.64974308014,-0.421685934067,0.0,0.0,0.0,0.0,0.0,0.0,0.0,0.0,0.0
1168899200,9046,1644543031625934839,1,0.0,0.0,0.0,0.0,0.0,0.0,0.0,0.0,0.0,0.0,0.0,0.0,0.0,0.0,0.0,0.0,0.0,0.0,0.0,0.0,0.0,0.0,0.0,0.0,0.0,0.264779537916,-9.58109664917,-0.421685934067,0.0,0.0,0.0,0.0,0.0,0.0,0.0,0.0,0.0
1170944600,9047,1644543031627951384,1,0.0,0.0,0.0,0.0,0.0,0.0,0.0,0.0,0.0,0.0,0.0,0.0,0.0,0.0,0.0,0.0,0.0,0.0,0.0,0.0,0.0,0.0,0.0,0.0,0.0,0.264779537916,-9.61051654816,-0.451105892658,0.0,0.0,0.0,0.0,0.0,0.0,0.0,0.0,0.0
1172889000,9048,1644543031629967690,1,0.0,0.0,0.0,0.0,0.0,0.0,0.0,0.0,0.0,0.0,0.0,0.0,0.0,0.0,0.0,0.0,0.0,0.0,0.0,0.0,0.0,0.0,0.0,0.0,0.0,0.264779537916,-9.61051654816,-0.470719188452,0.0,0.0,0.0,0.0,0.0,0.0,0.0,0.0,0.0
1174919400,9049,1644543031631984472,1,0.0,0.0,0.0,0.0,0.0,0.0,0.0,0.0,0.0,0.0,0.0,0.0,0.0,0.0,0.0,0.0,0.0,0.0,0.0,0.0,0.0,0.0,0.0,0.0,0.0,0.274586200714,-9.58109664917,-0.362846046686,0.0,0.0,0.0,0.0,0.0,0.0,0.0,0.0,0.0
1176939400,9050,1644543031634001017,1,0.0,0.0,0.0,0.0,0.0,0.0,0.0,0.0,0.0,0.0,0.0,0.0,0.0,0.0,0.0,0.0,0.0,0.0,0.0,0.0,0.0,0.0,0.0,0.0,0.0,0.225552946329,-9.61051654816,-0.421685934067,0.0,0.0,0.0,0.0,0.0,0.0,0.0,0.0,0.0
1178920400,9051,1644543031636017561,1,0.0,0.0,0.0,0.0,0.0,0.0,0.0,0.0,0.0,0.0,0.0,0.0,0.0,0.0,0.0,0.0,0.0,0.0,0.0,0.0,0.0,0.0,0.0,0.0,0.0,0.245166242123,-9.62032318115,-0.421685934067,0.0,0.0,0.0,0.0,0.0,0.0,0.0,0.0,0.0
1180954500,9052,1644543031638036251,1,0.0,0.0,0.0,0.0,0.0,0.0,0.0,0.0,0.0,0.0,0.0,0.0,0.0,0.0,0.0,0.0,0.0,0.0,0.0,0.0,0.0,0.0,0.0,0.0,0.0,0.225552946329,-9.62032318115,-0.490332484245,0.0,0.0,0.0,0.0,0.0,0.0,0.0,0.0,0.0
1182874900,9053,1644543031640052795,1,0.0,0.0,0.0,0.0,0.0,0.0,0.0,0.0,0.0,0.0,0.0,0.0,0.0,0.0,0.0,0.0,0.0,0.0,0.0,0.0,0.0,0.0,0.0,0.0,0.0,0.225552946329,-9.61051654816,-0.421685934067,0.0,0.0,0.0,0.0,0.0,0.0,0.0,0.0,0.0
1184993300,9054,1644543031642069101,1,0.0,0.0,0.0,0.0,0.0,0.0,0.0,0.0,0.0,0.0,0.0,0.0,0.0,0.0,0.0,0.0,0.0,0.0,0.0,0.0,0.0,0.0,0.0,0.0,0.0,0.196132987738,-9.58109664917,-0.451105892658,0.0,0.0,0.0,0.0,0.0,0.0,0.0,0.0,0.0
1186948100,9055,1644543031644085646,1,0.0,0.0,0.0,0.0,0.0,0.0,0.0,0.0,0.0,0.0,0.0,0.0,0.0,0.0,0.0,0.0,0.0,0.0,0.0,0.0,0.0,0.0,0.0,0.0,0.0,0.166713044047,-9.62032318115,-0.402072638273,0.0,0.0,0.0,0.0,0.0,0.0,0.0,0.0,0.0
1188907600,9056,1644543031646102190,1,0.0,0.0,0.0,0.0,0.0,0.0,0.0,0.0,0.0,0.0,0.0,0.0,0.0,0.0,0.0,0.0,0.0,0.0,0.0,0.0,0.0,0.0,0.0,0.0,0.0,0.176519691944,-9.57129001617,-0.451105892658,0.0,0.0,0.0,0.0,0.0,0.0,0.0,0.0,0.0
1190902000,9057,1644543031648118973,1,0.0,0.0,0.0,0.0,0.0,0.0,0.0,0.0,0.0,0.0,0.0,0.0,0.0,0.0,0.0,0.0,0.0,0.0,0.0,0.0,0.0,0.0,0.0,0.0,0.0,0.176519691944,-9.58109664917,-0.470719188452,0.0,0.0,0.0,0.0,0.0,0.0,0.0,0.0,0.0
1193140400,9058,1644543031650135517,1,0.0,0.0,0.0,0.0,0.0,0.0,0.0,0.0,0.0,0.0,0.0,0.0,0.0,0.0,0.0,0.0,0.0,0.0,0.0,0.0,0.0,0.0,0.0,0.0,0.0,0.176519691944,-9.58109664917,-0.490332484245,0.0,0.0,0.0,0.0,0.0,0.0,0.0,0.0,0.0
1195223400,9059,1644543031652151823,1,0.0,0.0,0.0,0.0,0.0,0.0,0.0,0.0,0.0,0.0,0.0,0.0,0.0,0.0,0.0,0.0,0.0,0.0,0.0,0.0,0.0,0.0,0.0,0.0,0.0,0.176519691944,-9.57129001617,-0.421685934067,0.0,0.0,0.0,0.0,0.0,0.0,0.0,0.0,0.0
1197128500,9060,1644543031654170513,1,0.0,0.0,0.0,0.0,0.0,0.0,0.0,0.0,0.0,0.0,0.0,0.0,0.0,0.0,0.0,0.0,0.0,0.0,0.0,0.0,0.0,0.0,0.0,0.0,0.0,0.166713044047,-9.58109664917,-0.470719188452,0.0,0.0,0.0,0.0,0.0,0.0,0.0,0.0,0.0
1199353200,9061,1644543031656187057,1,0.0,0.0,0.0,0.0,0.0,0.0,0.0,0.0,0.0,0.0,0.0,0.0,0.0,0.0,0.0,0.0,0.0,0.0,0.0,0.0,0.0,0.0,0.0,0.0,0.0,0.176519691944,-9.61051654816,-0.509945809841,0.0,0.0,0.0,0.0,0.0,0.0,0.0,0.0,0.0
1201668000,9062,1644543031658203602,1,0.0,0.0,0.0,0.0,0.0,0.0,0.0,0.0,0.0,0.0,0.0,0.0,0.0,0.0,0.0,0.0,0.0,0.0,0.0,0.0,0.0,0.0,0.0,0.0,0.0,0.196132987738,-9.61051654816,-0.451105892658,0.0,0.0,0.0,0.0,0.0,0.0,0.0,0.0,0.0
1203257000,9063,1644543031660220146,1,0.0,0.0,0.0,0.0,0.0,0.0,0.0,0.0,0.0,0.0,0.0,0.0,0.0,0.0,0.0,0.0,0.0,0.0,0.0,0.0,0.0,0.0,0.0,0.0,0.0,0.196132987738,-9.62032318115,-0.421685934067,0.0,0.0,0.0,0.0,0.0,0.0,0.0,0.0,0.0
1205285400,9064,1644543031662236929,1,0.0,0.0,0.0,0.0,0.0,0.0,0.0,0.0,0.0,0.0,0.0,0.0,0.0,0.0,0.0,0.0,0.0,0.0,0.0,0.0,0.0,0.0,0.0,0.0,0.0,0.176519691944,-9.58109664917,-0.402072638273,0.0,0.0,0.0,0.0,0.0,0.0,0.0,0.0,0.0
1207292500,9065,1644543031664253235,1,0.0,0.0,0.0,0.0,0.0,0.0,0.0,0.0,0.0,0.0,0.0,0.0,0.0,0.0,0.0,0.0,0.0,0.0,0.0,0.0,0.0,0.0,0.0,0.0,0.0,0.196132987738,-9.58109664917,-0.490332484245,0.0,0.0,0.0,0.0,0.0,0.0,0.0,0.0,0.0
1209332500,9066,1644543031666269779,1,0.0,0.0,0.0,0.0,0.0,0.0,0.0,0.0,0.0,0.0,0.0,0.0,0.0,0.0,0.0,0.0,0.0,0.0,0.0,0.0,0.0,0.0,0.0,0.0,0.0,0.264779537916,-9.61051654816,-0.470719188452,0.0,0.0,0.0,0.0,0.0,0.0,0.0,0.0,0.0
1211344400,9067,1644543031668286324,1,0.0,0.0,0.0,0.0,0.0,0.0,0.0,0.0,0.0,0.0,0.0,0.0,0.0,0.0,0.0,0.0,0.0,0.0,0.0,0.0,0.0,0.0,0.0,0.0,0.0,0.176519691944,-9.61051654816,-0.451105892658,0.0,0.0,0.0,0.0,0.0,0.0,0.0,0.0,0.0
1213233100,9068,1644543031670305014,1,0.0,0.0,0.0,0.0,0.0,0.0,0.0,0.0,0.0,0.0,0.0,0.0,0.0,0.0,0.0,0.0,0.0,0.0,0.0,0.0,0.0,0.0,0.0,0.0,0.0,0.166713044047,-9.58109664917,-0.470719188452,0.0,0.0,0.0,0.0,0.0,0.0,0.0,0.0,0.0
1215201900,9069,1644543031672321558,1,0.0,0.0,0.0,0.0,0.0,0.0,0.0,0.0,0.0,0.0,0.0,0.0,0.0,0.0,0.0,0.0,0.0,0.0,0.0,0.0,0.0,0.0,0.0,0.0,0.0,0.196132987738,-9.58109664917,-0.490332484245,0.0,0.0,0.0,0.0,0.0,0.0,0.0,0.0,0.0
1217258700,9070,1644543031674338102,1,0.0,0.0,0.0,0.0,0.0,0.0,0.0,0.0,0.0,0.0,0.0,0.0,0.0,0.0,0.0,0.0,0.0,0.0,0.0,0.0,0.0,0.0,0.0,0.0,0.0,0.176519691944,-9.56148338318,-0.470719188452,0.0,0.0,0.0,0.0,0.0,0.0,0.0,0.0,0.0
1219195600,9071,1644543031676354408,1,0.0,0.0,0.0,0.0,0.0,0.0,0.0,0.0,0.0,0.0,0.0,0.0,0.0,0.0,0.0,0.0,0.0,0.0,0.0,0.0,0.0,0.0,0.0,0.0,0.0,0.196132987738,-9.58109664917,-0.470719188452,0.0,0.0,0.0,0.0,0.0,0.0,0.0,0.0,0.0
1221213200,9072,1644543031678371191,1,0.0,0.0,0.0,0.0,0.0,0.0,0.0,0.0,0.0,0.0,0.0,0.0,0.0,0.0,0.0,0.0,0.0,0.0,0.0,0.0,0.0,0.0,0.0,0.0,0.0,0.225552946329,-9.61051654816,-0.529559075832,0.0,0.0,0.0,0.0,0.0,0.0,0.0,0.0,0.0
1223206700,9073,1644543031680389643,1,0.0,0.0,0.0,0.0,0.0,0.0,0.0,0.0,0.0,0.0,0.0,0.0,0.0,0.0,0.0,0.0,0.0,0.0,0.0,0.0,0.0,0.0,0.0,0.0,0.0,0.176519691944,-9.56148338318,-0.490332484245,0.0,0.0,0.0,0.0,0.0,0.0,0.0,0.0,0.0
1225195900,9074,1644543031682406187,1,0.0,0.0,0.0,0.0,0.0,0.0,0.0,0.0,0.0,0.0,0.0,0.0,0.0,0.0,0.0,0.0,0.0,0.0,0.0,0.0,0.0,0.0,0.0,0.0,0.0,0.176519691944,-9.62032318115,-0.529559075832,0.0,0.0,0.0,0.0,0.0,0.0,0.0,0.0,0.0
1227251900,9075,1644543031684422970,1,0.0,0.0,0.0,0.0,0.0,0.0,0.0,0.0,0.0,0.0,0.0,0.0,0.0,0.0,0.0,0.0,0.0,0.0,0.0,0.0,0.0,0.0,0.0,0.0,0.0,0.196132987738,-9.61051654816,-0.470719188452,0.0,0.0,0.0,0.0,0.0,0.0,0.0,0.0,0.0
1229499500,9076,1644543031686439514,1,0.0,0.0,0.0,0.0,0.0,0.0,0.0,0.0,0.0,0.0,0.0,0.0,0.0,0.0,0.0,0.0,0.0,0.0,0.0,0.0,0.0,0.0,0.0,0.0,0.0,0.225552946329,-9.61051654816,-0.421685934067,0.0,0.0,0.0,0.0,0.0,0.0,0.0,0.0,0.0
1231475000,9077,1644543031688455820,1,0.0,0.0,0.0,0.0,0.0,0.0,0.0,0.0,0.0,0.0,0.0,0.0,0.0,0.0,0.0,0.0,0.0,0.0,0.0,0.0,0.0,0.0,0.0,0.0,0.0,0.225552946329,-9.62032318115,-0.470719188452,0.0,0.0,0.0,0.0,0.0,0.0,0.0,0.0,0.0
1233688200,9078,1644543031690472364,1,0.0,0.0,0.0,0.0,0.0,0.0,0.0,0.0,0.0,0.0,0.0,0.0,0.0,0.0,0.0,0.0,0.0,0.0,0.0,0.0,0.0,0.0,0.0,0.0,0.0,0.294199496508,-9.62032318115,-0.509945809841,0.0,0.0,0.0,0.0,0.0,0.0,0.0,0.0,0.0
1235777700,9079,1644543031692491055,1,0.0,0.0,0.0,0.0,0.0,0.0,0.0,0.0,0.0,0.0,0.0,0.0,0.0,0.0,0.0,0.0,0.0,0.0,0.0,0.0,0.0,0.0,0.0,0.0,0.0,0.225552946329,-9.58109664917,-0.490332484245,0.0,0.0,0.0,0.0,0.0,0.0,0.0,0.0,0.0
1237791300,9080,1644543031694507599,1,0.0,0.0,0.0,0.0,0.0,0.0,0.0,0.0,0.0,0.0,0.0,0.0,0.0,0.0,0.0,0.0,0.0,0.0,0.0,0.0,0.0,0.0,0.0,0.0,0.0,0.245166242123,-9.57129001617,-0.470719188452,0.0,0.0,0.0,0.0,0.0,0.0,0.0,0.0,0.0
1239933100,9081,1644543031696524143,1,0.0,0.0,0.0,0.0,0.0,0.0,0.0,0.0,0.0,0.0,0.0,0.0,0.0,0.0,0.0,0.0,0.0,0.0,0.0,0.0,0.0,0.0,0.0,0.0,0.0,0.245166242123,-9.58109664917,-0.549172401428,0.0,0.0,0.0,0.0,0.0,0.0,0.0,0.0,0.0
1241797500,9082,1644543031698540449,1,0.0,0.0,0.0,0.0,0.0,0.0,0.0,0.0,0.0,0.0,0.0,0.0,0.0,0.0,0.0,0.0,0.0,0.0,0.0,0.0,0.0,0.0,0.0,0.0,0.0,0.264779537916,-9.61051654816,-0.421685934067,0.0,0.0,0.0,0.0,0.0,0.0,0.0,0.0,0.0
1243967600,9083,1644543031700557232,1,0.0,0.0,0.0,0.0,0.0,0.0,0.0,0.0,0.0,0.0,0.0,0.0,0.0,0.0,0.0,0.0,0.0,0.0,0.0,0.0,0.0,0.0,0.0,0.0,0.0,0.264779537916,-9.58109664917,-0.490332484245,0.0,0.0,0.0,0.0,0.0,0.0,0.0,0.0,0.0
1245817000,9084,1644543031702573776,1,0.0,0.0,0.0,0.0,0.0,0.0,0.0,0.0,0.0,0.0,0.0,0.0,0.0,0.0,0.0,0.0,0.0,0.0,0.0,0.0,0.0,0.0,0.0,0.0,0.0,0.264779537916,-9.61051654816,-0.421685934067,0.0,0.0,0.0,0.0,0.0,0.0,0.0,0.0,0.0
1247846200,9085,1644543031704590321,1,0.0,0.0,0.0,0.0,0.0,0.0,0.0,0.0,0.0,0.0,0.0,0.0,0.0,0.0,0.0,0.0,0.0,0.0,0.0,0.0,0.0,0.0,0.0,0.0,0.0,0.264779537916,-9.61051654816,-0.421685934067,0.0,0.0,0.0,0.0,0.0,0.0,0.0,0.0,0.0
1249742400,9086,1644543031706606865,1,0.0,0.0,0.0,0.0,0.0,0.0,0.0,0.0,0.0,0.0,0.0,0.0,0.0,0.0,0.0,0.0,0.0,0.0,0.0,0.0,0.0,0.0,0.0,0.0,0.0,0.196132987738,-9.61051654816,-0.509945809841,0.0,0.0,0.0,0.0,0.0,0.0,0.0,0.0,0.0
1251661100,9087,1644543031708623409,1,0.0,0.0,0.0,0.0,0.0,0.0,0.0,0.0,0.0,0.0,0.0,0.0,0.0,0.0,0.0,0.0,0.0,0.0,0.0,0.0,0.0,0.0,0.0,0.0,0.0,0.225552946329,-9.62032318115,-0.529559075832,0.0,0.0,0.0,0.0,0.0,0.0,0.0,0.0,0.0
1253655500,9088,1644543031710639954,1,0.0,0.0,0.0,0.0,0.0,0.0,0.0,0.0,0.0,0.0,0.0,0.0,0.0,0.0,0.0,0.0,0.0,0.0,0.0,0.0,0.0,0.0,0.0,0.0,0.0,0.196132987738,-9.62032318115,-0.490332484245,0.0,0.0,0.0,0.0,0.0,0.0,0.0,0.0,0.0
1255719700,9089,1644543031712656498,1,0.0,0.0,0.0,0.0,0.0,0.0,0.0,0.0,0.0,0.0,0.0,0.0,0.0,0.0,0.0,0.0,0.0,0.0,0.0,0.0,0.0,0.0,0.0,0.0,0.0,0.196132987738,-9.56148338318,-0.509945809841,0.0,0.0,0.0,0.0,0.0,0.0,0.0,0.0,0.0
1257649800,9090,1644543031714673042,1,0.0,0.0,0.0,0.0,0.0,0.0,0.0,0.0,0.0,0.0,0.0,0.0,0.0,0.0,0.0,0.0,0.0,0.0,0.0,0.0,0.0,0.0,0.0,0.0,0.0,0.12748645246,-9.57129001617,-0.529559075832,0.0,0.0,0.0,0.0,0.0,0.0,0.0,0.0,0.0
1259770200,9091,1644543031716691732,1,0.0,0.0,0.0,0.0,0.0,0.0,0.0,0.0,0.0,0.0,0.0,0.0,0.0,0.0,0.0,0.0,0.0,0.0,0.0,0.0,0.0,0.0,0.0,0.0,0.0,0.137293100357,-9.61051654816,-0.509945809841,0.0,0.0,0.0,0.0,0.0,0.0,0.0,0.0,0.0
1261718100,9092,1644543031718708277,1,0.0,0.0,0.0,0.0,0.0,0.0,0.0,0.0,0.0,0.0,0.0,0.0,0.0,0.0,0.0,0.0,0.0,0.0,0.0,0.0,0.0,0.0,0.0,0.0,0.0,0.137293100357,-9.57129001617,-0.549172401428,0.0,0.0,0.0,0.0,0.0,0.0,0.0,0.0,0.0
1263763800,9093,1644543031720724583,1,0.0,0.0,0.0,0.0,0.0,0.0,0.0,0.0,0.0,0.0,0.0,0.0,0.0,0.0,0.0,0.0,0.0,0.0,0.0,0.0,0.0,0.0,0.0,0.0,0.0,0.12748645246,-9.56148338318,-0.549172401428,0.0,0.0,0.0,0.0,0.0,0.0,0.0,0.0,0.0
1265973100,9094,1644543031722741127,1,0.0,0.0,0.0,0.0,0.0,0.0,0.0,0.0,0.0,0.0,0.0,0.0,0.0,0.0,0.0,0.0,0.0,0.0,0.0,0.0,0.0,0.0,0.0,0.0,0.0,0.0784531980753,-9.5222568512,-0.549172401428,0.0,0.0,0.0,0.0,0.0,0.0,0.0,0.0,0.0
1267756900,9095,1644543031724757910,1,0.0,0.0,0.0,0.0,0.0,0.0,0.0,0.0,0.0,0.0,0.0,0.0,0.0,0.0,0.0,0.0,0.0,0.0,0.0,0.0,0.0,0.0,0.0,0.0,0.0,0.0784531980753,-9.57129001617,-0.509945809841,0.0,0.0,0.0,0.0,0.0,0.0,0.0,0.0,0.0
1269742300,9096,1644543031726774454,1,0.0,0.0,0.0,0.0,0.0,0.0,0.0,0.0,0.0,0.0,0.0,0.0,0.0,0.0,0.0,0.0,0.0,0.0,0.0,0.0,0.0,0.0,0.0,0.0,0.0,0.0980664938688,-9.57129001617,-0.509945809841,0.0,0.0,0.0,0.0,0.0,0.0,0.0,0.0,0.0
1271724500,9097,1644543031728790998,1,0.0,0.0,0.0,0.0,0.0,0.0,0.0,0.0,0.0,0.0,0.0,0.0,0.0,0.0,0.0,0.0,0.0,0.0,0.0,0.0,0.0,0.0,0.0,0.0,0.0,0.137293100357,-9.58109664917,-0.529559075832,0.0,0.0,0.0,0.0,0.0,0.0,0.0,0.0,0.0
1273693000,9098,1644543031730807304,1,0.0,0.0,0.0,0.0,0.0,0.0,0.0,0.0,0.0,0.0,0.0,0.0,0.0,0.0,0.0,0.0,0.0,0.0,0.0,0.0,0.0,0.0,0.0,0.0,0.0,0.12748645246,-9.57129001617,-0.451105892658,0.0,0.0,0.0,0.0,0.0,0.0,0.0,0.0,0.0
1275676200,9099,1644543031732824087,1,0.0,0.0,0.0,0.0,0.0,0.0,0.0,0.0,0.0,0.0,0.0,0.0,0.0,0.0,0.0,0.0,0.0,0.0,0.0,0.0,0.0,0.0,0.0,0.0,0.0,0.12748645246,-9.58109664917,-0.509945809841,0.0,0.0,0.0,0.0,0.0,0.0,0.0,0.0,0.0
1277771800,9100,1644543031734840631,1,0.0,0.0,0.0,0.0,0.0,0.0,0.0,0.0,0.0,0.0,0.0,0.0,0.0,0.0,0.0,0.0,0.0,0.0,0.0,0.0,0.0,0.0,0.0,0.0,0.0,0.166713044047,-9.61051654816,-0.451105892658,0.0,0.0,0.0,0.0,0.0,0.0,0.0,0.0,0.0
1279784100,9101,1644543031736857176,1,0.0,0.0,0.0,0.0,0.0,0.0,0.0,0.0,0.0,0.0,0.0,0.0,0.0,0.0,0.0,0.0,0.0,0.0,0.0,0.0,0.0,0.0,0.0,0.0,0.0,0.0980664938688,-9.58109664917,-0.509945809841,0.0,0.0,0.0,0.0,0.0,0.0,0.0,0.0,0.0
1281673100,9102,1644543031738873720,1,0.0,0.0,0.0,0.0,0.0,0.0,0.0,0.0,0.0,0.0,0.0,0.0,0.0,0.0,0.0,0.0,0.0,0.0,0.0,0.0,0.0,0.0,0.0,0.0,0.0,0.166713044047,-9.57129001617,-0.402072638273,0.0,0.0,0.0,0.0,0.0,0.0,0.0,0.0,0.0
1283663600,9103,1644543031740890026,1,0.0,0.0,0.0,0.0,0.0,0.0,0.0,0.0,0.0,0.0,0.0,0.0,0.0,0.0,0.0,0.0,0.0,0.0,0.0,0.0,0.0,0.0,0.0,0.0,0.0,0.176519691944,-9.61051654816,-0.402072638273,0.0,0.0,0.0,0.0,0.0,0.0,0.0,0.0,0.0
1285708000,9104,1644543031742906809,1,0.0,0.0,0.0,0.0,0.0,0.0,0.0,0.0,0.0,0.0,0.0,0.0,0.0,0.0,0.0,0.0,0.0,0.0,0.0,0.0,0.0,0.0,0.0,0.0,0.0,0.225552946329,-9.61051654816,-0.421685934067,0.0,0.0,0.0,0.0,0.0,0.0,0.0,0.0,0.0
1287739800,9105,1644543031744923353,1,0.0,0.0,0.0,0.0,0.0,0.0,0.0,0.0,0.0,0.0,0.0,0.0,0.0,0.0,0.0,0.0,0.0,0.0,0.0,0.0,0.0,0.0,0.0,0.0,0.0,0.225552946329,-9.61051654816,-0.402072638273,0.0,0.0,0.0,0.0,0.0,0.0,0.0,0.0,0.0
1289719500,9106,1644543031746939898,1,0.0,0.0,0.0,0.0,0.0,0.0,0.0,0.0,0.0,0.0,0.0,0.0,0.0,0.0,0.0,0.0,0.0,0.0,0.0,0.0,0.0,0.0,0.0,0.0,0.0,0.176519691944,-9.61051654816,-0.451105892658,0.0,0.0,0.0,0.0,0.0,0.0,0.0,0.0,0.0
1291813300,9107,1644543031748956442,1,0.0,0.0,0.0,0.0,0.0,0.0,0.0,0.0,0.0,0.0,0.0,0.0,0.0,0.0,0.0,0.0,0.0,0.0,0.0,0.0,0.0,0.0,0.0,0.0,0.0,0.245166242123,-9.58109664917,-0.470719188452,0.0,0.0,0.0,0.0,0.0,0.0,0.0,0.0,0.0
1293745300,9108,1644543031750972986,1,0.0,0.0,0.0,0.0,0.0,0.0,0.0,0.0,0.0,0.0,0.0,0.0,0.0,0.0,0.0,0.0,0.0,0.0,0.0,0.0,0.0,0.0,0.0,0.0,0.0,0.264779537916,-9.57129001617,-0.402072638273,0.0,0.0,0.0,0.0,0.0,0.0,0.0,0.0,0.0
1295887300,9109,1644543031752989531,1,0.0,0.0,0.0,0.0,0.0,0.0,0.0,0.0,0.0,0.0,0.0,0.0,0.0,0.0,0.0,0.0,0.0,0.0,0.0,0.0,0.0,0.0,0.0,0.0,0.0,0.274586200714,-9.64974308014,-0.402072638273,0.0,0.0,0.0,0.0,0.0,0.0,0.0,0.0,0.0
1297772300,9110,1644543031755006075,1,0.0,0.0,0.0,0.0,0.0,0.0,0.0,0.0,0.0,0.0,0.0,0.0,0.0,0.0,0.0,0.0,0.0,0.0,0.0,0.0,0.0,0.0,0.0,0.0,0.0,0.529559075832,-9.80665016174,-0.343232750893,0.0,0.0,0.0,0.0,0.0,0.0,0.0,0.0,0.0
1299962400,9111,1644543031757024765,1,0.0,0.0,0.0,0.0,0.0,0.0,0.0,0.0,0.0,0.0,0.0,0.0,0.0,0.0,0.0,0.0,0.0,0.0,0.0,0.0,0.0,0.0,0.0,0.0,0.0,0.451105892658,-9.67916297913,-0.362846046686,0.0,0.0,0.0,0.0,0.0,0.0,0.0,0.0,0.0
1302106500,9112,1644543031759041309,1,0.0,0.0,0.0,0.0,0.0,0.0,0.0,0.0,0.0,0.0,0.0,0.0,0.0,0.0,0.0,0.0,0.0,0.0,0.0,0.0,0.0,0.0,0.0,0.0,0.0,0.225552946329,-9.56148338318,-0.490332484245,0.0,0.0,0.0,0.0,0.0,0.0,0.0,0.0,0.0
1304217100,9113,1644543031761057615,1,0.0,0.0,0.0,0.0,0.0,0.0,0.0,0.0,0.0,0.0,0.0,0.0,0.0,0.0,0.0,0.0,0.0,0.0,0.0,0.0,0.0,0.0,0.0,0.0,0.0,0.137293100357,-9.66935634613,-0.451105892658,0.0,0.0,0.0,0.0,0.0,0.0,0.0,0.0,0.0
1305999800,9114,1644543031763074160,1,0.0,0.0,0.0,0.0,0.0,0.0,0.0,0.0,0.0,0.0,0.0,0.0,0.0,0.0,0.0,0.0,0.0,0.0,0.0,0.0,0.0,0.0,0.0,0.0,0.0,0.225552946329,-9.61051654816,-0.421685934067,0.0,0.0,0.0,0.0,0.0,0.0,0.0,0.0,0.0
1308006700,9115,1644543031765090704,1,0.0,0.0,0.0,0.0,0.0,0.0,0.0,0.0,0.0,0.0,0.0,0.0,0.0,0.0,0.0,0.0,0.0,0.0,0.0,0.0,0.0,0.0,0.0,0.0,0.0,0.264779537916,-9.58109664917,-0.470719188452,0.0,0.0,0.0,0.0,0.0,0.0,0.0,0.0,0.0
1310089900,9116,1644543031767107487,1,0.0,0.0,0.0,0.0,0.0,0.0,0.0,0.0,0.0,0.0,0.0,0.0,0.0,0.0,0.0,0.0,0.0,0.0,0.0,0.0,0.0,0.0,0.0,0.0,0.0,0.264779537916,-9.67916297913,-0.402072638273,0.0,0.0,0.0,0.0,0.0,0.0,0.0,0.0,0.0
1311960200,9117,1644543031769124031,1,0.0,0.0,0.0,0.0,0.0,0.0,0.0,0.0,0.0,0.0,0.0,0.0,0.0,0.0,0.0,0.0,0.0,0.0,0.0,0.0,0.0,0.0,0.0,0.0,0.0,0.196132987738,-9.62032318115,-0.509945809841,0.0,0.0,0.0,0.0,0.0,0.0,0.0,0.0,0.0
1313887600,9118,1644543031771140337,1,0.0,0.0,0.0,0.0,0.0,0.0,0.0,0.0,0.0,0.0,0.0,0.0,0.0,0.0,0.0,0.0,0.0,0.0,0.0,0.0,0.0,0.0,0.0,0.0,0.0,0.176519691944,-9.57129001617,-0.470719188452,0.0,0.0,0.0,0.0,0.0,0.0,0.0,0.0,0.0
1315938100,9119,1644543031773159027,1,0.0,0.0,0.0,0.0,0.0,0.0,0.0,0.0,0.0,0.0,0.0,0.0,0.0,0.0,0.0,0.0,0.0,0.0,0.0,0.0,0.0,0.0,0.0,0.0,0.0,0.294199496508,-9.58109664917,-0.451105892658,0.0,0.0,0.0,0.0,0.0,0.0,0.0,0.0,0.0
1317881500,9120,1644543031775175571,1,0.0,0.0,0.0,0.0,0.0,0.0,0.0,0.0,0.0,0.0,0.0,0.0,0.0,0.0,0.0,0.0,0.0,0.0,0.0,0.0,0.0,0.0,0.0,0.0,0.0,0.264779537916,-9.64974308014,-0.402072638273,0.0,0.0,0.0,0.0,0.0,0.0,0.0,0.0,0.0
1319940300,9121,1644543031777192116,1,0.0,0.0,0.0,0.0,0.0,0.0,0.0,0.0,0.0,0.0,0.0,0.0,0.0,0.0,0.0,0.0,0.0,0.0,0.0,0.0,0.0,0.0,0.0,0.0,0.0,0.264779537916,-9.61051654816,-0.451105892658,0.0,0.0,0.0,0.0,0.0,0.0,0.0,0.0,0.0
1322073300,9122,1644543031779208660,1,0.0,0.0,0.0,0.0,0.0,0.0,0.0,0.0,0.0,0.0,0.0,0.0,0.0,0.0,0.0,0.0,0.0,0.0,0.0,0.0,0.0,0.0,0.0,0.0,0.0,0.245166242123,-9.61051654816,-0.451105892658,0.0,0.0,0.0,0.0,0.0,0.0,0.0,0.0,0.0
1324302900,9123,1644543031781225443,1,0.0,0.0,0.0,0.0,0.0,0.0,0.0,0.0,0.0,0.0,0.0,0.0,0.0,0.0,0.0,0.0,0.0,0.0,0.0,0.0,0.0,0.0,0.0,0.0,0.0,0.176519691944,-9.62032318115,-0.451105892658,0.0,0.0,0.0,0.0,0.0,0.0,0.0,0.0,0.0
1325990200,9124,1644543031783241749,1,0.0,0.0,0.0,0.0,0.0,0.0,0.0,0.0,0.0,0.0,0.0,0.0,0.0,0.0,0.0,0.0,0.0,0.0,0.0,0.0,0.0,0.0,0.0,0.0,0.0,0.225552946329,-9.58109664917,-0.451105892658,0.0,0.0,0.0,0.0,0.0,0.0,0.0,0.0,0.0
1328105500,9125,1644543031785258293,1,0.0,0.0,0.0,0.0,0.0,0.0,0.0,0.0,0.0,0.0,0.0,0.0,0.0,0.0,0.0,0.0,0.0,0.0,0.0,0.0,0.0,0.0,0.0,0.0,0.0,0.225552946329,-9.57129001617,-0.402072638273,0.0,0.0,0.0,0.0,0.0,0.0,0.0,0.0,0.0
1330076100,9126,1644543031787274837,1,0.0,0.0,0.0,0.0,0.0,0.0,0.0,0.0,0.0,0.0,0.0,0.0,0.0,0.0,0.0,0.0,0.0,0.0,0.0,0.0,0.0,0.0,0.0,0.0,0.0,0.196132987738,-9.62032318115,-0.451105892658,0.0,0.0,0.0,0.0,0.0,0.0,0.0,0.0,0.0
1331967000,9127,1644543031789293528,1,0.0,0.0,0.0,0.0,0.0,0.0,0.0,0.0,0.0,0.0,0.0,0.0,0.0,0.0,0.0,0.0,0.0,0.0,0.0,0.0,0.0,0.0,0.0,0.0,0.0,0.225552946329,-9.58109664917,-0.402072638273,0.0,0.0,0.0,0.0,0.0,0.0,0.0,0.0,0.0
1334276100,9128,1644543031791310072,1,0.0,0.0,0.0,0.0,0.0,0.0,0.0,0.0,0.0,0.0,0.0,0.0,0.0,0.0,0.0,0.0,0.0,0.0,0.0,0.0,0.0,0.0,0.0,0.0,0.0,0.245166242123,-9.58109664917,-0.402072638273,0.0,0.0,0.0,0.0,0.0,0.0,0.0,0.0,0.0
1336250200,9129,1644543031793326378,1,0.0,0.0,0.0,0.0,0.0,0.0,0.0,0.0,0.0,0.0,0.0,0.0,0.0,0.0,0.0,0.0,0.0,0.0,0.0,0.0,0.0,0.0,0.0,0.0,0.0,0.264779537916,-9.62032318115,-0.402072638273,0.0,0.0,0.0,0.0,0.0,0.0,0.0,0.0,0.0
1338565600,9130,1644543031795342922,1,0.0,0.0,0.0,0.0,0.0,0.0,0.0,0.0,0.0,0.0,0.0,0.0,0.0,0.0,0.0,0.0,0.0,0.0,0.0,0.0,0.0,0.0,0.0,0.0,0.0,0.196132987738,-9.61051654816,-0.451105892658,0.0,0.0,0.0,0.0,0.0,0.0,0.0,0.0,0.0
1340517900,9131,1644543031797359705,1,0.0,0.0,0.0,0.0,0.0,0.0,0.0,0.0,0.0,0.0,0.0,0.0,0.0,0.0,0.0,0.0,0.0,0.0,0.0,0.0,0.0,0.0,0.0,0.0,0.0,0.137293100357,-9.57129001617,-0.470719188452,0.0,0.0,0.0,0.0,0.0,0.0,0.0,0.0,0.0
1342426400,9132,1644543031799376249,1,0.0,0.0,0.0,0.0,0.0,0.0,0.0,0.0,0.0,0.0,0.0,0.0,0.0,0.0,0.0,0.0,0.0,0.0,0.0,0.0,0.0,0.0,0.0,0.0,0.0,0.166713044047,-9.57129001617,-0.421685934067,0.0,0.0,0.0,0.0,0.0,0.0,0.0,0.0,0.0
1344172200,9133,1644543031801394701,1,0.0,0.0,0.0,0.0,0.0,0.0,0.0,0.0,0.0,0.0,0.0,0.0,0.0,0.0,0.0,0.0,0.0,0.0,0.0,0.0,0.0,0.0,0.0,0.0,0.0,0.225552946329,-9.58109664917,-0.451105892658,0.0,0.0,0.0,0.0,0.0,0.0,0.0,0.0,0.0
1346410000,9134,1644543031803411484,1,0.0,0.0,0.0,0.0,0.0,0.0,0.0,0.0,0.0,0.0,0.0,0.0,0.0,0.0,0.0,0.0,0.0,0.0,0.0,0.0,0.0,0.0,0.0,0.0,0.0,0.176519691944,-9.61051654816,-0.421685934067,0.0,0.0,0.0,0.0,0.0,0.0,0.0,0.0,0.0
1348554700,9135,1644543031805427790,1,0.0,0.0,0.0,0.0,0.0,0.0,0.0,0.0,0.0,0.0,0.0,0.0,0.0,0.0,0.0,0.0,0.0,0.0,0.0,0.0,0.0,0.0,0.0,0.0,0.0,0.166713044047,-9.61051654816,-0.451105892658,0.0,0.0,0.0,0.0,0.0,0.0,0.0,0.0,0.0
1350783900,9136,1644543031807444334,1,0.0,0.0,0.0,0.0,0.0,0.0,0.0,0.0,0.0,0.0,0.0,0.0,0.0,0.0,0.0,0.0,0.0,0.0,0.0,0.0,0.0,0.0,0.0,0.0,0.0,0.245166242123,-9.62032318115,-0.38245934248,0.0,0.0,0.0,0.0,0.0,0.0,0.0,0.0,0.0
1352474700,9137,1644543031809460878,1,0.0,0.0,0.0,0.0,0.0,0.0,0.0,0.0,0.0,0.0,0.0,0.0,0.0,0.0,0.0,0.0,0.0,0.0,0.0,0.0,0.0,0.0,0.0,0.0,0.0,0.225552946329,-9.61051654816,-0.470719188452,0.0,0.0,0.0,0.0,0.0,0.0,0.0,0.0,0.0
1354406100,9138,1644543031811477423,1,0.0,0.0,0.0,0.0,0.0,0.0,0.0,0.0,0.0,0.0,0.0,0.0,0.0,0.0,0.0,0.0,0.0,0.0,0.0,0.0,0.0,0.0,0.0,0.0,0.0,0.12748645246,-9.48303031921,-0.558979034424,0.0,0.0,0.0,0.0,0.0,0.0,0.0,0.0,0.0
1356462800,9139,1644543031813494205,1,0.0,0.0,0.0,0.0,0.0,0.0,0.0,0.0,0.0,0.0,0.0,0.0,0.0,0.0,0.0,0.0,0.0,0.0,0.0,0.0,0.0,0.0,0.0,0.0,0.0,-0.0980664938688,-9.35554409027,-0.12748645246,0.0,0.0,0.0,0.0,0.0,0.0,0.0,0.0,0.0
1358450700,9140,1644543031815512657,1,0.0,0.0,0.0,0.0,0.0,0.0,0.0,0.0,0.0,0.0,0.0,0.0,0.0,0.0,0.0,0.0,0.0,0.0,0.0,0.0,0.0,0.0,0.0,0.0,0.0,0.843371868134,-10.0322027206,-0.470719188452,0.0,0.0,0.0,0.0,0.0,0.0,0.0,0.0,0.0
1360656100,9141,1644543031817528963,1,0.0,0.0,0.0,0.0,0.0,0.0,0.0,0.0,0.0,0.0,0.0,0.0,0.0,0.0,0.0,0.0,0.0,0.0,0.0,0.0,0.0,0.0,0.0,0.0,0.0,0.558979034424,-9.5222568512,-0.274586200714,0.0,0.0,0.0,0.0,0.0,0.0,0.0,0.0,0.0
1362662000,9142,1644543031819545746,1,0.0,0.0,0.0,0.0,0.0,0.0,0.0,0.0,0.0,0.0,0.0,0.0,0.0,0.0,0.0,0.0,0.0,0.0,0.0,0.0,0.0,0.0,0.0,0.0,0.0,0.264779537916,-9.56148338318,-0.294199496508,0.0,0.0,0.0,0.0,0.0,0.0,0.0,0.0,0.0
1364563700,9143,1644543031821562290,1,0.0,0.0,0.0,0.0,0.0,0.0,0.0,0.0,0.0,0.0,0.0,0.0,0.0,0.0,0.0,0.0,0.0,0.0,0.0,0.0,0.0,0.0,0.0,0.0,0.0,0.696272134781,-9.99297618866,-0.225552946329,0.0,0.0,0.0,0.0,0.0,0.0,0.0,0.0,0.0
1366521800,9144,1644543031823578835,1,0.0,0.0,0.0,0.0,0.0,0.0,0.0,0.0,0.0,0.0,0.0,0.0,0.0,0.0,0.0,0.0,0.0,0.0,0.0,0.0,0.0,0.0,0.0,0.0,0.0,0.882598459721,-9.86548995972,-0.470719188452,0.0,0.0,0.0,0.0,0.0,0.0,0.0,0.0,0.0
1368691900,9145,1644543031825595140,1,0.0,0.0,0.0,0.0,0.0,0.0,0.0,0.0,0.0,0.0,0.0,0.0,0.0,0.0,0.0,0.0,0.0,0.0,0.0,0.0,0.0,0.0,0.0,0.0,0.0,0.637432217598,-9.62032318115,-0.264779537916,0.0,0.0,0.0,0.0,0.0,0.0,0.0,0.0,0.0
1370662100,9146,1644543031827611923,1,0.0,0.0,0.0,0.0,0.0,0.0,0.0,0.0,0.0,0.0,0.0,0.0,0.0,0.0,0.0,0.0,0.0,0.0,0.0,0.0,0.0,0.0,0.0,0.0,0.0,0.509945809841,-9.81645679474,-0.362846046686,0.0,0.0,0.0,0.0,0.0,0.0,0.0,0.0,0.0
1372520600,9147,1644543031829628468,1,0.0,0.0,0.0,0.0,0.0,0.0,0.0,0.0,0.0,0.0,0.0,0.0,0.0,0.0,0.0,0.0,0.0,0.0,0.0,0.0,0.0,0.0,0.0,0.0,0.0,0.470719188452,-9.83607006073,-0.402072638273,0.0,0.0,0.0,0.0,0.0,0.0,0.0,0.0,0.0
1374412100,9148,1644543031831645012,1,0.0,0.0,0.0,0.0,0.0,0.0,0.0,0.0,0.0,0.0,0.0,0.0,0.0,0.0,0.0,0.0,0.0,0.0,0.0,0.0,0.0,0.0,0.0,0.0,0.0,0.264779537916,-9.5222568512,-0.402072638273,0.0,0.0,0.0,0.0,0.0,0.0,0.0,0.0,0.0
1376475800,9149,1644543031833661556,1,0.0,0.0,0.0,0.0,0.0,0.0,0.0,0.0,0.0,0.0,0.0,0.0,0.0,0.0,0.0,0.0,0.0,0.0,0.0,0.0,0.0,0.0,0.0,0.0,0.0,0.12748645246,-9.57129001617,-0.57859236002,0.0,0.0,0.0,0.0,0.0,0.0,0.0,0.0,0.0
1378477600,9150,1644543031835677862,1,0.0,0.0,0.0,0.0,0.0,0.0,0.0,0.0,0.0,0.0,0.0,0.0,0.0,0.0,0.0,0.0,0.0,0.0,0.0,0.0,0.0,0.0,0.0,0.0,0.0,-0.0294199492782,-9.66935634613,-0.598205626011,0.0,0.0,0.0,0.0,0.0,0.0,0.0,0.0,0.0
1380469300,9151,1644543031837694645,1,0.0,0.0,0.0,0.0,0.0,0.0,0.0,0.0,0.0,0.0,0.0,0.0,0.0,0.0,0.0,0.0,0.0,0.0,0.0,0.0,0.0,0.0,0.0,0.0,0.0,-0.225552946329,-9.42419052124,-0.666852176189,0.0,0.0,0.0,0.0,0.0,0.0,0.0,0.0,0.0
1382481500,9152,1644543031839711189,1,0.0,0.0,0.0,0.0,0.0,0.0,0.0,0.0,0.0,0.0,0.0,0.0,0.0,0.0,0.0,0.0,0.0,0.0,0.0,0.0,0.0,0.0,0.0,0.0,0.0,-0.421685934067,-9.25747776031,-0.735498726368,0.0,0.0,0.0,0.0,0.0,0.0,0.0,0.0,0.0
1384621600,9153,1644543031841727734,1,0.0,0.0,0.0,0.0,0.0,0.0,0.0,0.0,0.0,0.0,0.0,0.0,0.0,0.0,0.0,0.0,0.0,0.0,0.0,0.0,0.0,0.0,0.0,0.0,0.0,-0.38245934248,-9.53206348419,-0.764918684959,0.0,0.0,0.0,0.0,0.0,0.0,0.0,0.0,0.0
1386428100,9154,1644543031843744278,1,0.0,0.0,0.0,0.0,0.0,0.0,0.0,0.0,0.0,0.0,0.0,0.0,0.0,0.0,0.0,0.0,0.0,0.0,0.0,0.0,0.0,0.0,0.0,0.0,0.0,-0.402072638273,-9.57129001617,-0.764918684959,0.0,0.0,0.0,0.0,0.0,0.0,0.0,0.0,0.0
1388470600,9155,1644543031845760822,1,0.0,0.0,0.0,0.0,0.0,0.0,0.0,0.0,0.0,0.0,0.0,0.0,0.0,0.0,0.0,0.0,0.0,0.0,0.0,0.0,0.0,0.0,0.0,0.0,0.0,-0.402072638273,-9.17902374268,-0.686465501785,0.0,0.0,0.0,0.0,0.0,0.0,0.0,0.0,0.0
1390418000,9156,1644543031847777367,1,0.0,0.0,0.0,0.0,0.0,0.0,0.0,0.0,0.0,0.0,0.0,0.0,0.0,0.0,0.0,0.0,0.0,0.0,0.0,0.0,0.0,0.0,0.0,0.0,0.0,-0.166713044047,-9.39477062225,-0.686465501785,0.0,0.0,0.0,0.0,0.0,0.0,0.0,0.0,0.0
1392612000,9157,1644543031849793911,1,0.0,0.0,0.0,0.0,0.0,0.0,0.0,0.0,0.0,0.0,0.0,0.0,0.0,0.0,0.0,0.0,0.0,0.0,0.0,0.0,0.0,0.0,0.0,0.0,0.0,-0.0294199492782,-9.64974308014,-0.598205626011,0.0,0.0,0.0,0.0,0.0,0.0,0.0,0.0,0.0
1394559200,9158,1644543031851810455,1,0.0,0.0,0.0,0.0,0.0,0.0,0.0,0.0,0.0,0.0,0.0,0.0,0.0,0.0,0.0,0.0,0.0,0.0,0.0,0.0,0.0,0.0,0.0,0.0,0.0,-0.12748645246,-9.43399715424,-0.627625584602,0.0,0.0,0.0,0.0,0.0,0.0,0.0,0.0,0.0
1396592900,9159,1644543031853827000,1,0.0,0.0,0.0,0.0,0.0,0.0,0.0,0.0,0.0,0.0,0.0,0.0,0.0,0.0,0.0,0.0,0.0,0.0,0.0,0.0,0.0,0.0,0.0,0.0,0.0,-0.12748645246,-9.39477062225,-0.666852176189,0.0,0.0,0.0,0.0,0.0,0.0,0.0,0.0,0.0
1398540200,9160,1644543031855843544,1,0.0,0.0,0.0,0.0,0.0,0.0,0.0,0.0,0.0,0.0,0.0,0.0,0.0,0.0,0.0,0.0,0.0,0.0,0.0,0.0,0.0,0.0,0.0,0.0,0.0,0.0,-9.56148338318,-0.666852176189,0.0,0.0,0.0,0.0,0.0,0.0,0.0,0.0,0.0
1400798300,9161,1644543031857860088,1,0.0,0.0,0.0,0.0,0.0,0.0,0.0,0.0,0.0,0.0,0.0,0.0,0.0,0.0,0.0,0.0,0.0,0.0,0.0,0.0,0.0,0.0,0.0,0.0,0.0,-0.0392265990376,-9.57129001617,-0.57859236002,0.0,0.0,0.0,0.0,0.0,0.0,0.0,0.0,0.0
1402479000,9162,1644543031859878778,1,0.0,0.0,0.0,0.0,0.0,0.0,0.0,0.0,0.0,0.0,0.0,0.0,0.0,0.0,0.0,0.0,0.0,0.0,0.0,0.0,0.0,0.0,0.0,0.0,0.0,0.0686465501785,-9.43399715424,-0.549172401428,0.0,0.0,0.0,0.0,0.0,0.0,0.0,0.0,0.0
1404448400,9163,1644543031861895323,1,0.0,0.0,0.0,0.0,0.0,0.0,0.0,0.0,0.0,0.0,0.0,0.0,0.0,0.0,0.0,0.0,0.0,0.0,0.0,0.0,0.0,0.0,0.0,0.0,0.0,0.245166242123,-9.64974308014,-0.529559075832,0.0,0.0,0.0,0.0,0.0,0.0,0.0,0.0,0.0
1406453500,9164,1644543031863911867,1,0.0,0.0,0.0,0.0,0.0,0.0,0.0,0.0,0.0,0.0,0.0,0.0,0.0,0.0,0.0,0.0,0.0,0.0,0.0,0.0,0.0,0.0,0.0,0.0,0.0,0.294199496508,-9.61051654816,-0.490332484245,0.0,0.0,0.0,0.0,0.0,0.0,0.0,0.0,0.0
1408708400,9165,1644543031865930319,1,0.0,0.0,0.0,0.0,0.0,0.0,0.0,0.0,0.0,0.0,0.0,0.0,0.0,0.0,0.0,0.0,0.0,0.0,0.0,0.0,0.0,0.0,0.0,0.0,0.0,0.264779537916,-9.58109664917,-0.549172401428,0.0,0.0,0.0,0.0,0.0,0.0,0.0,0.0,0.0
1410785700,9166,1644543031867946863,1,0.0,0.0,0.0,0.0,0.0,0.0,0.0,0.0,0.0,0.0,0.0,0.0,0.0,0.0,0.0,0.0,0.0,0.0,0.0,0.0,0.0,0.0,0.0,0.0,0.0,0.196132987738,-9.57129001617,-0.558979034424,0.0,0.0,0.0,0.0,0.0,0.0,0.0,0.0,0.0
1412780400,9167,1644543031869963408,1,0.0,0.0,0.0,0.0,0.0,0.0,0.0,0.0,0.0,0.0,0.0,0.0,0.0,0.0,0.0,0.0,0.0,0.0,0.0,0.0,0.0,0.0,0.0,0.0,0.0,0.264779537916,-9.66935634613,-0.402072638273,0.0,0.0,0.0,0.0,0.0,0.0,0.0,0.0,0.0
1414696500,9168,1644543031871979952,1,0.0,0.0,0.0,0.0,0.0,0.0,0.0,0.0,0.0,0.0,0.0,0.0,0.0,0.0,0.0,0.0,0.0,0.0,0.0,0.0,0.0,0.0,0.0,0.0,0.0,0.274586200714,-9.58109664917,-0.57859236002,0.0,0.0,0.0,0.0,0.0,0.0,0.0,0.0,0.0
1416711100,9169,1644543031873996496,1,0.0,0.0,0.0,0.0,0.0,0.0,0.0,0.0,0.0,0.0,0.0,0.0,0.0,0.0,0.0,0.0,0.0,0.0,0.0,0.0,0.0,0.0,0.0,0.0,0.0,0.343232750893,-9.61051654816,-0.529559075832,0.0,0.0,0.0,0.0,0.0,0.0,0.0,0.0,0.0
1418648500,9170,1644543031876015186,1,0.0,0.0,0.0,0.0,0.0,0.0,0.0,0.0,0.0,0.0,0.0,0.0,0.0,0.0,0.0,0.0,0.0,0.0,0.0,0.0,0.0,0.0,0.0,0.0,0.0,0.362846046686,-9.66935634613,-0.402072638273,0.0,0.0,0.0,0.0,0.0,0.0,0.0,0.0,0.0
1420642700,9171,1644543031878031492,1,0.0,0.0,0.0,0.0,0.0,0.0,0.0,0.0,0.0,0.0,0.0,0.0,0.0,0.0,0.0,0.0,0.0,0.0,0.0,0.0,0.0,0.0,0.0,0.0,0.0,0.343232750893,-9.70858287811,-0.402072638273,0.0,0.0,0.0,0.0,0.0,0.0,0.0,0.0,0.0
1422689100,9172,1644543031880048037,1,0.0,0.0,0.0,0.0,0.0,0.0,0.0,0.0,0.0,0.0,0.0,0.0,0.0,0.0,0.0,0.0,0.0,0.0,0.0,0.0,0.0,0.0,0.0,0.0,0.0,0.343232750893,-9.71838951111,-0.402072638273,0.0,0.0,0.0,0.0,0.0,0.0,0.0,0.0,0.0
1424906300,9173,1644543031882064581,1,0.0,0.0,0.0,0.0,0.0,0.0,0.0,0.0,0.0,0.0,0.0,0.0,0.0,0.0,0.0,0.0,0.0,0.0,0.0,0.0,0.0,0.0,0.0,0.0,0.0,0.38245934248,-9.70858287811,-0.402072638273,0.0,0.0,0.0,0.0,0.0,0.0,0.0,0.0,0.0
1426802500,9174,1644543031884081364,1,0.0,0.0,0.0,0.0,0.0,0.0,0.0,0.0,0.0,0.0,0.0,0.0,0.0,0.0,0.0,0.0,0.0,0.0,0.0,0.0,0.0,0.0,0.0,0.0,0.0,0.362846046686,-9.66935634613,-0.451105892658,0.0,0.0,0.0,0.0,0.0,0.0,0.0,0.0,0.0
1428833700,9175,1644543031886097908,1,0.0,0.0,0.0,0.0,0.0,0.0,0.0,0.0,0.0,0.0,0.0,0.0,0.0,0.0,0.0,0.0,0.0,0.0,0.0,0.0,0.0,0.0,0.0,0.0,0.0,0.294199496508,-9.66935634613,-0.421685934067,0.0,0.0,0.0,0.0,0.0,0.0,0.0,0.0,0.0
1430837900,9176,1644543031888114214,1,0.0,0.0,0.0,0.0,0.0,0.0,0.0,0.0,0.0,0.0,0.0,0.0,0.0,0.0,0.0,0.0,0.0,0.0,0.0,0.0,0.0,0.0,0.0,0.0,0.0,0.245166242123,-9.67916297913,-0.490332484245,0.0,0.0,0.0,0.0,0.0,0.0,0.0,0.0,0.0
1432810000,9177,1644543031890130758,1,0.0,0.0,0.0,0.0,0.0,0.0,0.0,0.0,0.0,0.0,0.0,0.0,0.0,0.0,0.0,0.0,0.0,0.0,0.0,0.0,0.0,0.0,0.0,0.0,0.0,0.274586200714,-9.62032318115,-0.402072638273,0.0,0.0,0.0,0.0,0.0,0.0,0.0,0.0,0.0
1434772200,9178,1644543031892147541,1,0.0,0.0,0.0,0.0,0.0,0.0,0.0,0.0,0.0,0.0,0.0,0.0,0.0,0.0,0.0,0.0,0.0,0.0,0.0,0.0,0.0,0.0,0.0,0.0,0.0,0.274586200714,-9.61051654816,-0.451105892658,0.0,0.0,0.0,0.0,0.0,0.0,0.0,0.0,0.0
1436719700,9179,1644543031894164085,1,0.0,0.0,0.0,0.0,0.0,0.0,0.0,0.0,0.0,0.0,0.0,0.0,0.0,0.0,0.0,0.0,0.0,0.0,0.0,0.0,0.0,0.0,0.0,0.0,0.0,0.225552946329,-9.66935634613,-0.421685934067,0.0,0.0,0.0,0.0,0.0,0.0,0.0,0.0,0.0
1438705000,9180,1644543031896180391,1,0.0,0.0,0.0,0.0,0.0,0.0,0.0,0.0,0.0,0.0,0.0,0.0,0.0,0.0,0.0,0.0,0.0,0.0,0.0,0.0,0.0,0.0,0.0,0.0,0.0,0.225552946329,-9.62032318115,-0.402072638273,0.0,0.0,0.0,0.0,0.0,0.0,0.0,0.0,0.0
1440727900,9181,1644543031898196936,1,0.0,0.0,0.0,0.0,0.0,0.0,0.0,0.0,0.0,0.0,0.0,0.0,0.0,0.0,0.0,0.0,0.0,0.0,0.0,0.0,0.0,0.0,0.0,0.0,0.0,0.176519691944,-9.58109664917,-0.451105892658,0.0,0.0,0.0,0.0,0.0,0.0,0.0,0.0,0.0
1442996800,9182,1644543031900213718,1,0.0,0.0,0.0,0.0,0.0,0.0,0.0,0.0,0.0,0.0,0.0,0.0,0.0,0.0,0.0,0.0,0.0,0.0,0.0,0.0,0.0,0.0,0.0,0.0,0.0,0.196132987738,-9.58109664917,-0.402072638273,0.0,0.0,0.0,0.0,0.0,0.0,0.0,0.0,0.0
1445450300,9183,1644543031902230263,1,0.0,0.0,0.0,0.0,0.0,0.0,0.0,0.0,0.0,0.0,0.0,0.0,0.0,0.0,0.0,0.0,0.0,0.0,0.0,0.0,0.0,0.0,0.0,0.0,0.0,0.196132987738,-9.61051654816,-0.490332484245,0.0,0.0,0.0,0.0,0.0,0.0,0.0,0.0,0.0
1447004600,9184,1644543031904246807,1,0.0,0.0,0.0,0.0,0.0,0.0,0.0,0.0,0.0,0.0,0.0,0.0,0.0,0.0,0.0,0.0,0.0,0.0,0.0,0.0,0.0,0.0,0.0,0.0,0.0,0.176519691944,-9.57129001617,-0.490332484245,0.0,0.0,0.0,0.0,0.0,0.0,0.0,0.0,0.0
1449125600,9185,1644543031906265497,1,0.0,0.0,0.0,0.0,0.0,0.0,0.0,0.0,0.0,0.0,0.0,0.0,0.0,0.0,0.0,0.0,0.0,0.0,0.0,0.0,0.0,0.0,0.0,0.0,0.0,0.196132987738,-9.61051654816,-0.402072638273,0.0,0.0,0.0,0.0,0.0,0.0,0.0,0.0,0.0
1451284400,9186,1644543031908281803,1,0.0,0.0,0.0,0.0,0.0,0.0,0.0,0.0,0.0,0.0,0.0,0.0,0.0,0.0,0.0,0.0,0.0,0.0,0.0,0.0,0.0,0.0,0.0,0.0,0.0,0.196132987738,-9.58109664917,-0.451105892658,0.0,0.0,0.0,0.0,0.0,0.0,0.0,0.0,0.0
1453166000,9187,1644543031910296440,1,0.0,0.0,0.0,0.0,0.0,0.0,0.0,0.0,0.0,0.0,0.0,0.0,0.0,0.0,0.0,0.0,0.0,0.0,0.0,0.0,0.0,0.0,0.0,0.0,0.0,0.176519691944,-9.58109664917,-0.402072638273,0.0,0.0,0.0,0.0,0.0,0.0,0.0,0.0,0.0
1455234000,9188,1644543031912312984,1,0.0,0.0,0.0,0.0,0.0,0.0,0.0,0.0,0.0,0.0,0.0,0.0,0.0,0.0,0.0,0.0,0.0,0.0,0.0,0.0,0.0,0.0,0.0,0.0,0.0,0.176519691944,-9.57129001617,-0.490332484245,0.0,0.0,0.0,0.0,0.0,0.0,0.0,0.0,0.0
1457295500,9189,1644543031914329529,1,0.0,0.0,0.0,0.0,0.0,0.0,0.0,0.0,0.0,0.0,0.0,0.0,0.0,0.0,0.0,0.0,0.0,0.0,0.0,0.0,0.0,0.0,0.0,0.0,0.0,0.176519691944,-9.58109664917,-0.490332484245,0.0,0.0,0.0,0.0,0.0,0.0,0.0,0.0,0.0
1459652400,9190,1644543031916345835,1,0.0,0.0,0.0,0.0,0.0,0.0,0.0,0.0,0.0,0.0,0.0,0.0,0.0,0.0,0.0,0.0,0.0,0.0,0.0,0.0,0.0,0.0,0.0,0.0,0.0,0.12748645246,-9.61051654816,-0.451105892658,0.0,0.0,0.0,0.0,0.0,0.0,0.0,0.0,0.0
1461883600,9191,1644543031918364525,1,0.0,0.0,0.0,0.0,0.0,0.0,0.0,0.0,0.0,0.0,0.0,0.0,0.0,0.0,0.0,0.0,0.0,0.0,0.0,0.0,0.0,0.0,0.0,0.0,0.0,0.0980664938688,-9.58109664917,-0.470719188452,0.0,0.0,0.0,0.0,0.0,0.0,0.0,0.0,0.0
1463306100,9192,1644543031920379162,1,0.0,0.0,0.0,0.0,0.0,0.0,0.0,0.0,0.0,0.0,0.0,0.0,0.0,0.0,0.0,0.0,0.0,0.0,0.0,0.0,0.0,0.0,0.0,0.0,0.0,0.137293100357,-9.62032318115,-0.490332484245,0.0,0.0,0.0,0.0,0.0,0.0,0.0,0.0,0.0
1465534900,9193,1644543031922397614,1,0.0,0.0,0.0,0.0,0.0,0.0,0.0,0.0,0.0,0.0,0.0,0.0,0.0,0.0,0.0,0.0,0.0,0.0,0.0,0.0,0.0,0.0,0.0,0.0,0.0,0.12748645246,-9.58109664917,-0.421685934067,0.0,0.0,0.0,0.0,0.0,0.0,0.0,0.0,0.0
1467280700,9194,1644543031924414396,1,0.0,0.0,0.0,0.0,0.0,0.0,0.0,0.0,0.0,0.0,0.0,0.0,0.0,0.0,0.0,0.0,0.0,0.0,0.0,0.0,0.0,0.0,0.0,0.0,0.0,0.166713044047,-9.57129001617,-0.470719188452,0.0,0.0,0.0,0.0,0.0,0.0,0.0,0.0,0.0
1469260200,9195,1644543031926430702,1,0.0,0.0,0.0,0.0,0.0,0.0,0.0,0.0,0.0,0.0,0.0,0.0,0.0,0.0,0.0,0.0,0.0,0.0,0.0,0.0,0.0,0.0,0.0,0.0,0.0,0.137293100357,-9.61051654816,-0.451105892658,0.0,0.0,0.0,0.0,0.0,0.0,0.0,0.0,0.0
1471272500,9196,1644543031928447247,1,0.0,0.0,0.0,0.0,0.0,0.0,0.0,0.0,0.0,0.0,0.0,0.0,0.0,0.0,0.0,0.0,0.0,0.0,0.0,0.0,0.0,0.0,0.0,0.0,0.0,0.0980664938688,-9.56148338318,-0.451105892658,0.0,0.0,0.0,0.0,0.0,0.0,0.0,0.0,0.0
1473236700,9197,1644543031930463791,1,0.0,0.0,0.0,0.0,0.0,0.0,0.0,0.0,0.0,0.0,0.0,0.0,0.0,0.0,0.0,0.0,0.0,0.0,0.0,0.0,0.0,0.0,0.0,0.0,0.0,0.176519691944,-9.57129001617,-0.470719188452,0.0,0.0,0.0,0.0,0.0,0.0,0.0,0.0,0.0
1475173800,9198,1644543031932480574,1,0.0,0.0,0.0,0.0,0.0,0.0,0.0,0.0,0.0,0.0,0.0,0.0,0.0,0.0,0.0,0.0,0.0,0.0,0.0,0.0,0.0,0.0,0.0,0.0,0.0,0.264779537916,-9.62032318115,-0.451105892658,0.0,0.0,0.0,0.0,0.0,0.0,0.0,0.0,0.0
1477166500,9199,1644543031934496880,1,0.0,0.0,0.0,0.0,0.0,0.0,0.0,0.0,0.0,0.0,0.0,0.0,0.0,0.0,0.0,0.0,0.0,0.0,0.0,0.0,0.0,0.0,0.0,0.0,0.0,0.313812792301,-9.62032318115,-0.421685934067,0.0,0.0,0.0,0.0,0.0,0.0,0.0,0.0,0.0
1479194500,9200,1644543031936513424,1,0.0,0.0,0.0,0.0,0.0,0.0,0.0,0.0,0.0,0.0,0.0,0.0,0.0,0.0,0.0,0.0,0.0,0.0,0.0,0.0,0.0,0.0,0.0,0.0,0.0,0.313812792301,-9.62032318115,-0.38245934248,0.0,0.0,0.0,0.0,0.0,0.0,0.0,0.0,0.0
1481158300,9201,1644543031938529968,1,0.0,0.0,0.0,0.0,0.0,0.0,0.0,0.0,0.0,0.0,0.0,0.0,0.0,0.0,0.0,0.0,0.0,0.0,0.0,0.0,0.0,0.0,0.0,0.0,0.0,0.313812792301,-9.64974308014,-0.38245934248,0.0,0.0,0.0,0.0,0.0,0.0,0.0,0.0,0.0
1483245900,9202,1644543031940546513,1,0.0,0.0,0.0,0.0,0.0,0.0,0.0,0.0,0.0,0.0,0.0,0.0,0.0,0.0,0.0,0.0,0.0,0.0,0.0,0.0,0.0,0.0,0.0,0.0,0.0,0.402072638273,-9.71838951111,-0.362846046686,0.0,0.0,0.0,0.0,0.0,0.0,0.0,0.0,0.0
1485177400,9203,1644543031942563295,1,0.0,0.0,0.0,0.0,0.0,0.0,0.0,0.0,0.0,0.0,0.0,0.0,0.0,0.0,0.0,0.0,0.0,0.0,0.0,0.0,0.0,0.0,0.0,0.0,0.0,0.402072638273,-9.67916297913,-0.402072638273,0.0,0.0,0.0,0.0,0.0,0.0,0.0,0.0,0.0
1487142200,9204,1644543031944579601,1,0.0,0.0,0.0,0.0,0.0,0.0,0.0,0.0,0.0,0.0,0.0,0.0,0.0,0.0,0.0,0.0,0.0,0.0,0.0,0.0,0.0,0.0,0.0,0.0,0.0,0.451105892658,-9.70858287811,-0.362846046686,0.0,0.0,0.0,0.0,0.0,0.0,0.0,0.0,0.0
1489327600,9205,1644543031946594238,1,0.0,0.0,0.0,0.0,0.0,0.0,0.0,0.0,0.0,0.0,0.0,0.0,0.0,0.0,0.0,0.0,0.0,0.0,0.0,0.0,0.0,0.0,0.0,0.0,0.0,0.490332484245,-9.71838951111,-0.313812792301,0.0,0.0,0.0,0.0,0.0,0.0,0.0,0.0,0.0
1491858900,9206,1644543031948610783,1,0.0,0.0,0.0,0.0,0.0,0.0,0.0,0.0,0.0,0.0,0.0,0.0,0.0,0.0,0.0,0.0,0.0,0.0,0.0,0.0,0.0,0.0,0.0,0.0,0.0,0.421685934067,-9.67916297913,-0.402072638273,0.0,0.0,0.0,0.0,0.0,0.0,0.0,0.0,0.0
1493242700,9207,1644543031950627327,1,0.0,0.0,0.0,0.0,0.0,0.0,0.0,0.0,0.0,0.0,0.0,0.0,0.0,0.0,0.0,0.0,0.0,0.0,0.0,0.0,0.0,0.0,0.0,0.0,0.0,0.451105892658,-9.70858287811,-0.343232750893,0.0,0.0,0.0,0.0,0.0,0.0,0.0,0.0,0.0
1495232200,9208,1644543031952643871,1,0.0,0.0,0.0,0.0,0.0,0.0,0.0,0.0,0.0,0.0,0.0,0.0,0.0,0.0,0.0,0.0,0.0,0.0,0.0,0.0,0.0,0.0,0.0,0.0,0.0,0.421685934067,-9.7478094101,-0.402072638273,0.0,0.0,0.0,0.0,0.0,0.0,0.0,0.0,0.0
1497141400,9209,1644543031954660416,1,0.0,0.0,0.0,0.0,0.0,0.0,0.0,0.0,0.0,0.0,0.0,0.0,0.0,0.0,0.0,0.0,0.0,0.0,0.0,0.0,0.0,0.0,0.0,0.0,0.0,0.421685934067,-9.70858287811,-0.294199496508,0.0,0.0,0.0,0.0,0.0,0.0,0.0,0.0,0.0
1499319900,9210,1644543031956676960,1,0.0,0.0,0.0,0.0,0.0,0.0,0.0,0.0,0.0,0.0,0.0,0.0,0.0,0.0,0.0,0.0,0.0,0.0,0.0,0.0,0.0,0.0,0.0,0.0,0.0,0.402072638273,-9.71838951111,-0.294199496508,0.0,0.0,0.0,0.0,0.0,0.0,0.0,0.0,0.0
1501184800,9211,1644543031958693504,1,0.0,0.0,0.0,0.0,0.0,0.0,0.0,0.0,0.0,0.0,0.0,0.0,0.0,0.0,0.0,0.0,0.0,0.0,0.0,0.0,0.0,0.0,0.0,0.0,0.0,0.421685934067,-9.75761604309,-0.38245934248,0.0,0.0,0.0,0.0,0.0,0.0,0.0,0.0,0.0
1503144100,9212,1644543031960710049,1,0.0,0.0,0.0,0.0,0.0,0.0,0.0,0.0,0.0,0.0,0.0,0.0,0.0,0.0,0.0,0.0,0.0,0.0,0.0,0.0,0.0,0.0,0.0,0.0,0.0,0.402072638273,-9.67916297913,-0.362846046686,0.0,0.0,0.0,0.0,0.0,0.0,0.0,0.0,0.0
1505248500,9213,1644543031962726593,1,0.0,0.0,0.0,0.0,0.0,0.0,0.0,0.0,0.0,0.0,0.0,0.0,0.0,0.0,0.0,0.0,0.0,0.0,0.0,0.0,0.0,0.0,0.0,0.0,0.0,0.362846046686,-9.62032318115,-0.402072638273,0.0,0.0,0.0,0.0,0.0,0.0,0.0,0.0,0.0
1507183600,9214,1644543031964743137,1,0.0,0.0,0.0,0.0,0.0,0.0,0.0,0.0,0.0,0.0,0.0,0.0,0.0,0.0,0.0,0.0,0.0,0.0,0.0,0.0,0.0,0.0,0.0,0.0,0.0,0.245166242123,-9.66935634613,-0.490332484245,0.0,0.0,0.0,0.0,0.0,0.0,0.0,0.0,0.0
1509254000,9215,1644543031966759682,1,0.0,0.0,0.0,0.0,0.0,0.0,0.0,0.0,0.0,0.0,0.0,0.0,0.0,0.0,0.0,0.0,0.0,0.0,0.0,0.0,0.0,0.0,0.0,0.0,0.0,0.245166242123,-9.66935634613,-0.451105892658,0.0,0.0,0.0,0.0,0.0,0.0,0.0,0.0,0.0
1511166000,9216,1644543031968776226,1,0.0,0.0,0.0,0.0,0.0,0.0,0.0,0.0,0.0,0.0,0.0,0.0,0.0,0.0,0.0,0.0,0.0,0.0,0.0,0.0,0.0,0.0,0.0,0.0,0.0,0.176519691944,-9.58109664917,-0.402072638273,0.0,0.0,0.0,0.0,0.0,0.0,0.0,0.0,0.0
1513139300,9217,1644543031970792770,1,0.0,0.0,0.0,0.0,0.0,0.0,0.0,0.0,0.0,0.0,0.0,0.0,0.0,0.0,0.0,0.0,0.0,0.0,0.0,0.0,0.0,0.0,0.0,0.0,0.0,0.12748645246,-9.61051654816,-0.421685934067,0.0,0.0,0.0,0.0,0.0,0.0,0.0,0.0,0.0
1515285900,9218,1644543031972807407,1,0.0,0.0,0.0,0.0,0.0,0.0,0.0,0.0,0.0,0.0,0.0,0.0,0.0,0.0,0.0,0.0,0.0,0.0,0.0,0.0,0.0,0.0,0.0,0.0,0.0,0.0686465501785,-9.57129001617,-0.509945809841,0.0,0.0,0.0,0.0,0.0,0.0,0.0,0.0,0.0
1517482300,9219,1644543031974823952,1,0.0,0.0,0.0,0.0,0.0,0.0,0.0,0.0,0.0,0.0,0.0,0.0,0.0,0.0,0.0,0.0,0.0,0.0,0.0,0.0,0.0,0.0,0.0,0.0,0.0,0.0392265990376,-9.56148338318,-0.529559075832,0.0,0.0,0.0,0.0,0.0,0.0,0.0,0.0,0.0
1519511500,9220,1644543031976840258,1,0.0,0.0,0.0,0.0,0.0,0.0,0.0,0.0,0.0,0.0,0.0,0.0,0.0,0.0,0.0,0.0,0.0,0.0,0.0,0.0,0.0,0.0,0.0,0.0,0.0,-0.0294199492782,-9.53206348419,-0.549172401428,0.0,0.0,0.0,0.0,0.0,0.0,0.0,0.0,0.0
1521887300,9221,1644543031978857040,1,0.0,0.0,0.0,0.0,0.0,0.0,0.0,0.0,0.0,0.0,0.0,0.0,0.0,0.0,0.0,0.0,0.0,0.0,0.0,0.0,0.0,0.0,0.0,0.0,0.0,-0.0686465501785,-9.57129001617,-0.57859236002,0.0,0.0,0.0,0.0,0.0,0.0,0.0,0.0,0.0
1523519200,9222,1644543031980871677,1,0.0,0.0,0.0,0.0,0.0,0.0,0.0,0.0,0.0,0.0,0.0,0.0,0.0,0.0,0.0,0.0,0.0,0.0,0.0,0.0,0.0,0.0,0.0,0.0,0.0,-1.39254426956,-8.42391204834,-1.86326348782,0.0,0.0,0.0,0.0,0.0,0.0,0.0,0.0,0.0
1525508900,9223,1644543031982890129,1,0.0,0.0,0.0,0.0,0.0,0.0,0.0,0.0,0.0,0.0,0.0,0.0,0.0,0.0,0.0,0.0,0.0,0.0,0.0,0.0,0.0,0.0,0.0,0.0,0.0,-2.02997660637,-8.45333194733,0.0980664938688,0.0,0.0,0.0,0.0,0.0,0.0,0.0,0.0,0.0
1527442100,9224,1644543031984906435,1,0.0,0.0,0.0,0.0,0.0,0.0,0.0,0.0,0.0,0.0,0.0,0.0,0.0,0.0,0.0,0.0,0.0,0.0,0.0,0.0,0.0,0.0,0.0,0.0,0.0,0.166713044047,-11.0128679276,-0.961051702499,0.0,0.0,0.0,0.0,0.0,0.0,0.0,0.0,0.0
1529557200,9225,1644543031986922979,1,0.0,0.0,0.0,0.0,0.0,0.0,0.0,0.0,0.0,0.0,0.0,0.0,0.0,0.0,0.0,0.0,0.0,0.0,0.0,0.0,0.0,0.0,0.0,0.0,0.0,0.0294199492782,-8.62985134125,-0.313812792301,0.0,0.0,0.0,0.0,0.0,0.0,0.0,0.0,0.0
1531509800,9226,1644543031988939762,1,0.0,0.0,0.0,0.0,0.0,0.0,0.0,0.0,0.0,0.0,0.0,0.0,0.0,0.0,0.0,0.0,0.0,0.0,0.0,0.0,0.0,0.0,0.0,0.0,0.0,0.990471601486,-9.53206348419,-0.666852176189,0.0,0.0,0.0,0.0,0.0,0.0,0.0,0.0,0.0
1533438100,9227,1644543031990956306,1,0.0,0.0,0.0,0.0,0.0,0.0,0.0,0.0,0.0,0.0,0.0,0.0,0.0,0.0,0.0,0.0,0.0,0.0,0.0,0.0,0.0,0.0,0.0,0.0,0.0,-0.176519691944,-10.3165950775,-0.245166242123,0.0,0.0,0.0,0.0,0.0,0.0,0.0,0.0,0.0
1535433900,9228,1644543031992972851,1,0.0,0.0,0.0,0.0,0.0,0.0,0.0,0.0,0.0,0.0,0.0,0.0,0.0,0.0,0.0,0.0,0.0,0.0,0.0,0.0,0.0,0.0,0.0,0.0,0.0,-0.882598459721,-8.95347118378,-0.490332484245,0.0,0.0,0.0,0.0,0.0,0.0,0.0,0.0,0.0
1537465000,9229,1644543031994989157,1,0.0,0.0,0.0,0.0,0.0,0.0,0.0,0.0,0.0,0.0,0.0,0.0,0.0,0.0,0.0,0.0,0.0,0.0,0.0,0.0,0.0,0.0,0.0,0.0,0.0,0.833565235138,-9.81645679474,-0.558979034424,0.0,0.0,0.0,0.0,0.0,0.0,0.0,0.0,0.0
1539445400,9230,1644543031997005939,1,0.0,0.0,0.0,0.0,0.0,0.0,0.0,0.0,0.0,0.0,0.0,0.0,0.0,0.0,0.0,0.0,0.0,0.0,0.0,0.0,0.0,0.0,0.0,0.0,0.0,0.38245934248,-9.88510322571,-0.451105892658,0.0,0.0,0.0,0.0,0.0,0.0,0.0,0.0,0.0
1541420000,9231,1644543031999022484,1,0.0,0.0,0.0,0.0,0.0,0.0,0.0,0.0,0.0,0.0,0.0,0.0,0.0,0.0,0.0,0.0,0.0,0.0,0.0,0.0,0.0,0.0,0.0,0.0,0.0,0.137293100357,-9.42419052124,-0.509945809841,0.0,0.0,0.0,0.0,0.0,0.0,0.0,0.0,0.0
1543475400,9232,1644543032001039028,1,0.0,0.0,0.0,0.0,0.0,0.0,0.0,0.0,0.0,0.0,0.0,0.0,0.0,0.0,0.0,0.0,0.0,0.0,0.0,0.0,0.0,0.0,0.0,0.0,0.0,-0.0392265990376,-9.61051654816,-0.735498726368,0.0,0.0,0.0,0.0,0.0,0.0,0.0,0.0,0.0
1545418300,9233,1644543032003055334,1,0.0,0.0,0.0,0.0,0.0,0.0,0.0,0.0,0.0,0.0,0.0,0.0,0.0,0.0,0.0,0.0,0.0,0.0,0.0,0.0,0.0,0.0,0.0,0.0,0.0,-0.196132987738,-9.64974308014,-0.470719188452,0.0,0.0,0.0,0.0,0.0,0.0,0.0,0.0,0.0
1547446000,9234,1644543032005072117,1,0.0,0.0,0.0,0.0,0.0,0.0,0.0,0.0,0.0,0.0,0.0,0.0,0.0,0.0,0.0,0.0,0.0,0.0,0.0,0.0,0.0,0.0,0.0,0.0,0.0,0.343232750893,-9.53206348419,-0.529559075832,0.0,0.0,0.0,0.0,0.0,0.0,0.0,0.0,0.0
1549426900,9235,1644543032007090569,1,0.0,0.0,0.0,0.0,0.0,0.0,0.0,0.0,0.0,0.0,0.0,0.0,0.0,0.0,0.0,0.0,0.0,0.0,0.0,0.0,0.0,0.0,0.0,0.0,0.0,0.274586200714,-9.58109664917,-0.549172401428,0.0,0.0,0.0,0.0,0.0,0.0,0.0,0.0,0.0
1551777400,9236,1644543032009105206,1,0.0,0.0,0.0,0.0,0.0,0.0,0.0,0.0,0.0,0.0,0.0,0.0,0.0,0.0,0.0,0.0,0.0,0.0,0.0,0.0,0.0,0.0,0.0,0.0,0.0,-0.0980664938688,-9.64974308014,-0.637432217598,0.0,0.0,0.0,0.0,0.0,0.0,0.0,0.0,0.0
1554179100,9237,1644543032011123896,1,0.0,0.0,0.0,0.0,0.0,0.0,0.0,0.0,0.0,0.0,0.0,0.0,0.0,0.0,0.0,0.0,0.0,0.0,0.0,0.0,0.0,0.0,0.0,0.0,0.0,0.225552946329,-9.58109664917,-0.558979034424,0.0,0.0,0.0,0.0,0.0,0.0,0.0,0.0,0.0
1556250500,9238,1644543032013140440,1,0.0,0.0,0.0,0.0,0.0,0.0,0.0,0.0,0.0,0.0,0.0,0.0,0.0,0.0,0.0,0.0,0.0,0.0,0.0,0.0,0.0,0.0,0.0,0.0,0.0,0.38245934248,-9.61051654816,-0.666852176189,0.0,0.0,0.0,0.0,0.0,0.0,0.0,0.0,0.0
1558008700,9239,1644543032015154839,1,0.0,0.0,0.0,0.0,0.0,0.0,0.0,0.0,0.0,0.0,0.0,0.0,0.0,0.0,0.0,0.0,0.0,0.0,0.0,0.0,0.0,0.0,0.0,0.0,0.0,-0.0294199492782,-9.62032318115,-0.402072638273,0.0,0.0,0.0,0.0,0.0,0.0,0.0,0.0,0.0
1559752500,9240,1644543032017173290,1,0.0,0.0,0.0,0.0,0.0,0.0,0.0,0.0,0.0,0.0,0.0,0.0,0.0,0.0,0.0,0.0,0.0,0.0,0.0,0.0,0.0,0.0,0.0,0.0,0.0,0.176519691944,-9.66935634613,-0.598205626011,0.0,0.0,0.0,0.0,0.0,0.0,0.0,0.0,0.0
1561964600,9241,1644543032019189835,1,0.0,0.0,0.0,0.0,0.0,0.0,0.0,0.0,0.0,0.0,0.0,0.0,0.0,0.0,0.0,0.0,0.0,0.0,0.0,0.0,0.0,0.0,0.0,0.0,0.0,0.166713044047,-9.57129001617,-0.627625584602,0.0,0.0,0.0,0.0,0.0,0.0,0.0,0.0,0.0
1564000200,9242,1644543032021204233,1,0.0,0.0,0.0,0.0,0.0,0.0,0.0,0.0,0.0,0.0,0.0,0.0,0.0,0.0,0.0,0.0,0.0,0.0,0.0,0.0,0.0,0.0,0.0,0.0,0.0,0.00980664975941,-9.66935634613,-0.696272134781,0.0,0.0,0.0,0.0,0.0,0.0,0.0,0.0,0.0
1565988600,9243,1644543032023222923,1,0.0,0.0,0.0,0.0,0.0,0.0,0.0,0.0,0.0,0.0,0.0,0.0,0.0,0.0,0.0,0.0,0.0,0.0,0.0,0.0,0.0,0.0,0.0,0.0,0.0,0.0980664938688,-9.56148338318,-0.637432217598,0.0,0.0,0.0,0.0,0.0,0.0,0.0,0.0,0.0
1568032900,9244,1644543032025239468,1,0.0,0.0,0.0,0.0,0.0,0.0,0.0,0.0,0.0,0.0,0.0,0.0,0.0,0.0,0.0,0.0,0.0,0.0,0.0,0.0,0.0,0.0,0.0,0.0,0.0,0.225552946329,-9.64974308014,-0.696272134781,0.0,0.0,0.0,0.0,0.0,0.0,0.0,0.0,0.0
1569967900,9245,1644543032027256012,1,0.0,0.0,0.0,0.0,0.0,0.0,0.0,0.0,0.0,0.0,0.0,0.0,0.0,0.0,0.0,0.0,0.0,0.0,0.0,0.0,0.0,0.0,0.0,0.0,0.0,0.0686465501785,-9.62032318115,-0.558979034424,0.0,0.0,0.0,0.0,0.0,0.0,0.0,0.0,0.0
1572070800,9246,1644543032029272795,1,0.0,0.0,0.0,0.0,0.0,0.0,0.0,0.0,0.0,0.0,0.0,0.0,0.0,0.0,0.0,0.0,0.0,0.0,0.0,0.0,0.0,0.0,0.0,0.0,0.0,0.176519691944,-9.61051654816,-0.686465501785,0.0,0.0,0.0,0.0,0.0,0.0,0.0,0.0,0.0
1573927600,9247,1644543032031289101,1,0.0,0.0,0.0,0.0,0.0,0.0,0.0,0.0,0.0,0.0,0.0,0.0,0.0,0.0,0.0,0.0,0.0,0.0,0.0,0.0,0.0,0.0,0.0,0.0,0.0,0.137293100357,-9.58109664917,-0.549172401428,0.0,0.0,0.0,0.0,0.0,0.0,0.0,0.0,0.0
1575931700,9248,1644543032033305645,1,0.0,0.0,0.0,0.0,0.0,0.0,0.0,0.0,0.0,0.0,0.0,0.0,0.0,0.0,0.0,0.0,0.0,0.0,0.0,0.0,0.0,0.0,0.0,0.0,0.0,0.137293100357,-9.64974308014,-0.558979034424,0.0,0.0,0.0,0.0,0.0,0.0,0.0,0.0,0.0
1577961800,9249,1644543032035322189,1,0.0,0.0,0.0,0.0,0.0,0.0,0.0,0.0,0.0,0.0,0.0,0.0,0.0,0.0,0.0,0.0,0.0,0.0,0.0,0.0,0.0,0.0,0.0,0.0,0.0,0.0784531980753,-9.56148338318,-0.637432217598,0.0,0.0,0.0,0.0,0.0,0.0,0.0,0.0,0.0
1579983700,9250,1644543032037338972,1,0.0,0.0,0.0,0.0,0.0,0.0,0.0,0.0,0.0,0.0,0.0,0.0,0.0,0.0,0.0,0.0,0.0,0.0,0.0,0.0,0.0,0.0,0.0,0.0,0.0,0.0784531980753,-9.53206348419,-0.666852176189,0.0,0.0,0.0,0.0,0.0,0.0,0.0,0.0,0.0
1582019500,9251,1644543032039355516,1,0.0,0.0,0.0,0.0,0.0,0.0,0.0,0.0,0.0,0.0,0.0,0.0,0.0,0.0,0.0,0.0,0.0,0.0,0.0,0.0,0.0,0.0,0.0,0.0,0.0,0.137293100357,-9.61051654816,-0.549172401428,0.0,0.0,0.0,0.0,0.0,0.0,0.0,0.0,0.0
1583972500,9252,1644543032041371822,1,0.0,0.0,0.0,0.0,0.0,0.0,0.0,0.0,0.0,0.0,0.0,0.0,0.0,0.0,0.0,0.0,0.0,0.0,0.0,0.0,0.0,0.0,0.0,0.0,0.0,0.0784531980753,-9.58109664917,-0.549172401428,0.0,0.0,0.0,0.0,0.0,0.0,0.0,0.0,0.0
1585888200,9253,1644543032043388367,1,0.0,0.0,0.0,0.0,0.0,0.0,0.0,0.0,0.0,0.0,0.0,0.0,0.0,0.0,0.0,0.0,0.0,0.0,0.0,0.0,0.0,0.0,0.0,0.0,0.0,0.0392265990376,-9.57129001617,-0.598205626011,0.0,0.0,0.0,0.0,0.0,0.0,0.0,0.0,0.0
1587901500,9254,1644543032045404911,1,0.0,0.0,0.0,0.0,0.0,0.0,0.0,0.0,0.0,0.0,0.0,0.0,0.0,0.0,0.0,0.0,0.0,0.0,0.0,0.0,0.0,0.0,0.0,0.0,0.0,0.0392265990376,-9.57129001617,-0.470719188452,0.0,0.0,0.0,0.0,0.0,0.0,0.0,0.0,0.0
1589919200,9255,1644543032047421694,1,0.0,0.0,0.0,0.0,0.0,0.0,0.0,0.0,0.0,0.0,0.0,0.0,0.0,0.0,0.0,0.0,0.0,0.0,0.0,0.0,0.0,0.0,0.0,0.0,0.0,0.0980664938688,-9.61051654816,-0.598205626011,0.0,0.0,0.0,0.0,0.0,0.0,0.0,0.0,0.0
1591911600,9256,1644543032049438000,1,0.0,0.0,0.0,0.0,0.0,0.0,0.0,0.0,0.0,0.0,0.0,0.0,0.0,0.0,0.0,0.0,0.0,0.0,0.0,0.0,0.0,0.0,0.0,0.0,0.0,0.0784531980753,-9.57129001617,-0.490332484245,0.0,0.0,0.0,0.0,0.0,0.0,0.0,0.0,0.0
1593891400,9257,1644543032051454544,1,0.0,0.0,0.0,0.0,0.0,0.0,0.0,0.0,0.0,0.0,0.0,0.0,0.0,0.0,0.0,0.0,0.0,0.0,0.0,0.0,0.0,0.0,0.0,0.0,0.0,0.0294199492782,-9.53206348419,-0.421685934067,0.0,0.0,0.0,0.0,0.0,0.0,0.0,0.0,0.0
1595930500,9258,1644543032053471088,1,0.0,0.0,0.0,0.0,0.0,0.0,0.0,0.0,0.0,0.0,0.0,0.0,0.0,0.0,0.0,0.0,0.0,0.0,0.0,0.0,0.0,0.0,0.0,0.0,0.0,0.0686465501785,-9.61051654816,-0.549172401428,0.0,0.0,0.0,0.0,0.0,0.0,0.0,0.0,0.0
1598059500,9259,1644543032055487871,1,0.0,0.0,0.0,0.0,0.0,0.0,0.0,0.0,0.0,0.0,0.0,0.0,0.0,0.0,0.0,0.0,0.0,0.0,0.0,0.0,0.0,0.0,0.0,0.0,0.0,0.12748645246,-9.64974308014,-0.558979034424,0.0,0.0,0.0,0.0,0.0,0.0,0.0,0.0,0.0
1600453700,9260,1644543032057504177,1,0.0,0.0,0.0,0.0,0.0,0.0,0.0,0.0,0.0,0.0,0.0,0.0,0.0,0.0,0.0,0.0,0.0,0.0,0.0,0.0,0.0,0.0,0.0,0.0,0.0,0.0392265990376,-9.56148338318,-0.470719188452,0.0,0.0,0.0,0.0,0.0,0.0,0.0,0.0,0.0
1602126300,9261,1644543032059520721,1,0.0,0.0,0.0,0.0,0.0,0.0,0.0,0.0,0.0,0.0,0.0,0.0,0.0,0.0,0.0,0.0,0.0,0.0,0.0,0.0,0.0,0.0,0.0,0.0,0.0,0.0392265990376,-9.56148338318,-0.490332484245,0.0,0.0,0.0,0.0,0.0,0.0,0.0,0.0,0.0
1603951300,9262,1644543032061537266,1,0.0,0.0,0.0,0.0,0.0,0.0,0.0,0.0,0.0,0.0,0.0,0.0,0.0,0.0,0.0,0.0,0.0,0.0,0.0,0.0,0.0,0.0,0.0,0.0,0.0,0.0686465501785,-9.61051654816,-0.558979034424,0.0,0.0,0.0,0.0,0.0,0.0,0.0,0.0,0.0
1605898400,9263,1644543032063554049,1,0.0,0.0,0.0,0.0,0.0,0.0,0.0,0.0,0.0,0.0,0.0,0.0,0.0,0.0,0.0,0.0,0.0,0.0,0.0,0.0,0.0,0.0,0.0,0.0,0.0,0.0392265990376,-9.56148338318,-0.470719188452,0.0,0.0,0.0,0.0,0.0,0.0,0.0,0.0,0.0
1608003400,9264,1644543032065570593,1,0.0,0.0,0.0,0.0,0.0,0.0,0.0,0.0,0.0,0.0,0.0,0.0,0.0,0.0,0.0,0.0,0.0,0.0,0.0,0.0,0.0,0.0,0.0,0.0,0.0,0.0686465501785,-9.58109664917,-0.57859236002,0.0,0.0,0.0,0.0,0.0,0.0,0.0,0.0,0.0
1609967000,9265,1644543032067586899,1,0.0,0.0,0.0,0.0,0.0,0.0,0.0,0.0,0.0,0.0,0.0,0.0,0.0,0.0,0.0,0.0,0.0,0.0,0.0,0.0,0.0,0.0,0.0,0.0,0.0,0.0784531980753,-9.58109664917,-0.470719188452,0.0,0.0,0.0,0.0,0.0,0.0,0.0,0.0,0.0
1612058100,9266,1644543032069603443,1,0.0,0.0,0.0,0.0,0.0,0.0,0.0,0.0,0.0,0.0,0.0,0.0,0.0,0.0,0.0,0.0,0.0,0.0,0.0,0.0,0.0,0.0,0.0,0.0,0.0,0.12748645246,-9.61051654816,-0.549172401428,0.0,0.0,0.0,0.0,0.0,0.0,0.0,0.0,0.0
1614075400,9267,1644543032071620226,1,0.0,0.0,0.0,0.0,0.0,0.0,0.0,0.0,0.0,0.0,0.0,0.0,0.0,0.0,0.0,0.0,0.0,0.0,0.0,0.0,0.0,0.0,0.0,0.0,0.0,0.196132987738,-9.66935634613,-0.402072638273,0.0,0.0,0.0,0.0,0.0,0.0,0.0,0.0,0.0
1615921300,9268,1644543032073636770,1,0.0,0.0,0.0,0.0,0.0,0.0,0.0,0.0,0.0,0.0,0.0,0.0,0.0,0.0,0.0,0.0,0.0,0.0,0.0,0.0,0.0,0.0,0.0,0.0,0.0,0.0294199492782,-9.5222568512,-0.421685934067,0.0,0.0,0.0,0.0,0.0,0.0,0.0,0.0,0.0
1617956500,9269,1644543032075651169,1,0.0,0.0,0.0,0.0,0.0,0.0,0.0,0.0,0.0,0.0,0.0,0.0,0.0,0.0,0.0,0.0,0.0,0.0,0.0,0.0,0.0,0.0,0.0,0.0,0.0,-0.137293100357,-9.53206348419,-0.470719188452,0.0,0.0,0.0,0.0,0.0,0.0,0.0,0.0,0.0
1619916000,9270,1644543032077669621,1,0.0,0.0,0.0,0.0,0.0,0.0,0.0,0.0,0.0,0.0,0.0,0.0,0.0,0.0,0.0,0.0,0.0,0.0,0.0,0.0,0.0,0.0,0.0,0.0,0.0,0.0784531980753,-9.62032318115,-0.38245934248,0.0,0.0,0.0,0.0,0.0,0.0,0.0,0.0,0.0
1621945400,9271,1644543032079686165,1,0.0,0.0,0.0,0.0,0.0,0.0,0.0,0.0,0.0,0.0,0.0,0.0,0.0,0.0,0.0,0.0,0.0,0.0,0.0,0.0,0.0,0.0,0.0,0.0,0.0,0.274586200714,-9.66935634613,-0.529559075832,0.0,0.0,0.0,0.0,0.0,0.0,0.0,0.0,0.0
1623900300,9272,1644543032081702948,1,0.0,0.0,0.0,0.0,0.0,0.0,0.0,0.0,0.0,0.0,0.0,0.0,0.0,0.0,0.0,0.0,0.0,0.0,0.0,0.0,0.0,0.0,0.0,0.0,0.0,0.0294199492782,-9.53206348419,-0.529559075832,0.0,0.0,0.0,0.0,0.0,0.0,0.0,0.0,0.0
1626345100,9273,1644543032083719254,1,0.0,0.0,0.0,0.0,0.0,0.0,0.0,0.0,0.0,0.0,0.0,0.0,0.0,0.0,0.0,0.0,0.0,0.0,0.0,0.0,0.0,0.0,0.0,0.0,0.0,0.0294199492782,-9.67916297913,-0.490332484245,0.0,0.0,0.0,0.0,0.0,0.0,0.0,0.0,0.0
1628214300,9274,1644543032085733891,1,0.0,0.0,0.0,0.0,0.0,0.0,0.0,0.0,0.0,0.0,0.0,0.0,0.0,0.0,0.0,0.0,0.0,0.0,0.0,0.0,0.0,0.0,0.0,0.0,0.0,0.12748645246,-9.66935634613,-0.529559075832,0.0,0.0,0.0,0.0,0.0,0.0,0.0,0.0,0.0
1630243500,9275,1644543032087750435,1,0.0,0.0,0.0,0.0,0.0,0.0,0.0,0.0,0.0,0.0,0.0,0.0,0.0,0.0,0.0,0.0,0.0,0.0,0.0,0.0,0.0,0.0,0.0,0.0,0.0,0.176519691944,-9.57129001617,-0.549172401428,0.0,0.0,0.0,0.0,0.0,0.0,0.0,0.0,0.0
1632380700,9276,1644543032089766979,1,0.0,0.0,0.0,0.0,0.0,0.0,0.0,0.0,0.0,0.0,0.0,0.0,0.0,0.0,0.0,0.0,0.0,0.0,0.0,0.0,0.0,0.0,0.0,0.0,0.0,0.0980664938688,-9.62032318115,-0.490332484245,0.0,0.0,0.0,0.0,0.0,0.0,0.0,0.0,0.0
1634479800,9277,1644543032091783524,1,0.0,0.0,0.0,0.0,0.0,0.0,0.0,0.0,0.0,0.0,0.0,0.0,0.0,0.0,0.0,0.0,0.0,0.0,0.0,0.0,0.0,0.0,0.0,0.0,0.0,0.0392265990376,-9.61051654816,-0.470719188452,0.0,0.0,0.0,0.0,0.0,0.0,0.0,0.0,0.0
1636291100,9278,1644543032093800068,1,0.0,0.0,0.0,0.0,0.0,0.0,0.0,0.0,0.0,0.0,0.0,0.0,0.0,0.0,0.0,0.0,0.0,0.0,0.0,0.0,0.0,0.0,0.0,0.0,0.0,0.137293100357,-9.61051654816,-0.529559075832,0.0,0.0,0.0,0.0,0.0,0.0,0.0,0.0,0.0
1638292600,9279,1644543032095816612,1,0.0,0.0,0.0,0.0,0.0,0.0,0.0,0.0,0.0,0.0,0.0,0.0,0.0,0.0,0.0,0.0,0.0,0.0,0.0,0.0,0.0,0.0,0.0,0.0,0.0,0.176519691944,-9.58109664917,-0.490332484245,0.0,0.0,0.0,0.0,0.0,0.0,0.0,0.0,0.0
1640261700,9280,1644543032097833157,1,0.0,0.0,0.0,0.0,0.0,0.0,0.0,0.0,0.0,0.0,0.0,0.0,0.0,0.0,0.0,0.0,0.0,0.0,0.0,0.0,0.0,0.0,0.0,0.0,0.0,0.12748645246,-9.62032318115,-0.509945809841,0.0,0.0,0.0,0.0,0.0,0.0,0.0,0.0,0.0
1642233400,9281,1644543032099849701,1,0.0,0.0,0.0,0.0,0.0,0.0,0.0,0.0,0.0,0.0,0.0,0.0,0.0,0.0,0.0,0.0,0.0,0.0,0.0,0.0,0.0,0.0,0.0,0.0,0.0,0.0392265990376,-9.56148338318,-0.470719188452,0.0,0.0,0.0,0.0,0.0,0.0,0.0,0.0,0.0
1644242000,9282,1644543032101866245,1,0.0,0.0,0.0,0.0,0.0,0.0,0.0,0.0,0.0,0.0,0.0,0.0,0.0,0.0,0.0,0.0,0.0,0.0,0.0,0.0,0.0,0.0,0.0,0.0,0.0,0.0980664938688,-9.61051654816,-0.490332484245,0.0,0.0,0.0,0.0,0.0,0.0,0.0,0.0,0.0
1646251800,9283,1644543032103882790,1,0.0,0.0,0.0,0.0,0.0,0.0,0.0,0.0,0.0,0.0,0.0,0.0,0.0,0.0,0.0,0.0,0.0,0.0,0.0,0.0,0.0,0.0,0.0,0.0,0.0,0.166713044047,-9.58109664917,-0.402072638273,0.0,0.0,0.0,0.0,0.0,0.0,0.0,0.0,0.0
1648257700,9284,1644543032105899334,1,0.0,0.0,0.0,0.0,0.0,0.0,0.0,0.0,0.0,0.0,0.0,0.0,0.0,0.0,0.0,0.0,0.0,0.0,0.0,0.0,0.0,0.0,0.0,0.0,0.0,0.0980664938688,-9.57129001617,-0.421685934067,0.0,0.0,0.0,0.0,0.0,0.0,0.0,0.0,0.0
1650298000,9285,1644543032107913733,1,0.0,0.0,0.0,0.0,0.0,0.0,0.0,0.0,0.0,0.0,0.0,0.0,0.0,0.0,0.0,0.0,0.0,0.0,0.0,0.0,0.0,0.0,0.0,0.0,0.0,0.0784531980753,-9.56148338318,-0.451105892658,0.0,0.0,0.0,0.0,0.0,0.0,0.0,0.0,0.0
1652209300,9286,1644543032109932423,1,0.0,0.0,0.0,0.0,0.0,0.0,0.0,0.0,0.0,0.0,0.0,0.0,0.0,0.0,0.0,0.0,0.0,0.0,0.0,0.0,0.0,0.0,0.0,0.0,0.0,0.12748645246,-9.62032318115,-0.451105892658,0.0,0.0,0.0,0.0,0.0,0.0,0.0,0.0,0.0
1654144200,9287,1644543032111947060,1,0.0,0.0,0.0,0.0,0.0,0.0,0.0,0.0,0.0,0.0,0.0,0.0,0.0,0.0,0.0,0.0,0.0,0.0,0.0,0.0,0.0,0.0,0.0,0.0,0.0,0.12748645246,-9.61051654816,-0.490332484245,0.0,0.0,0.0,0.0,0.0,0.0,0.0,0.0,0.0
1656251100,9288,1644543032113963604,1,0.0,0.0,0.0,0.0,0.0,0.0,0.0,0.0,0.0,0.0,0.0,0.0,0.0,0.0,0.0,0.0,0.0,0.0,0.0,0.0,0.0,0.0,0.0,0.0,0.0,0.0686465501785,-9.61051654816,-0.421685934067,0.0,0.0,0.0,0.0,0.0,0.0,0.0,0.0,0.0
1658178400,9289,1644543032115979910,1,0.0,0.0,0.0,0.0,0.0,0.0,0.0,0.0,0.0,0.0,0.0,0.0,0.0,0.0,0.0,0.0,0.0,0.0,0.0,0.0,0.0,0.0,0.0,0.0,0.0,0.176519691944,-9.67916297913,-0.421685934067,0.0,0.0,0.0,0.0,0.0,0.0,0.0,0.0,0.0
1660818400,9290,1644543032117996693,1,0.0,0.0,0.0,0.0,0.0,0.0,0.0,0.0,0.0,0.0,0.0,0.0,0.0,0.0,0.0,0.0,0.0,0.0,0.0,0.0,0.0,0.0,0.0,0.0,0.0,0.38245934248,-9.53206348419,-0.549172401428,0.0,0.0,0.0,0.0,0.0,0.0,0.0,0.0,0.0
1662444100,9291,1644543032120013237,1,0.0,0.0,0.0,0.0,0.0,0.0,0.0,0.0,0.0,0.0,0.0,0.0,0.0,0.0,0.0,0.0,0.0,0.0,0.0,0.0,0.0,0.0,0.0,0.0,0.0,-0.0980664938688,-9.58109664917,-0.470719188452,0.0,0.0,0.0,0.0,0.0,0.0,0.0,0.0,0.0
1664844600,9292,1644543032122029781,1,0.0,0.0,0.0,0.0,0.0,0.0,0.0,0.0,0.0,0.0,0.0,0.0,0.0,0.0,0.0,0.0,0.0,0.0,0.0,0.0,0.0,0.0,0.0,0.0,0.0,-0.0980664938688,-9.81645679474,-0.57859236002,0.0,0.0,0.0,0.0,0.0,0.0,0.0,0.0,0.0
1666738100,9293,1644543032124046087,1,0.0,0.0,0.0,0.0,0.0,0.0,0.0,0.0,0.0,0.0,0.0,0.0,0.0,0.0,0.0,0.0,0.0,0.0,0.0,0.0,0.0,0.0,0.0,0.0,0.0,0.176519691944,-9.48303031921,-0.451105892658,0.0,0.0,0.0,0.0,0.0,0.0,0.0,0.0,0.0
1668688500,9294,1644543032126062632,1,0.0,0.0,0.0,0.0,0.0,0.0,0.0,0.0,0.0,0.0,0.0,0.0,0.0,0.0,0.0,0.0,0.0,0.0,0.0,0.0,0.0,0.0,0.0,0.0,0.0,0.38245934248,-9.61051654816,-0.402072638273,0.0,0.0,0.0,0.0,0.0,0.0,0.0,0.0,0.0
1670724700,9295,1644543032128079414,1,0.0,0.0,0.0,0.0,0.0,0.0,0.0,0.0,0.0,0.0,0.0,0.0,0.0,0.0,0.0,0.0,0.0,0.0,0.0,0.0,0.0,0.0,0.0,0.0,0.0,-0.0294199492782,-9.67916297913,-0.57859236002,0.0,0.0,0.0,0.0,0.0,0.0,0.0,0.0,0.0
1672475800,9296,1644543032130095959,1,0.0,0.0,0.0,0.0,0.0,0.0,0.0,0.0,0.0,0.0,0.0,0.0,0.0,0.0,0.0,0.0,0.0,0.0,0.0,0.0,0.0,0.0,0.0,0.0,0.0,-0.0392265990376,-9.58109664917,-0.598205626011,0.0,0.0,0.0,0.0,0.0,0.0,0.0,0.0,0.0
1674831500,9297,1644543032132112265,1,0.0,0.0,0.0,0.0,0.0,0.0,0.0,0.0,0.0,0.0,0.0,0.0,0.0,0.0,0.0,0.0,0.0,0.0,0.0,0.0,0.0,0.0,0.0,0.0,0.0,0.196132987738,-9.5222568512,-0.490332484245,0.0,0.0,0.0,0.0,0.0,0.0,0.0,0.0,0.0
1676714400,9298,1644543032134128809,1,0.0,0.0,0.0,0.0,0.0,0.0,0.0,0.0,0.0,0.0,0.0,0.0,0.0,0.0,0.0,0.0,0.0,0.0,0.0,0.0,0.0,0.0,0.0,0.0,0.0,0.274586200714,-9.70858287811,-0.490332484245,0.0,0.0,0.0,0.0,0.0,0.0,0.0,0.0,0.0
1678661200,9299,1644543032136143446,1,0.0,0.0,0.0,0.0,0.0,0.0,0.0,0.0,0.0,0.0,0.0,0.0,0.0,0.0,0.0,0.0,0.0,0.0,0.0,0.0,0.0,0.0,0.0,0.0,0.0,0.00980664975941,-9.53206348419,-0.549172401428,0.0,0.0,0.0,0.0,0.0,0.0,0.0,0.0,0.0
1680678400,9300,1644543032138162136,1,0.0,0.0,0.0,0.0,0.0,0.0,0.0,0.0,0.0,0.0,0.0,0.0,0.0,0.0,0.0,0.0,0.0,0.0,0.0,0.0,0.0,0.0,0.0,0.0,0.0,0.0686465501785,-9.45361042023,-0.637432217598,0.0,0.0,0.0,0.0,0.0,0.0,0.0,0.0,0.0
1682657400,9301,1644543032140178442,1,0.0,0.0,0.0,0.0,0.0,0.0,0.0,0.0,0.0,0.0,0.0,0.0,0.0,0.0,0.0,0.0,0.0,0.0,0.0,0.0,0.0,0.0,0.0,0.0,0.0,0.166713044047,-9.61051654816,-0.57859236002,0.0,0.0,0.0,0.0,0.0,0.0,0.0,0.0,0.0
1684724400,9302,1644543032142194986,1,0.0,0.0,0.0,0.0,0.0,0.0,0.0,0.0,0.0,0.0,0.0,0.0,0.0,0.0,0.0,0.0,0.0,0.0,0.0,0.0,0.0,0.0,0.0,0.0,0.0,0.0980664938688,-9.64974308014,-0.627625584602,0.0,0.0,0.0,0.0,0.0,0.0,0.0,0.0,0.0
1686950800,9303,1644543032144211769,1,0.0,0.0,0.0,0.0,0.0,0.0,0.0,0.0,0.0,0.0,0.0,0.0,0.0,0.0,0.0,0.0,0.0,0.0,0.0,0.0,0.0,0.0,0.0,0.0,0.0,0.0294199492782,-9.53206348419,-0.57859236002,0.0,0.0,0.0,0.0,0.0,0.0,0.0,0.0,0.0
1689027900,9304,1644543032146228313,1,0.0,0.0,0.0,0.0,0.0,0.0,0.0,0.0,0.0,0.0,0.0,0.0,0.0,0.0,0.0,0.0,0.0,0.0,0.0,0.0,0.0,0.0,0.0,0.0,0.0,0.137293100357,-9.61051654816,-0.451105892658,0.0,0.0,0.0,0.0,0.0,0.0,0.0,0.0,0.0
1690812000,9305,1644543032148242712,1,0.0,0.0,0.0,0.0,0.0,0.0,0.0,0.0,0.0,0.0,0.0,0.0,0.0,0.0,0.0,0.0,0.0,0.0,0.0,0.0,0.0,0.0,0.0,0.0,0.0,0.0980664938688,-9.64974308014,-0.509945809841,0.0,0.0,0.0,0.0,0.0,0.0,0.0,0.0,0.0
1692727900,9306,1644543032150259256,1,0.0,0.0,0.0,0.0,0.0,0.0,0.0,0.0,0.0,0.0,0.0,0.0,0.0,0.0,0.0,0.0,0.0,0.0,0.0,0.0,0.0,0.0,0.0,0.0,0.0,0.0392265990376,-9.49283695221,-0.598205626011,0.0,0.0,0.0,0.0,0.0,0.0,0.0,0.0,0.0
1694765600,9307,1644543032152275801,1,0.0,0.0,0.0,0.0,0.0,0.0,0.0,0.0,0.0,0.0,0.0,0.0,0.0,0.0,0.0,0.0,0.0,0.0,0.0,0.0,0.0,0.0,0.0,0.0,0.0,0.137293100357,-9.61051654816,-0.558979034424,0.0,0.0,0.0,0.0,0.0,0.0,0.0,0.0,0.0
1696874100,9308,1644543032154292583,1,0.0,0.0,0.0,0.0,0.0,0.0,0.0,0.0,0.0,0.0,0.0,0.0,0.0,0.0,0.0,0.0,0.0,0.0,0.0,0.0,0.0,0.0,0.0,0.0,0.0,0.12748645246,-9.62032318115,-0.549172401428,0.0,0.0,0.0,0.0,0.0,0.0,0.0,0.0,0.0
1698787500,9309,1644543032156308889,1,0.0,0.0,0.0,0.0,0.0,0.0,0.0,0.0,0.0,0.0,0.0,0.0,0.0,0.0,0.0,0.0,0.0,0.0,0.0,0.0,0.0,0.0,0.0,0.0,0.0,0.0294199492782,-9.57129001617,-0.529559075832,0.0,0.0,0.0,0.0,0.0,0.0,0.0,0.0,0.0
1700782200,9310,1644543032158325434,1,0.0,0.0,0.0,0.0,0.0,0.0,0.0,0.0,0.0,0.0,0.0,0.0,0.0,0.0,0.0,0.0,0.0,0.0,0.0,0.0,0.0,0.0,0.0,0.0,0.0,0.0294199492782,-9.57129001617,-0.57859236002,0.0,0.0,0.0,0.0,0.0,0.0,0.0,0.0,0.0
1702808700,9311,1644543032160341978,1,0.0,0.0,0.0,0.0,0.0,0.0,0.0,0.0,0.0,0.0,0.0,0.0,0.0,0.0,0.0,0.0,0.0,0.0,0.0,0.0,0.0,0.0,0.0,0.0,0.0,0.12748645246,-9.62032318115,-0.57859236002,0.0,0.0,0.0,0.0,0.0,0.0,0.0,0.0,0.0
1704797700,9312,1644543032162358761,1,0.0,0.0,0.0,0.0,0.0,0.0,0.0,0.0,0.0,0.0,0.0,0.0,0.0,0.0,0.0,0.0,0.0,0.0,0.0,0.0,0.0,0.0,0.0,0.0,0.0,0.137293100357,-9.56148338318,-0.598205626011,0.0,0.0,0.0,0.0,0.0,0.0,0.0,0.0,0.0
1706919900,9313,1644543032164375067,1,0.0,0.0,0.0,0.0,0.0,0.0,0.0,0.0,0.0,0.0,0.0,0.0,0.0,0.0,0.0,0.0,0.0,0.0,0.0,0.0,0.0,0.0,0.0,0.0,0.0,0.0294199492782,-9.58109664917,-0.529559075832,0.0,0.0,0.0,0.0,0.0,0.0,0.0,0.0,0.0
1708859000,9314,1644543032166391611,1,0.0,0.0,0.0,0.0,0.0,0.0,0.0,0.0,0.0,0.0,0.0,0.0,0.0,0.0,0.0,0.0,0.0,0.0,0.0,0.0,0.0,0.0,0.0,0.0,0.0,0.0686465501785,-9.58109664917,-0.549172401428,0.0,0.0,0.0,0.0,0.0,0.0,0.0,0.0,0.0
1710769500,9315,1644543032168408155,1,0.0,0.0,0.0,0.0,0.0,0.0,0.0,0.0,0.0,0.0,0.0,0.0,0.0,0.0,0.0,0.0,0.0,0.0,0.0,0.0,0.0,0.0,0.0,0.0,0.0,0.12748645246,-9.61051654816,-0.57859236002,0.0,0.0,0.0,0.0,0.0,0.0,0.0,0.0,0.0
1712710800,9316,1644543032170424700,1,0.0,0.0,0.0,0.0,0.0,0.0,0.0,0.0,0.0,0.0,0.0,0.0,0.0,0.0,0.0,0.0,0.0,0.0,0.0,0.0,0.0,0.0,0.0,0.0,0.0,0.137293100357,-9.61051654816,-0.549172401428,0.0,0.0,0.0,0.0,0.0,0.0,0.0,0.0,0.0
1714744900,9317,1644543032172441244,1,0.0,0.0,0.0,0.0,0.0,0.0,0.0,0.0,0.0,0.0,0.0,0.0,0.0,0.0,0.0,0.0,0.0,0.0,0.0,0.0,0.0,0.0,0.0,0.0,0.0,0.0392265990376,-9.58109664917,-0.558979034424,0.0,0.0,0.0,0.0,0.0,0.0,0.0,0.0,0.0
1716741800,9318,1644543032174457788,1,0.0,0.0,0.0,0.0,0.0,0.0,0.0,0.0,0.0,0.0,0.0,0.0,0.0,0.0,0.0,0.0,0.0,0.0,0.0,0.0,0.0,0.0,0.0,0.0,0.0,0.0392265990376,-9.62032318115,-0.637432217598,0.0,0.0,0.0,0.0,0.0,0.0,0.0,0.0,0.0
1718722200,9319,1644543032176474333,1,0.0,0.0,0.0,0.0,0.0,0.0,0.0,0.0,0.0,0.0,0.0,0.0,0.0,0.0,0.0,0.0,0.0,0.0,0.0,0.0,0.0,0.0,0.0,0.0,0.0,0.137293100357,-9.58109664917,-0.627625584602,0.0,0.0,0.0,0.0,0.0,0.0,0.0,0.0,0.0
1720759200,9320,1644543032178490877,1,0.0,0.0,0.0,0.0,0.0,0.0,0.0,0.0,0.0,0.0,0.0,0.0,0.0,0.0,0.0,0.0,0.0,0.0,0.0,0.0,0.0,0.0,0.0,0.0,0.0,0.0980664938688,-9.61051654816,-0.57859236002,0.0,0.0,0.0,0.0,0.0,0.0,0.0,0.0,0.0
1722762500,9321,1644543032180507660,1,0.0,0.0,0.0,0.0,0.0,0.0,0.0,0.0,0.0,0.0,0.0,0.0,0.0,0.0,0.0,0.0,0.0,0.0,0.0,0.0,0.0,0.0,0.0,0.0,0.0,0.0686465501785,-9.58109664917,-0.627625584602,0.0,0.0,0.0,0.0,0.0,0.0,0.0,0.0,0.0
1724663800,9322,1644543032182523966,1,0.0,0.0,0.0,0.0,0.0,0.0,0.0,0.0,0.0,0.0,0.0,0.0,0.0,0.0,0.0,0.0,0.0,0.0,0.0,0.0,0.0,0.0,0.0,0.0,0.0,0.0784531980753,-9.56148338318,-0.57859236002,0.0,0.0,0.0,0.0,0.0,0.0,0.0,0.0,0.0
1726687000,9323,1644543032184540510,1,0.0,0.0,0.0,0.0,0.0,0.0,0.0,0.0,0.0,0.0,0.0,0.0,0.0,0.0,0.0,0.0,0.0,0.0,0.0,0.0,0.0,0.0,0.0,0.0,0.0,0.137293100357,-9.53206348419,-0.558979034424,0.0,0.0,0.0,0.0,0.0,0.0,0.0,0.0,0.0
1728679300,9324,1644543032186557055,1,0.0,0.0,0.0,0.0,0.0,0.0,0.0,0.0,0.0,0.0,0.0,0.0,0.0,0.0,0.0,0.0,0.0,0.0,0.0,0.0,0.0,0.0,0.0,0.0,0.0,0.0784531980753,-9.57129001617,-0.57859236002,0.0,0.0,0.0,0.0,0.0,0.0,0.0,0.0,0.0
1730704400,9325,1644543032188573837,1,0.0,0.0,0.0,0.0,0.0,0.0,0.0,0.0,0.0,0.0,0.0,0.0,0.0,0.0,0.0,0.0,0.0,0.0,0.0,0.0,0.0,0.0,0.0,0.0,0.0,0.0686465501785,-9.58109664917,-0.549172401428,0.0,0.0,0.0,0.0,0.0,0.0,0.0,0.0,0.0
1732728500,9326,1644543032190590143,1,0.0,0.0,0.0,0.0,0.0,0.0,0.0,0.0,0.0,0.0,0.0,0.0,0.0,0.0,0.0,0.0,0.0,0.0,0.0,0.0,0.0,0.0,0.0,0.0,0.0,0.0980664938688,-9.61051654816,-0.529559075832,0.0,0.0,0.0,0.0,0.0,0.0,0.0,0.0,0.0
1734748600,9327,1644543032192606688,1,0.0,0.0,0.0,0.0,0.0,0.0,0.0,0.0,0.0,0.0,0.0,0.0,0.0,0.0,0.0,0.0,0.0,0.0,0.0,0.0,0.0,0.0,0.0,0.0,0.0,0.12748645246,-9.61051654816,-0.529559075832,0.0,0.0,0.0,0.0,0.0,0.0,0.0,0.0,0.0
1737045700,9328,1644543032194623232,1,0.0,0.0,0.0,0.0,0.0,0.0,0.0,0.0,0.0,0.0,0.0,0.0,0.0,0.0,0.0,0.0,0.0,0.0,0.0,0.0,0.0,0.0,0.0,0.0,0.0,0.0784531980753,-9.58109664917,-0.598205626011,0.0,0.0,0.0,0.0,0.0,0.0,0.0,0.0,0.0
1739062400,9329,1644543032196639776,1,0.0,0.0,0.0,0.0,0.0,0.0,0.0,0.0,0.0,0.0,0.0,0.0,0.0,0.0,0.0,0.0,0.0,0.0,0.0,0.0,0.0,0.0,0.0,0.0,0.0,0.0686465501785,-9.57129001617,-0.529559075832,0.0,0.0,0.0,0.0,0.0,0.0,0.0,0.0,0.0
1741004900,9330,1644543032198656321,1,0.0,0.0,0.0,0.0,0.0,0.0,0.0,0.0,0.0,0.0,0.0,0.0,0.0,0.0,0.0,0.0,0.0,0.0,0.0,0.0,0.0,0.0,0.0,0.0,0.0,0.0784531980753,-9.58109664917,-0.558979034424,0.0,0.0,0.0,0.0,0.0,0.0,0.0,0.0,0.0
1742952500,9331,1644543032200670958,1,0.0,0.0,0.0,0.0,0.0,0.0,0.0,0.0,0.0,0.0,0.0,0.0,0.0,0.0,0.0,0.0,0.0,0.0,0.0,0.0,0.0,0.0,0.0,0.0,0.0,0.12748645246,-9.66935634613,-0.470719188452,0.0,0.0,0.0,0.0,0.0,0.0,0.0,0.0,0.0
1744942200,9332,1644543032202687502,1,0.0,0.0,0.0,0.0,0.0,0.0,0.0,0.0,0.0,0.0,0.0,0.0,0.0,0.0,0.0,0.0,0.0,0.0,0.0,0.0,0.0,0.0,0.0,0.0,0.0,0.0980664938688,-9.62032318115,-0.549172401428,0.0,0.0,0.0,0.0,0.0,0.0,0.0,0.0,0.0
1746975700,9333,1644543032204703808,1,0.0,0.0,0.0,0.0,0.0,0.0,0.0,0.0,0.0,0.0,0.0,0.0,0.0,0.0,0.0,0.0,0.0,0.0,0.0,0.0,0.0,0.0,0.0,0.0,0.0,0.0686465501785,-9.62032318115,-0.490332484245,0.0,0.0,0.0,0.0,0.0,0.0,0.0,0.0,0.0
1749035000,9334,1644543032206720352,1,0.0,0.0,0.0,0.0,0.0,0.0,0.0,0.0,0.0,0.0,0.0,0.0,0.0,0.0,0.0,0.0,0.0,0.0,0.0,0.0,0.0,0.0,0.0,0.0,0.0,0.0784531980753,-9.61051654816,-0.549172401428,0.0,0.0,0.0,0.0,0.0,0.0,0.0,0.0,0.0
1751006100,9335,1644543032208737135,1,0.0,0.0,0.0,0.0,0.0,0.0,0.0,0.0,0.0,0.0,0.0,0.0,0.0,0.0,0.0,0.0,0.0,0.0,0.0,0.0,0.0,0.0,0.0,0.0,0.0,0.0686465501785,-9.58109664917,-0.529559075832,0.0,0.0,0.0,0.0,0.0,0.0,0.0,0.0,0.0
1753065000,9336,1644543032210753679,1,0.0,0.0,0.0,0.0,0.0,0.0,0.0,0.0,0.0,0.0,0.0,0.0,0.0,0.0,0.0,0.0,0.0,0.0,0.0,0.0,0.0,0.0,0.0,0.0,0.0,0.12748645246,-9.58109664917,-0.490332484245,0.0,0.0,0.0,0.0,0.0,0.0,0.0,0.0,0.0
1754943300,9337,1644543032212769985,1,0.0,0.0,0.0,0.0,0.0,0.0,0.0,0.0,0.0,0.0,0.0,0.0,0.0,0.0,0.0,0.0,0.0,0.0,0.0,0.0,0.0,0.0,0.0,0.0,0.0,0.0980664938688,-9.58109664917,-0.470719188452,0.0,0.0,0.0,0.0,0.0,0.0,0.0,0.0,0.0
1757000200,9338,1644543032214786530,1,0.0,0.0,0.0,0.0,0.0,0.0,0.0,0.0,0.0,0.0,0.0,0.0,0.0,0.0,0.0,0.0,0.0,0.0,0.0,0.0,0.0,0.0,0.0,0.0,0.0,0.0686465501785,-9.57129001617,-0.490332484245,0.0,0.0,0.0,0.0,0.0,0.0,0.0,0.0,0.0
1758968200,9339,1644543032216803312,1,0.0,0.0,0.0,0.0,0.0,0.0,0.0,0.0,0.0,0.0,0.0,0.0,0.0,0.0,0.0,0.0,0.0,0.0,0.0,0.0,0.0,0.0,0.0,0.0,0.0,0.0784531980753,-9.57129001617,-0.402072638273,0.0,0.0,0.0,0.0,0.0,0.0,0.0,0.0,0.0
1761023600,9340,1644543032218819857,1,0.0,0.0,0.0,0.0,0.0,0.0,0.0,0.0,0.0,0.0,0.0,0.0,0.0,0.0,0.0,0.0,0.0,0.0,0.0,0.0,0.0,0.0,0.0,0.0,0.0,0.0980664938688,-9.62032318115,-0.421685934067,0.0,0.0,0.0,0.0,0.0,0.0,0.0,0.0,0.0
1763045900,9341,1644543032220836163,1,0.0,0.0,0.0,0.0,0.0,0.0,0.0,0.0,0.0,0.0,0.0,0.0,0.0,0.0,0.0,0.0,0.0,0.0,0.0,0.0,0.0,0.0,0.0,0.0,0.0,0.0784531980753,-9.61051654816,-0.470719188452,0.0,0.0,0.0,0.0,0.0,0.0,0.0,0.0,0.0
1765065100,9342,1644543032222852707,1,0.0,0.0,0.0,0.0,0.0,0.0,0.0,0.0,0.0,0.0,0.0,0.0,0.0,0.0,0.0,0.0,0.0,0.0,0.0,0.0,0.0,0.0,0.0,0.0,0.0,0.12748645246,-9.57129001617,-0.451105892658,0.0,0.0,0.0,0.0,0.0,0.0,0.0,0.0,0.0
1767566100,9343,1644543032224869490,1,0.0,0.0,0.0,0.0,0.0,0.0,0.0,0.0,0.0,0.0,0.0,0.0,0.0,0.0,0.0,0.0,0.0,0.0,0.0,0.0,0.0,0.0,0.0,0.0,0.0,0.0784531980753,-9.64974308014,-0.402072638273,0.0,0.0,0.0,0.0,0.0,0.0,0.0,0.0,0.0
1769073200,9344,1644543032226886034,1,0.0,0.0,0.0,0.0,0.0,0.0,0.0,0.0,0.0,0.0,0.0,0.0,0.0,0.0,0.0,0.0,0.0,0.0,0.0,0.0,0.0,0.0,0.0,0.0,0.0,0.0980664938688,-9.62032318115,-0.38245934248,0.0,0.0,0.0,0.0,0.0,0.0,0.0,0.0,0.0
1771309000,9345,1644543032228902817,1,0.0,0.0,0.0,0.0,0.0,0.0,0.0,0.0,0.0,0.0,0.0,0.0,0.0,0.0,0.0,0.0,0.0,0.0,0.0,0.0,0.0,0.0,0.0,0.0,0.0,0.0980664938688,-9.61051654816,-0.470719188452,0.0,0.0,0.0,0.0,0.0,0.0,0.0,0.0,0.0
1773292100,9346,1644543032230917454,1,0.0,0.0,0.0,0.0,0.0,0.0,0.0,0.0,0.0,0.0,0.0,0.0,0.0,0.0,0.0,0.0,0.0,0.0,0.0,0.0,0.0,0.0,0.0,0.0,0.0,0.0686465501785,-9.61051654816,-0.421685934067,0.0,0.0,0.0,0.0,0.0,0.0,0.0,0.0,0.0
1775217100,9347,1644543032232933998,1,0.0,0.0,0.0,0.0,0.0,0.0,0.0,0.0,0.0,0.0,0.0,0.0,0.0,0.0,0.0,0.0,0.0,0.0,0.0,0.0,0.0,0.0,0.0,0.0,0.0,0.0686465501785,-9.62032318115,-0.451105892658,0.0,0.0,0.0,0.0,0.0,0.0,0.0,0.0,0.0
1777425500,9348,1644543032234951019,1,0.0,0.0,0.0,0.0,0.0,0.0,0.0,0.0,0.0,0.0,0.0,0.0,0.0,0.0,0.0,0.0,0.0,0.0,0.0,0.0,0.0,0.0,0.0,0.0,0.0,0.0980664938688,-9.64974308014,-0.402072638273,0.0,0.0,0.0,0.0,0.0,0.0,0.0,0.0,0.0
1779518900,9349,1644543032236967564,1,0.0,0.0,0.0,0.0,0.0,0.0,0.0,0.0,0.0,0.0,0.0,0.0,0.0,0.0,0.0,0.0,0.0,0.0,0.0,0.0,0.0,0.0,0.0,0.0,0.0,0.0784531980753,-9.61051654816,-0.451105892658,0.0,0.0,0.0,0.0,0.0,0.0,0.0,0.0,0.0
1781472700,9350,1644543032238984108,1,0.0,0.0,0.0,0.0,0.0,0.0,0.0,0.0,0.0,0.0,0.0,0.0,0.0,0.0,0.0,0.0,0.0,0.0,0.0,0.0,0.0,0.0,0.0,0.0,0.0,0.0784531980753,-9.61051654816,-0.421685934067,0.0,0.0,0.0,0.0,0.0,0.0,0.0,0.0,0.0
1783442000,9351,1644543032240998745,1,0.0,0.0,0.0,0.0,0.0,0.0,0.0,0.0,0.0,0.0,0.0,0.0,0.0,0.0,0.0,0.0,0.0,0.0,0.0,0.0,0.0,0.0,0.0,0.0,0.0,0.12748645246,-9.62032318115,-0.402072638273,0.0,0.0,0.0,0.0,0.0,0.0,0.0,0.0,0.0
1785445900,9352,1644543032243015528,1,0.0,0.0,0.0,0.0,0.0,0.0,0.0,0.0,0.0,0.0,0.0,0.0,0.0,0.0,0.0,0.0,0.0,0.0,0.0,0.0,0.0,0.0,0.0,0.0,0.0,0.137293100357,-9.56148338318,-0.421685934067,0.0,0.0,0.0,0.0,0.0,0.0,0.0,0.0,0.0
1787441700,9353,1644543032245032310,1,0.0,0.0,0.0,0.0,0.0,0.0,0.0,0.0,0.0,0.0,0.0,0.0,0.0,0.0,0.0,0.0,0.0,0.0,0.0,0.0,0.0,0.0,0.0,0.0,0.0,0.0686465501785,-9.57129001617,-0.470719188452,0.0,0.0,0.0,0.0,0.0,0.0,0.0,0.0,0.0
1789472000,9354,1644543032247048855,1,0.0,0.0,0.0,0.0,0.0,0.0,0.0,0.0,0.0,0.0,0.0,0.0,0.0,0.0,0.0,0.0,0.0,0.0,0.0,0.0,0.0,0.0,0.0,0.0,0.0,0.0686465501785,-9.61051654816,-0.470719188452,0.0,0.0,0.0,0.0,0.0,0.0,0.0,0.0,0.0
1791427500,9355,1644543032249065638,1,0.0,0.0,0.0,0.0,0.0,0.0,0.0,0.0,0.0,0.0,0.0,0.0,0.0,0.0,0.0,0.0,0.0,0.0,0.0,0.0,0.0,0.0,0.0,0.0,0.0,0.12748645246,-9.57129001617,-0.490332484245,0.0,0.0,0.0,0.0,0.0,0.0,0.0,0.0,0.0
1793598800,9356,1644543032251082182,1,0.0,0.0,0.0,0.0,0.0,0.0,0.0,0.0,0.0,0.0,0.0,0.0,0.0,0.0,0.0,0.0,0.0,0.0,0.0,0.0,0.0,0.0,0.0,0.0,0.0,0.137293100357,-9.56148338318,-0.421685934067,0.0,0.0,0.0,0.0,0.0,0.0,0.0,0.0,0.0
1795760400,9357,1644543032253096819,1,0.0,0.0,0.0,0.0,0.0,0.0,0.0,0.0,0.0,0.0,0.0,0.0,0.0,0.0,0.0,0.0,0.0,0.0,0.0,0.0,0.0,0.0,0.0,0.0,0.0,0.0294199492782,-9.64974308014,-0.470719188452,0.0,0.0,0.0,0.0,0.0,0.0,0.0,0.0,0.0
1797711500,9358,1644543032255113602,1,0.0,0.0,0.0,0.0,0.0,0.0,0.0,0.0,0.0,0.0,0.0,0.0,0.0,0.0,0.0,0.0,0.0,0.0,0.0,0.0,0.0,0.0,0.0,0.0,0.0,-0.00980664975941,-9.62032318115,-0.451105892658,0.0,0.0,0.0,0.0,0.0,0.0,0.0,0.0,0.0
1799584600,9359,1644543032257130384,1,0.0,0.0,0.0,0.0,0.0,0.0,0.0,0.0,0.0,0.0,0.0,0.0,0.0,0.0,0.0,0.0,0.0,0.0,0.0,0.0,0.0,0.0,0.0,0.0,0.0,0.225552946329,-9.64974308014,-0.451105892658,0.0,0.0,0.0,0.0,0.0,0.0,0.0,0.0,0.0
1801561700,9360,1644543032259146929,1,0.0,0.0,0.0,0.0,0.0,0.0,0.0,0.0,0.0,0.0,0.0,0.0,0.0,0.0,0.0,0.0,0.0,0.0,0.0,0.0,0.0,0.0,0.0,0.0,0.0,0.196132987738,-9.62032318115,-0.451105892658,0.0,0.0,0.0,0.0,0.0,0.0,0.0,0.0,0.0
1803643800,9361,1644543032261163473,1,0.0,0.0,0.0,0.0,0.0,0.0,0.0,0.0,0.0,0.0,0.0,0.0,0.0,0.0,0.0,0.0,0.0,0.0,0.0,0.0,0.0,0.0,0.0,0.0,0.0,0.0686465501785,-9.70858287811,-0.451105892658,0.0,0.0,0.0,0.0,0.0,0.0,0.0,0.0,0.0
1805575400,9362,1644543032263178110,1,0.0,0.0,0.0,0.0,0.0,0.0,0.0,0.0,0.0,0.0,0.0,0.0,0.0,0.0,0.0,0.0,0.0,0.0,0.0,0.0,0.0,0.0,0.0,0.0,0.0,0.0392265990376,-9.61051654816,-0.509945809841,0.0,0.0,0.0,0.0,0.0,0.0,0.0,0.0,0.0
1807464600,9363,1644543032265195131,1,0.0,0.0,0.0,0.0,0.0,0.0,0.0,0.0,0.0,0.0,0.0,0.0,0.0,0.0,0.0,0.0,0.0,0.0,0.0,0.0,0.0,0.0,0.0,0.0,0.0,0.225552946329,-9.58109664917,-0.470719188452,0.0,0.0,0.0,0.0,0.0,0.0,0.0,0.0,0.0
1809435700,9364,1644543032267211676,1,0.0,0.0,0.0,0.0,0.0,0.0,0.0,0.0,0.0,0.0,0.0,0.0,0.0,0.0,0.0,0.0,0.0,0.0,0.0,0.0,0.0,0.0,0.0,0.0,0.0,0.00980664975941,-9.57129001617,-0.490332484245,0.0,0.0,0.0,0.0,0.0,0.0,0.0,0.0,0.0
1811446800,9365,1644543032269226313,1,0.0,0.0,0.0,0.0,0.0,0.0,0.0,0.0,0.0,0.0,0.0,0.0,0.0,0.0,0.0,0.0,0.0,0.0,0.0,0.0,0.0,0.0,0.0,0.0,0.0,0.0,-9.57129001617,-0.470719188452,0.0,0.0,0.0,0.0,0.0,0.0,0.0,0.0,0.0
1813457100,9366,1644543032271245003,1,0.0,0.0,0.0,0.0,0.0,0.0,0.0,0.0,0.0,0.0,0.0,0.0,0.0,0.0,0.0,0.0,0.0,0.0,0.0,0.0,0.0,0.0,0.0,0.0,0.0,0.137293100357,-9.61051654816,-0.558979034424,0.0,0.0,0.0,0.0,0.0,0.0,0.0,0.0,0.0
1815437300,9367,1644543032273261786,1,0.0,0.0,0.0,0.0,0.0,0.0,0.0,0.0,0.0,0.0,0.0,0.0,0.0,0.0,0.0,0.0,0.0,0.0,0.0,0.0,0.0,0.0,0.0,0.0,0.0,0.0980664938688,-9.53206348419,-0.549172401428,0.0,0.0,0.0,0.0,0.0,0.0,0.0,0.0,0.0
1817393600,9368,1644543032275276423,1,0.0,0.0,0.0,0.0,0.0,0.0,0.0,0.0,0.0,0.0,0.0,0.0,0.0,0.0,0.0,0.0,0.0,0.0,0.0,0.0,0.0,0.0,0.0,0.0,0.0,0.0294199492782,-9.57129001617,-0.529559075832,0.0,0.0,0.0,0.0,0.0,0.0,0.0,0.0,0.0
1819495500,9369,1644543032277293205,1,0.0,0.0,0.0,0.0,0.0,0.0,0.0,0.0,0.0,0.0,0.0,0.0,0.0,0.0,0.0,0.0,0.0,0.0,0.0,0.0,0.0,0.0,0.0,0.0,0.0,0.0392265990376,-9.56148338318,-0.529559075832,0.0,0.0,0.0,0.0,0.0,0.0,0.0,0.0,0.0
1821445400,9370,1644543032279309750,1,0.0,0.0,0.0,0.0,0.0,0.0,0.0,0.0,0.0,0.0,0.0,0.0,0.0,0.0,0.0,0.0,0.0,0.0,0.0,0.0,0.0,0.0,0.0,0.0,0.0,0.166713044047,-9.58109664917,-0.509945809841,0.0,0.0,0.0,0.0,0.0,0.0,0.0,0.0,0.0
1823407200,9371,1644543032281326532,1,0.0,0.0,0.0,0.0,0.0,0.0,0.0,0.0,0.0,0.0,0.0,0.0,0.0,0.0,0.0,0.0,0.0,0.0,0.0,0.0,0.0,0.0,0.0,0.0,0.0,0.0784531980753,-9.56148338318,-0.421685934067,0.0,0.0,0.0,0.0,0.0,0.0,0.0,0.0,0.0
1825533200,9372,1644543032283343077,1,0.0,0.0,0.0,0.0,0.0,0.0,0.0,0.0,0.0,0.0,0.0,0.0,0.0,0.0,0.0,0.0,0.0,0.0,0.0,0.0,0.0,0.0,0.0,0.0,0.0,0.0,-9.58109664917,-0.558979034424,0.0,0.0,0.0,0.0,0.0,0.0,0.0,0.0,0.0
1827432900,9373,1644543032285357714,1,0.0,0.0,0.0,0.0,0.0,0.0,0.0,0.0,0.0,0.0,0.0,0.0,0.0,0.0,0.0,0.0,0.0,0.0,0.0,0.0,0.0,0.0,0.0,0.0,0.0,0.00980664975941,-9.58109664917,-0.490332484245,0.0,0.0,0.0,0.0,0.0,0.0,0.0,0.0,0.0
1829457600,9374,1644543032287374258,1,0.0,0.0,0.0,0.0,0.0,0.0,0.0,0.0,0.0,0.0,0.0,0.0,0.0,0.0,0.0,0.0,0.0,0.0,0.0,0.0,0.0,0.0,0.0,0.0,0.0,0.0784531980753,-9.57129001617,-0.490332484245,0.0,0.0,0.0,0.0,0.0,0.0,0.0,0.0,0.0
1831378000,9375,1644543032289390802,1,0.0,0.0,0.0,0.0,0.0,0.0,0.0,0.0,0.0,0.0,0.0,0.0,0.0,0.0,0.0,0.0,0.0,0.0,0.0,0.0,0.0,0.0,0.0,0.0,0.0,0.0686465501785,-9.62032318115,-0.529559075832,0.0,0.0,0.0,0.0,0.0,0.0,0.0,0.0,0.0
1833374800,9376,1644543032291405439,1,0.0,0.0,0.0,0.0,0.0,0.0,0.0,0.0,0.0,0.0,0.0,0.0,0.0,0.0,0.0,0.0,0.0,0.0,0.0,0.0,0.0,0.0,0.0,0.0,0.0,0.0,-9.61051654816,-0.549172401428,0.0,0.0,0.0,0.0,0.0,0.0,0.0,0.0,0.0
1835444300,9377,1644543032293424129,1,0.0,0.0,0.0,0.0,0.0,0.0,0.0,0.0,0.0,0.0,0.0,0.0,0.0,0.0,0.0,0.0,0.0,0.0,0.0,0.0,0.0,0.0,0.0,0.0,0.0,0.0294199492782,-9.57129001617,-0.549172401428,0.0,0.0,0.0,0.0,0.0,0.0,0.0,0.0,0.0
1837495000,9378,1644543032295440674,1,0.0,0.0,0.0,0.0,0.0,0.0,0.0,0.0,0.0,0.0,0.0,0.0,0.0,0.0,0.0,0.0,0.0,0.0,0.0,0.0,0.0,0.0,0.0,0.0,0.0,0.0784531980753,-9.62032318115,-0.509945809841,0.0,0.0,0.0,0.0,0.0,0.0,0.0,0.0,0.0
1839513800,9379,1644543032297455311,1,0.0,0.0,0.0,0.0,0.0,0.0,0.0,0.0,0.0,0.0,0.0,0.0,0.0,0.0,0.0,0.0,0.0,0.0,0.0,0.0,0.0,0.0,0.0,0.0,0.0,0.0686465501785,-9.61051654816,-0.529559075832,0.0,0.0,0.0,0.0,0.0,0.0,0.0,0.0,0.0
1841795300,9380,1644543032299471855,1,0.0,0.0,0.0,0.0,0.0,0.0,0.0,0.0,0.0,0.0,0.0,0.0,0.0,0.0,0.0,0.0,0.0,0.0,0.0,0.0,0.0,0.0,0.0,0.0,0.0,0.0392265990376,-9.62032318115,-0.509945809841,0.0,0.0,0.0,0.0,0.0,0.0,0.0,0.0,0.0
1844058800,9381,1644543032301488638,1,0.0,0.0,0.0,0.0,0.0,0.0,0.0,0.0,0.0,0.0,0.0,0.0,0.0,0.0,0.0,0.0,0.0,0.0,0.0,0.0,0.0,0.0,0.0,0.0,0.0,0.0686465501785,-9.67916297913,-0.549172401428,0.0,0.0,0.0,0.0,0.0,0.0,0.0,0.0,0.0
1845844600,9382,1644543032303505182,1,0.0,0.0,0.0,0.0,0.0,0.0,0.0,0.0,0.0,0.0,0.0,0.0,0.0,0.0,0.0,0.0,0.0,0.0,0.0,0.0,0.0,0.0,0.0,0.0,0.0,0.0392265990376,-9.62032318115,-0.509945809841,0.0,0.0,0.0,0.0,0.0,0.0,0.0,0.0,0.0
1847895500,9383,1644543032305521965,1,0.0,0.0,0.0,0.0,0.0,0.0,0.0,0.0,0.0,0.0,0.0,0.0,0.0,0.0,0.0,0.0,0.0,0.0,0.0,0.0,0.0,0.0,0.0,0.0,0.0,0.0686465501785,-9.66935634613,-0.549172401428,0.0,0.0,0.0,0.0,0.0,0.0,0.0,0.0,0.0
1849793200,9384,1644543032307538509,1,0.0,0.0,0.0,0.0,0.0,0.0,0.0,0.0,0.0,0.0,0.0,0.0,0.0,0.0,0.0,0.0,0.0,0.0,0.0,0.0,0.0,0.0,0.0,0.0,0.0,0.0980664938688,-9.70858287811,-0.549172401428,0.0,0.0,0.0,0.0,0.0,0.0,0.0,0.0,0.0
1851842600,9385,1644543032309553146,1,0.0,0.0,0.0,0.0,0.0,0.0,0.0,0.0,0.0,0.0,0.0,0.0,0.0,0.0,0.0,0.0,0.0,0.0,0.0,0.0,0.0,0.0,0.0,0.0,0.0,0.0980664938688,-9.7478094101,-0.558979034424,0.0,0.0,0.0,0.0,0.0,0.0,0.0,0.0,0.0
1853791900,9386,1644543032311569929,1,0.0,0.0,0.0,0.0,0.0,0.0,0.0,0.0,0.0,0.0,0.0,0.0,0.0,0.0,0.0,0.0,0.0,0.0,0.0,0.0,0.0,0.0,0.0,0.0,0.0,0.0980664938688,-9.7478094101,-0.549172401428,0.0,0.0,0.0,0.0,0.0,0.0,0.0,0.0,0.0
1855753000,9387,1644543032313586473,1,0.0,0.0,0.0,0.0,0.0,0.0,0.0,0.0,0.0,0.0,0.0,0.0,0.0,0.0,0.0,0.0,0.0,0.0,0.0,0.0,0.0,0.0,0.0,0.0,0.0,0.12748645246,-9.64974308014,-0.549172401428,0.0,0.0,0.0,0.0,0.0,0.0,0.0,0.0,0.0
1857729800,9388,1644543032315603018,1,0.0,0.0,0.0,0.0,0.0,0.0,0.0,0.0,0.0,0.0,0.0,0.0,0.0,0.0,0.0,0.0,0.0,0.0,0.0,0.0,0.0,0.0,0.0,0.0,0.0,0.0980664938688,-9.48303031921,-0.509945809841,0.0,0.0,0.0,0.0,0.0,0.0,0.0,0.0,0.0
1859737000,9389,1644543032317619562,1,0.0,0.0,0.0,0.0,0.0,0.0,0.0,0.0,0.0,0.0,0.0,0.0,0.0,0.0,0.0,0.0,0.0,0.0,0.0,0.0,0.0,0.0,0.0,0.0,0.0,0.176519691944,-9.45361042023,-0.451105892658,0.0,0.0,0.0,0.0,0.0,0.0,0.0,0.0,0.0
1861717900,9390,1644543032319634199,1,0.0,0.0,0.0,0.0,0.0,0.0,0.0,0.0,0.0,0.0,0.0,0.0,0.0,0.0,0.0,0.0,0.0,0.0,0.0,0.0,0.0,0.0,0.0,0.0,0.0,0.0686465501785,-9.24767112732,-0.509945809841,0.0,0.0,0.0,0.0,0.0,0.0,0.0,0.0,0.0
1863739200,9391,1644543032321650982,1,0.0,0.0,0.0,0.0,0.0,0.0,0.0,0.0,0.0,0.0,0.0,0.0,0.0,0.0,0.0,0.0,0.0,0.0,0.0,0.0,0.0,0.0,0.0,0.0,0.0,0.0,-9.15941047668,-0.402072638273,0.0,0.0,0.0,0.0,0.0,0.0,0.0,0.0,0.0
1865691900,9392,1644543032323667526,1,0.0,0.0,0.0,0.0,0.0,0.0,0.0,0.0,0.0,0.0,0.0,0.0,0.0,0.0,0.0,0.0,0.0,0.0,0.0,0.0,0.0,0.0,0.0,0.0,0.0,0.225552946329,-9.31631755829,-0.421685934067,0.0,0.0,0.0,0.0,0.0,0.0,0.0,0.0,0.0
1867739600,9393,1644543032325684071,1,0.0,0.0,0.0,0.0,0.0,0.0,0.0,0.0,0.0,0.0,0.0,0.0,0.0,0.0,0.0,0.0,0.0,0.0,0.0,0.0,0.0,0.0,0.0,0.0,0.0,0.245166242123,-9.42419052124,-0.549172401428,0.0,0.0,0.0,0.0,0.0,0.0,0.0,0.0,0.0
1869852500,9394,1644543032327700615,1,0.0,0.0,0.0,0.0,0.0,0.0,0.0,0.0,0.0,0.0,0.0,0.0,0.0,0.0,0.0,0.0,0.0,0.0,0.0,0.0,0.0,0.0,0.0,0.0,0.0,0.0,-9.38496398926,-0.490332484245,0.0,0.0,0.0,0.0,0.0,0.0,0.0,0.0,0.0
1871992800,9395,1644543032329717398,1,0.0,0.0,0.0,0.0,0.0,0.0,0.0,0.0,0.0,0.0,0.0,0.0,0.0,0.0,0.0,0.0,0.0,0.0,0.0,0.0,0.0,0.0,0.0,0.0,0.0,0.0392265990376,-9.61051654816,-0.490332484245,0.0,0.0,0.0,0.0,0.0,0.0,0.0,0.0,0.0
1874046900,9396,1644543032331733942,1,0.0,0.0,0.0,0.0,0.0,0.0,0.0,0.0,0.0,0.0,0.0,0.0,0.0,0.0,0.0,0.0,0.0,0.0,0.0,0.0,0.0,0.0,0.0,0.0,0.0,0.225552946329,-9.86548995972,-0.509945809841,0.0,0.0,0.0,0.0,0.0,0.0,0.0,0.0,0.0
1875674300,9397,1644543032333750486,1,0.0,0.0,0.0,0.0,0.0,0.0,0.0,0.0,0.0,0.0,0.0,0.0,0.0,0.0,0.0,0.0,0.0,0.0,0.0,0.0,0.0,0.0,0.0,0.0,0.0,0.137293100357,-9.78703689575,-0.549172401428,0.0,0.0,0.0,0.0,0.0,0.0,0.0,0.0,0.0
1877779200,9398,1644543032335765123,1,0.0,0.0,0.0,0.0,0.0,0.0,0.0,0.0,0.0,0.0,0.0,0.0,0.0,0.0,0.0,0.0,0.0,0.0,0.0,0.0,0.0,0.0,0.0,0.0,0.0,0.0392265990376,-9.80665016174,-0.627625584602,0.0,0.0,0.0,0.0,0.0,0.0,0.0,0.0,0.0
1879716600,9399,1644543032337781668,1,0.0,0.0,0.0,0.0,0.0,0.0,0.0,0.0,0.0,0.0,0.0,0.0,0.0,0.0,0.0,0.0,0.0,0.0,0.0,0.0,0.0,0.0,0.0,0.0,0.0,0.0294199492782,-9.94394302368,-0.598205626011,0.0,0.0,0.0,0.0,0.0,0.0,0.0,0.0,0.0
1881727400,9400,1644543032339798450,1,0.0,0.0,0.0,0.0,0.0,0.0,0.0,0.0,0.0,0.0,0.0,0.0,0.0,0.0,0.0,0.0,0.0,0.0,0.0,0.0,0.0,0.0,0.0,0.0,0.0,0.0784531980753,-9.88510322571,-0.666852176189,0.0,0.0,0.0,0.0,0.0,0.0,0.0,0.0,0.0
1883702000,9401,1644543032341814995,1,0.0,0.0,0.0,0.0,0.0,0.0,0.0,0.0,0.0,0.0,0.0,0.0,0.0,0.0,0.0,0.0,0.0,0.0,0.0,0.0,0.0,0.0,0.0,0.0,0.0,0.0784531980753,-9.70858287811,-0.598205626011,0.0,0.0,0.0,0.0,0.0,0.0,0.0,0.0,0.0
1885935600,9402,1644543032343829632,1,0.0,0.0,0.0,0.0,0.0,0.0,0.0,0.0,0.0,0.0,0.0,0.0,0.0,0.0,0.0,0.0,0.0,0.0,0.0,0.0,0.0,0.0,0.0,0.0,0.0,0.0294199492782,-9.75761604309,-0.558979034424,0.0,0.0,0.0,0.0,0.0,0.0,0.0,0.0,0.0
1887958200,9403,1644543032345846176,1,0.0,0.0,0.0,0.0,0.0,0.0,0.0,0.0,0.0,0.0,0.0,0.0,0.0,0.0,0.0,0.0,0.0,0.0,0.0,0.0,0.0,0.0,0.0,0.0,0.0,0.0392265990376,-9.75761604309,-0.627625584602,0.0,0.0,0.0,0.0,0.0,0.0,0.0,0.0,0.0
1890282300,9404,1644543032347862959,1,0.0,0.0,0.0,0.0,0.0,0.0,0.0,0.0,0.0,0.0,0.0,0.0,0.0,0.0,0.0,0.0,0.0,0.0,0.0,0.0,0.0,0.0,0.0,0.0,0.0,0.0392265990376,-9.61051654816,-0.549172401428,0.0,0.0,0.0,0.0,0.0,0.0,0.0,0.0,0.0
1892190800,9405,1644543032349879742,1,0.0,0.0,0.0,0.0,0.0,0.0,0.0,0.0,0.0,0.0,0.0,0.0,0.0,0.0,0.0,0.0,0.0,0.0,0.0,0.0,0.0,0.0,0.0,0.0,0.0,0.0980664938688,-9.57129001617,-0.598205626011,0.0,0.0,0.0,0.0,0.0,0.0,0.0,0.0,0.0
1894227600,9406,1644543032351896286,1,0.0,0.0,0.0,0.0,0.0,0.0,0.0,0.0,0.0,0.0,0.0,0.0,0.0,0.0,0.0,0.0,0.0,0.0,0.0,0.0,0.0,0.0,0.0,0.0,0.0,0.0784531980753,-9.56148338318,-0.470719188452,0.0,0.0,0.0,0.0,0.0,0.0,0.0,0.0,0.0
1896239600,9407,1644543032353910923,1,0.0,0.0,0.0,0.0,0.0,0.0,0.0,0.0,0.0,0.0,0.0,0.0,0.0,0.0,0.0,0.0,0.0,0.0,0.0,0.0,0.0,0.0,0.0,0.0,0.0,0.0784531980753,-9.42419052124,-0.490332484245,0.0,0.0,0.0,0.0,0.0,0.0,0.0,0.0,0.0
1898185200,9408,1644543032355927467,1,0.0,0.0,0.0,0.0,0.0,0.0,0.0,0.0,0.0,0.0,0.0,0.0,0.0,0.0,0.0,0.0,0.0,0.0,0.0,0.0,0.0,0.0,0.0,0.0,0.0,0.12748645246,-9.39477062225,-0.549172401428,0.0,0.0,0.0,0.0,0.0,0.0,0.0,0.0,0.0
