,field.header.stamp,field.linear_acceleration.x,field.linear_acceleration.y,field.linear_acceleration.z,type,delta_x,delta_z,field.angular_velocity.x,field.angular_velocity.y,field.angular_velocity.z,delta_angle,x,z
0,1644542202564553738,0.0392265990376,-9.62032318115,0.274586200714,acc,0.0,0.0,,,,,0,0
1,1644542202566255569,,,,gyr,0.0,0.0,-0.00174532923847,0.0,0.0,,0,0
2,1644542202566567659,0.0294199492782,-9.64974308014,0.264779537916,acc,1.1932371898514792e-07,-1.0739134482028975e-06,,,,,0.0,0.0
3,1644542202568581581,0.0294199492782,-9.58109664917,0.245166242123,acc,1.1932383748408468e-07,-9.943653048153203e-07,,,,,1.1932371898514792e-07,-1.0739134482028975e-06
4,1644542202570595503,0.0392265990376,-9.64974308014,0.313812792301,acc,1.5909844997877958e-07,-1.2727875998310479e-06,,,,,2.386475564692326e-07,-2.0682787530182176e-06
5,1644542202571265459,,,,gyr,1.5909844997877958e-07,-1.2727875998310479e-06,0.0,0.0,0.0,-0.0,2.386475564692326e-07,-2.0682787530182176e-06
6,1644542202572609186,0.0294199492782,-9.57129001617,0.245166242123,acc,1.1929551791166445e-07,-9.941293083802777e-07,,,,,3.977460064480122e-07,-3.3410663528492657e-06
7,1644542202574625015,0.0294199492782,-9.56148338318,0.196132987738,acc,1.1954992200262e-07,-7.969994497438957e-07,,,,,5.170415243596766e-07,-4.335195661229543e-06
8,1644542202576277018,,,,gyr,1.195290083281994e-07,-7.970025865146126e-07,-0.00174532923847,-0.00523598771542,0.0,2.624046135910254e-05,5.170415243596766e-07,-4.335195661229543e-06
9,1644542202576638937,0.0392265990376,-9.64974308014,0.294199496508,acc,1.5909844997877958e-07,-1.1932383899530623e-06,,,,,6.36570532687876e-07,-5.1321982477441556e-06
10,1644542202578652859,0.0294199492782,-9.67916297913,0.313812792301,acc,1.1932383748408468e-07,-1.2727875998310479e-06,,,,,7.956689826666556e-07,-6.325436637697218e-06
11,1644542202580666780,0.0392265990376,-9.67916297913,0.274586200714,acc,1.5909829198019726e-07,-1.1136880740809147e-06,,,,,9.149928201507402e-07,-7.598224237528266e-06
12,1644542202581288576,,,,gyr,1.5909829198019726e-07,-1.1136880740809147e-06,0.0,0.0,0.0,-0.0,9.149928201507402e-07,-7.598224237528266e-06
13,1644542202582680702,0.0392265990376,-9.67916297913,0.362846046686,acc,1.5909844997877958e-07,-1.4716606849687898e-06,,,,,1.0740911121309375e-06,-8.711912311609181e-06
14,1644542202584694386,0.0392265990376,-9.64974308014,0.362846046686,acc,1.5906084852879645e-07,-1.4713128715510892e-06,,,,,1.233189562109717e-06,-1.0183572996577971e-05
15,1644542202586300373,,,,gyr,1.59073718443395e-07,-1.471311480152046e-06,0.0,0.00174532923847,0.00174532923847,-8.74723584137623e-06,1.233189562109717e-06,-1.0183572996577971e-05
16,1644542202586708307,0.0294199492782,-9.62032318115,0.274586200714,acc,1.1932371898514792e-07,-1.1136880740809147e-06,,,,,1.392263280553112e-06,-1.1654884476730018e-05
17,1644542202588722229,0.0392265990376,-9.64974308014,0.313812792301,acc,1.5909844997877958e-07,-1.2727875998310479e-06,,,,,1.51158699953826e-06,-1.2768572550810933e-05
18,1644542202590738058,0.00980664975941,-9.66935634613,0.362846046686,acc,3.984997400091397e-08,-1.474449060740336e-06,,,,,1.6706854495170395e-06,-1.404136015064198e-05
19,1644542202591311932,,,,gyr,3.984997400091397e-08,-1.474449060740336e-06,0.0,0.0,0.0,-0.0,1.6706854495170395e-06,-1.404136015064198e-05
20,1644542202592750072,0.0,-9.62032318115,0.245166242123,acc,0.0,-9.924820637862383e-07,,,,,1.7105354235179535e-06,-1.5515809211382316e-05
21,1644542202594763994,0.0,-9.71838951111,0.343232750893,acc,0.0,-1.3921114750908047e-06,,,,,1.7105354235179535e-06,-1.6508291275168554e-05
22,1644542202596323729,,,,gyr,0.0,-1.3921114750908047e-06,0.0,0.0,0.00174532923847,-0.0,1.7105354235179535e-06,-1.6508291275168554e-05
23,1644542202601335526,,,,gyr,-1.2177127389950133e-11,-1.3921114750375466e-06,0.0,-0.00174532923847,0.0,8.74723584137623e-06,1.7105354235179535e-06,-1.6508291275168554e-05
24,1644542202606346846,,,,gyr,-3.652906423920497e-11,-1.3921114746115426e-06,-0.00174532923847,-0.00349065847695,0.00349065847695,1.7492806638709073e-05,1.7105354235179535e-06,-1.6508291275168554e-05
25,1644542202611358643,,,,gyr,-7.306044638024415e-11,-1.3921114731736348e-06,0.0,-0.00523598771542,0.0,2.6241707524178813e-05,1.7105354235179535e-06,-1.6508291275168554e-05
26,1644542202616370440,,,,gyr,-7.306044638024415e-11,-1.3921114731736348e-06,0.0,0.0,0.0,-0.0,1.7105354235179535e-06,-1.6508291275168554e-05
27,1644542202621381998,,,,gyr,-4.8707353016752084e-11,-1.3921114742387156e-06,0.0,0.00349065847695,0.0,-1.749363741542659e-05,1.7105354235179535e-06,-1.6508291275168554e-05
28,1644542202626393795,,,,gyr,-7.306160777342995e-11,-1.3921114731735738e-06,0.0,-0.00349065847695,0.0,1.749447168280258e-05,1.7105354235179535e-06,-1.6508291275168554e-05
29,1644542202631405592,,,,gyr,-8.523873514381448e-11,-1.3921114724812285e-06,-0.0069813169539,-0.00174532923847,0.0,8.74723584137623e-06,1.7105354235179535e-06,-1.6508291275168554e-05
30,1644542202636416912,,,,gyr,-8.523873514381448e-11,-1.3921114724812285e-06,-0.00349065847695,0.0,0.0,-0.0,1.7105354235179535e-06,-1.6508291275168554e-05
31,1644542202641426802,,,,gyr,-8.523873514381448e-11,-1.3921114724812285e-06,-0.00349065847695,0.0,0.00174532923847,-0.0,1.7105354235179535e-06,-1.6508291275168554e-05
32,1644542203333964825,0.0294199492782,-9.7478094101,0.696272134781,acc,0.01607558597747524,-0.3804555358185517,,,,,1.7104501847828097e-06,-1.7900402747649783e-05
33,1644542203335978508,0.0784531980753,-9.42419052124,-0.137293100357,acc,3.1812138109817744e-07,5.567124320272969e-07,,,,,0.016077296427660023,-0.3804734362212993
34,1644542203337994337,0.0980664938688,-9.94394302368,0.549172401428,acc,3.9849972487113514e-07,-2.23159860460255e-06,,,,,0.016077614549041122,-0.38047287950886727
35,1644542203337998390,,,,gyr,3.9849972487113514e-07,-2.23159860460255e-06,0.00349065847695,0.0,-0.00349065847695,-0.0,0.016077614549041122,-0.38047287950886727
36,1644542203340008020,0.0294199492782,-9.45361042023,-0.0392265990376,acc,1.1929551791166445e-07,1.5906069054888596e-07,,,,,0.016078013048765993,-0.3804751111074719
37,1644542203342023611,0.0294199492782,-9.61051654816,0.490332484245,acc,1.195216942097033e-07,-1.992028221695177e-06,,,,,0.016078132344283905,-0.38047495204678133
38,1644542203343007565,,,,gyr,1.1953910982976747e-07,-1.9920271766815613e-06,0.00174532923847,0.00174532923847,0.0,-8.742659588112963e-06,0.016078132344283905,-0.38047495204678133
39,1644542203344035387,0.12748645246,-9.67916297913,0.0294199492782,acc,5.159686107754219e-07,-1.1906967419082443e-07,,,,,0.016078251883393735,-0.380476944073958
40,1644542203346050978,0.0294199492782,-9.58109664917,0.343232750893,acc,1.195216942097033e-07,-1.3944198036189938e-06,,,,,0.01607876785200451,-0.38047706314363217
41,1644542203348018646,,,,gyr,1.194973030387406e-07,-1.394421894075842e-06,0.00349065847695,-0.00349065847695,0.00174532923847,1.7491972371333082e-05,0.01607876785200451,-0.38047706314363217
42,1644542203348064661,0.0784531980753,-9.5222568512,0.12748645246,acc,3.1812138109817744e-07,-5.169472669419571e-07,,,,,0.016078887349307548,-0.38047845756552623
43,1644542203350078344,0.0686465501785,-9.7478094101,0.402072638273,acc,2.7835621601364845e-07,-1.6303720705741994e-06,,,,,0.016079205470688647,-0.38047897451279317
44,1644542203352092028,0.0392265990376,-9.61051654816,0.0980664938688,acc,1.5906084852879645e-07,-3.9765210621659096e-07,,,,,0.01607948382690466,-0.38048060488486374
45,1644542203353029728,,,,gyr,1.5905041489248135e-07,-3.9765627951249716e-07,0.00349065847695,-0.00523598771542,0.00174532923847,2.6237963792962285e-05,0.01607948382690466,-0.38048060488486374
46,1644542203354105711,0.0686465501785,-9.58109664917,0.343232750893,acc,2.7835621601364845e-07,-1.3917810800702698e-06,,,,,0.016079642877319555,-0.38048100254114325
47,1644542203356121302,0.0686465501785,-9.64974308014,0.38245934248,acc,2.788839607233925e-07,-1.5537820322964049e-06,,,,,0.01607992123353557,-0.3804823943222233
48,1644542203358041048,,,,gyr,2.788839607233925e-07,-1.5537820322964049e-06,0.0069813169539,0.0,0.0,-0.0,0.01607992123353557,-0.3804823943222233
49,1644542203358134985,0.0784531980753,-9.64974308014,0.225552946329,acc,3.1812138109817744e-07,-9.145989782095978e-07,,,,,0.016080200117496293,-0.3804839481042556
50,1644542203360148668,0.0294199492782,-9.58109664917,0.274586200714,acc,1.1929551791166445e-07,-1.1134248640545938e-06,,,,,0.016080518238877392,-0.38048486270323384
51,1644542203362162352,0.0392265990376,-9.66935634613,0.343232750893,acc,1.5906084852879645e-07,-1.3917824623945239e-06,,,,,0.016080637534395304,-0.38048597612809787
52,1644542203363052130,,,,gyr,1.5906084852879645e-07,-1.3917824623945239e-06,0.00349065847695,0.0,0.0,-0.0,0.016080637534395304,-0.38048597612809787
53,1644542203364176035,0.0686465501785,-9.62032318115,0.176519691944,acc,2.7835621601364845e-07,-7.157730923646017e-07,,,,,0.01608079659524383,-0.38048736791056026
54,1644542203366191626,0.0686465501785,-9.61051654816,0.166713044047,acc,2.788839607233925e-07,-6.772895929538275e-07,,,,,0.016081074951459846,-0.3804880836836526
55,1644542203368063450,,,,gyr,2.788839607233925e-07,-6.772895929538275e-07,0.00349065847695,0.0,0.00174532923847,-0.0,0.016081074951459846,-0.3804880836836526
56,1644542203368203402,0.0,-9.64974308014,0.38245934248,acc,0.0,-1.5479057720223498e-06,,,,,0.01608135383542057,-0.3804887609732456
57,1644542203370218992,0.0392265990376,-9.64974308014,0.196132987738,acc,1.5936210081675026e-07,-7.968104738173585e-07,,,,,0.01608135383542057,-0.3804903088790176
58,1644542203372232676,0.0784531980753,-9.66935634613,0.274586200714,acc,3.1812169705799836e-07,-1.1134259699139971e-06,,,,,0.016081513197521387,-0.3804911056894914
59,1644542203373074532,,,,gyr,3.1812169705799836e-07,-1.1134259699139971e-06,0.00523598771542,0.0,0.0,-0.0,0.016081513197521387,-0.3804911056894914
60,1644542203374246359,0.0294199492782,-9.64974308014,0.245166242123,acc,1.1929551791166445e-07,-9.941293083802777e-07,,,,,0.016081831319218445,-0.3804922191154613
61,1644542203376261950,0.0392265990376,-9.67916297913,0.343232750893,acc,1.5936225894627104e-07,-1.3944198036189938e-06,,,,,0.016081950614736357,-0.3804932132447697
62,1644542203378085613,,,,gyr,1.5935006336383675e-07,-1.3944211973457778e-06,0.00349065847695,-0.00174532923847,0.0,8.745986185641486e-06,0.016081950614736357,-0.3804932132447697
63,1644542203378275633,0.0392265990376,-9.64974308014,0.166713044047,acc,1.5906069054888596e-07,-6.760079272792617e-07,,,,,0.01608210996479972,-0.38049460766596704
64,1644542203380289316,0.00980664975941,-9.66935634613,0.343232750893,acc,3.9765172637262036e-08,-1.3917810800702698e-06,,,,,0.01608226902549027,-0.38049528367389435
65,1644542203382301092,-0.00980664975941,-9.57129001617,0.294199496508,acc,-3.968989139698195e-08,-1.1906967569882706e-06,,,,,0.016082308790662907,-0.3804966754549744
66,1644542203383096933,,,,gyr,-3.968989139698195e-08,-1.1906967569882706e-06,0.00174532923847,0.0,0.00174532923847,-0.0,0.016082308790662907,-0.3804966754549744
67,1644542203384316683,0.0294199492782,-9.70858287811,0.294199496508,acc,1.195216942097033e-07,-1.1952169572343069e-06,,,,,0.01608226910077151,-0.38049786615173137
68,1644542203386330366,0.00980664975941,-9.67916297913,0.264779537916,acc,3.9765172637262036e-08,-1.0736596385469026e-06,,,,,0.016082388622465717,-0.3804990613686886
69,1644542203388108253,,,,gyr,3.9765172637262036e-08,-1.0736596385469026e-06,0.00174532923847,0.0,0.00349065847695,-0.0,0.016082388622465717,-0.3804990613686886
70,1644542203388344049,0.0,-9.61051654816,0.313812792301,acc,0.0,-1.2724855243918985e-06,,,,,0.016082428387638355,-0.38050013502832714
71,1644542203390359879,0.0294199492782,-9.66935634613,0.362846046686,acc,1.1955004061382333e-07,-1.4744505236118661e-06,,,,,0.016082428387638355,-0.38050140751385153
72,1644542203392373562,0.00980664975941,-9.66935634613,0.225552946329,acc,3.9765172637262036e-08,-9.145989782095978e-07,,,,,0.01608254793767897,-0.38050288196437515
73,1644542203393119335,,,,gyr,3.9765172637262036e-08,-9.145989782095978e-07,0.0,0.0,0.00174532923847,-0.0,0.01608254793767897,-0.38050288196437515
74,1644542203394387245,-0.00980664975941,-9.62032318115,0.343232750893,acc,-3.9765172637262036e-08,-1.3917810800702698e-06,,,,,0.016082587702851606,-0.38050379656335337
75,1644542203396400928,0.0,-9.66935634613,0.362846046686,acc,0.0,-1.4713114102368949e-06,,,,,0.01608254793767897,-0.3805051883444334
76,1644542203398130417,,,,gyr,0.0,-1.4713114102368949e-06,0.0,0.0,0.00174532923847,-0.0,0.01608254793767897,-0.3805051883444334
77,1644542203398416519,0.00980664975941,-9.66935634613,0.294199496508,acc,3.984056473660839e-08,-1.1952169572343069e-06,,,,,0.01608254793767897,-0.3805066596558437
78,1644542203400430202,-0.0294199492782,-9.67916297913,0.264779537916,acc,-1.1929551791166445e-07,-1.0736596385469026e-06,,,,,0.016082587778243704,-0.3805078548728009
79,1644542203402443886,0.00980664975941,-9.66935634613,0.343232750893,acc,3.976521213223966e-08,-1.3917824623945239e-06,,,,,0.016082468482725792,-0.38050892853243945
80,1644542203403141499,,,,gyr,3.9728694580700066e-08,-1.391783505273647e-06,-0.00174532923847,-0.00523598771542,0.0,2.6237963792962285e-05,0.016082468482725792,-0.38050892853243945
81,1644542203404457569,-0.00980664975941,-9.64974308014,0.343232750893,acc,-3.9765172637262036e-08,-1.3917810800702698e-06,,,,,0.016082508211420373,-0.38051032031594473
82,1644542203406471252,-0.00980664975941,-9.70858287811,0.294199496508,acc,-3.9765172637262036e-08,-1.1929551942252736e-06,,,,,0.016082468446247736,-0.3805117120970248
83,1644542203408152819,,,,gyr,-3.9765172637262036e-08,-1.1929551942252736e-06,0.0,0.0,0.00523598771542,-0.0,0.016082468446247736,-0.3805117120970248
84,1644542203408486843,0.00980664975941,-9.64974308014,0.343232750893,acc,3.984056473660839e-08,-1.3944198036189938e-06,,,,,0.0160824286810751,-0.380512905052219
85,1644542203410500526,-0.00980664975941,-9.64974308014,0.274586200714,acc,-3.9765172637262036e-08,-1.1134248640545938e-06,,,,,0.016082468521639835,-0.38051429947202264
86,1644542203412516117,0.0294199492782,-9.67916297913,0.264779537916,acc,1.195216942097033e-07,-1.0756952251862937e-06,,,,,0.016082428756467197,-0.3805154128968867
87,1644542203413161993,,,,gyr,1.195216942097033e-07,-1.0756952251862937e-06,-0.00174532923847,0.0,0.00174532923847,-0.0,0.016082428756467197,-0.3805154128968867
88,1644542203414529800,0.0294199492782,-9.70858287811,0.343232750893,acc,1.1929551791166445e-07,-1.3917810800702698e-06,,,,,0.016082548278161406,-0.38051648859211185
89,1644542203416545391,0.00980664975941,-9.62032318115,0.313812792301,acc,3.984056473660839e-08,-1.2748980715709808e-06,,,,,0.016082667573679318,-0.3805178803731919
90,1644542203418173075,,,,gyr,3.981826424422012e-08,-1.2748987682661378e-06,0.0,-0.00349065847695,0.0,1.7491975861991562e-05,0.016082667573679318,-0.3805178803731919
91,1644542203418559074,0.0,-9.67916297913,0.294199496508,acc,0.0,-1.1929551942252736e-06,,,,,0.016082707391943563,-0.3805191552719602
92,1644542203420572758,-0.0294199492782,-9.67916297913,0.264779537916,acc,-1.192956363965973e-07,-1.0736607049112757e-06,,,,,0.016082707391943563,-0.3805203482271544
93,1644542203422586441,-0.0294199492782,-9.61051654816,0.245166242123,acc,-1.1929551791166445e-07,-9.941293083802777e-07,,,,,0.016082588096307165,-0.3805214218878593
94,1644542203423184395,,,,gyr,-1.1929551791166445e-07,-9.941293083802777e-07,-0.0069813169539,0.0,0.0,-0.0,0.016082588096307165,-0.3805214218878593
95,1644542203424602032,0.0294199492782,-9.67916297913,0.274586200714,acc,1.195216942097033e-07,-1.11553584289357e-06,,,,,0.016082468800789253,-0.3805224160171677
96,1644542203426615715,0.0294199492782,-9.66935634613,0.264779537916,acc,1.1929551791166445e-07,-1.0736596385469026e-06,,,,,0.016082588322483462,-0.38052353155301055
97,1644542203428195477,,,,gyr,1.1930490812134245e-07,-1.0736585951486795e-06,-0.00349065847695,0.00174532923847,0.0,-8.745987930970724e-06,0.016082588322483462,-0.38052353155301055
98,1644542203428629398,0.00980664975941,-9.58109664917,0.196132987738,acc,3.9765172637262036e-08,-7.953034225352816e-07,,,,,0.016082707627391585,-0.3805246052116057
99,1644542203430643082,0.00980664975941,-9.64974308014,0.402072638273,acc,3.976521213223966e-08,-1.6303736898682743e-06,,,,,0.016082747392564222,-0.38052540051502826
100,1644542203432658911,0.00980664975941,-9.62032318115,0.166713044047,acc,3.984997400091397e-08,-6.774495504452347e-07,,,,,0.016082787157776356,-0.38052703088871814
101,1644542203433206797,,,,gyr,3.983812350082414e-08,-6.774502474294753e-07,-0.0104719754308,-0.00349065847695,0.00174532923847,1.7492806638709073e-05,0.016082787157776356,-0.38052703088871814
102,1644542203434670448,0.0,-9.61051654816,0.176519691944,acc,0.0,-7.142482937090045e-07,,,,,0.016082826995899857,-0.3805277083389656
103,1644542203436686277,0.00980664975941,-9.67916297913,0.313812792301,acc,3.984997400091397e-08,-1.2751991680287593e-06,,,,,0.016082826995899857,-0.38052842258725933
104,1644542203438218117,,,,gyr,3.982766718234592e-08,-1.2751998649215445e-06,-0.00872664619237,-0.00349065847695,0.00174532923847,1.7492806638709073e-05,0.016082826995899857,-0.38052842258725933
105,1644542203438699961,-0.00980664975941,-9.64974308014,0.176519691944,acc,-3.976521213223966e-08,-7.157738032741839e-07,,,,,0.01608286682356704,-0.38052969778712425
106,1644542203440713406,0.00980664975941,-9.64974308014,0.196132987738,acc,3.975577339040995e-08,-7.951154376053804e-07,,,,,0.016082827058354905,-0.38053041356092754
107,1644542203442729235,0.0294199492782,-9.62032318115,0.196132987738,acc,1.1954992200262e-07,-7.969994497438957e-07,,,,,0.016082866814128297,-0.38053120867636514
108,1644542203443228960,,,,gyr,1.1954992200262e-07,-7.969994497438957e-07,-0.00523598771542,0.0,0.0,-0.0,0.016082866814128297,-0.38053120867636514
109,1644542203444742918,0.00980664975941,-9.62032318115,0.294199496508,acc,3.9765172637262036e-08,-1.1929551942252736e-06,,,,,0.0160829863640503,-0.3805320056758149
110,1644542203446754456,0.00980664975941,-9.64974308014,0.225552946329,acc,3.9680501051939676e-08,-9.126515317311018e-07,,,,,0.016083026129222938,-0.38053319863100915
111,1644542203448240280,,,,gyr,3.9680501051939676e-08,-9.126515317311018e-07,-0.0069813169539,0.0,0.00523598771542,-0.0,0.016083026129222938,-0.38053319863100915
112,1644542203448770285,0.0392265990376,-9.62032318115,0.196132987738,acc,1.5939989600349333e-07,-7.969994497438957e-07,,,,,0.01608306580972399,-0.3805341112825409
113,1644542203450783968,0.0294199492782,-9.61051654816,0.176519691944,acc,1.1929551791166445e-07,-7.157730923646017e-07,,,,,0.016083225209619995,-0.38053490828199066
114,1644542203452797651,0.0294199492782,-9.61051654816,0.264779537916,acc,1.1929551791166445e-07,-1.0736596385469026e-06,,,,,0.016083344505137907,-0.380535624055083
115,1644542203453251362,,,,gyr,1.1928612769286126e-07,-1.073660681862999e-06,-0.00174532923847,-0.00174532923847,0.0,8.745987930970724e-06,0.016083344505137907,-0.380535624055083
116,1644542203454813242,0.0392265990376,-9.64974308014,0.166713044047,acc,1.5936225894627104e-07,-6.772895929538275e-07,,,,,0.0160834637912656,-0.38053669771576487
117,1644542203456826925,0.0392265990376,-9.70858287811,0.264779537916,acc,1.5906069054888596e-07,-1.0736596385469026e-06,,,,,0.016083623153524546,-0.38053737500535784
118,1644542203458262682,,,,gyr,1.5906069054888596e-07,-1.0736596385469026e-06,-0.00523598771542,0.0,0.00349065847695,-0.0,0.016083623153524546,-0.38053737500535784
119,1644542203458840609,0.0392265990376,-9.57129001617,0.225552946329,acc,1.5906084852879645e-07,-9.145998865940905e-07,,,,,0.016083782214215095,-0.38053844866499636
120,1644542203460854292,0.0392265990376,-9.58109664917,0.166713044047,acc,1.5906069054888596e-07,-6.760079272792617e-07,,,,,0.016083941275063622,-0.38053936326488297
121,1644542203462867975,0.0784531980753,-9.66935634613,0.274586200714,acc,3.1812138109817744e-07,-1.1134248640545938e-06,,,,,0.01608410033575417,-0.38054003927281027
122,1644542203463273764,,,,gyr,3.1812138109817744e-07,-1.1134248640545938e-06,0.0,0.0,0.00174532923847,-0.0,0.01608410033575417,-0.38054003927281027
123,1644542203464881659,0.00980664975941,-9.57129001617,0.137293100357,acc,3.976521213223966e-08,-5.567129849569986e-07,,,,,0.01608441845713527,-0.3805411526976743
124,1644542203466897249,0.0294199492782,-9.62032318115,0.264779537916,acc,1.1952157561256268e-07,-1.0756941578120511e-06,,,,,0.016084458222347404,-0.38054170941065923
125,1644542203468284845,,,,gyr,1.1952157561256268e-07,-1.0756941578120511e-06,-0.00174532923847,0.0,0.0,-0.0,0.016084458222347404,-0.38054170941065923
126,1644542203468910933,0.0686465501785,-9.62032318115,0.225552946329,acc,2.783564924784993e-07,-9.145998865940905e-07,,,,,0.016084577743923016,-0.38054278510481704
127,1644542203470924616,0.0686465501785,-9.56148338318,0.245166242123,acc,2.7835621601364845e-07,-9.941293083802777e-07,,,,,0.016084856100415493,-0.38054369970470364
128,1644542203472938299,0.0392265990376,-9.62032318115,0.274586200714,acc,1.5906069054888596e-07,-1.1134248640545938e-06,,,,,0.016085134456631508,-0.380544693834012
129,1644542203473296165,,,,gyr,1.5906069054888596e-07,-1.1134248640545938e-06,0.00523598771542,0.0,0.0,-0.0,0.016085134456631508,-0.380544693834012
130,1644542203474953890,0.0392265990376,-9.62032318115,0.176519691944,acc,1.5936225894627104e-07,-7.171301501241958e-07,,,,,0.016085293517322057,-0.38054580725887605
131,1644542203476967573,0.00980664975941,-9.61051654816,0.196132987738,acc,3.9765172637262036e-08,-7.953034225352816e-07,,,,,0.016085452879581002,-0.3805465243890262
132,1644542203478305340,,,,gyr,3.97512664969989e-08,-7.953041177204406e-07,0.00349065847695,-0.00349065847695,0.0,1.748531917627602e-05,0.016085452879581002,-0.3805465243890262
133,1644542203478981256,0.0392265990376,-9.67916297913,0.343232750893,acc,1.5906069054888596e-07,-1.3917810800702698e-06,,,,,0.0160854926308475,-0.3805473196931439
134,1644542203480994940,0.00980664975941,-9.57129001617,0.12748645246,acc,3.976521213223966e-08,-5.169477803766885e-07,,,,,0.01608565169153805,-0.380548711474224
135,1644542203483010530,0.0686465501785,-9.58109664917,0.166713044047,acc,2.788836839967236e-07,-6.772889209033715e-07,,,,,0.016085691456750182,-0.38054922842200434
136,1644542203483316422,,,,gyr,2.7889553107551413e-07,-6.772840425730882e-07,0.0,0.00349065847695,0.0,-1.7491975861991562e-05,0.016085691456750182,-0.38054922842200434
137,1644542203485024214,0.0294199492782,-9.66935634613,0.402072638273,acc,1.192956363965973e-07,-1.6303736898682743e-06,,,,,0.016085970352281258,-0.3805499057060469
138,1644542203487037897,0.0392265990376,-9.70858287811,0.264779537916,acc,1.5906069054888596e-07,-1.0736596385469026e-06,,,,,0.016086089647917655,-0.3805515360797368
139,1644542203488327742,,,,gyr,1.5906069054888596e-07,-1.0736596385469026e-06,0.00523598771542,0.0,0.00523598771542,-0.0,0.016086089647917655,-0.3805515360797368
140,1644542203489051580,0.0294199492782,-9.61051654816,0.176519691944,acc,1.1929551791166445e-07,-7.157730923646017e-07,,,,,0.016086248708608204,-0.3805526097393753
141,1644542203491065264,0.0686465501785,-9.71838951111,0.38245934248,acc,2.783564924784993e-07,-1.5508432807117092e-06,,,,,0.016086368004126116,-0.3805533255124677
142,1644542203493080854,0.00980664975941,-9.57129001617,0.294199496508,acc,3.9840525204228197e-08,-1.1952157712628857e-06,,,,,0.016086646360618594,-0.38055487635574836
143,1644542203493338823,,,,gyr,3.9840525204228197e-08,-1.1952157712628857e-06,0.0,0.0,0.0,-0.0,0.016086646360618594,-0.38055487635574836
144,1644542203495094538,0.0686465501785,-9.62032318115,0.294199496508,acc,2.783564924784993e-07,-1.1929563790746171e-06,,,,,0.0160866862011438,-0.3805560715715196
145,1644542203497108221,0.0392265990376,-9.64974308014,0.225552946329,acc,1.5906069054888596e-07,-9.145989782095978e-07,,,,,0.016086964557636276,-0.3805572645278987
146,1644542203498350143,,,,gyr,1.590686899943407e-07,-9.145975869656628e-07,0.00174532923847,0.00174532923847,0.0,-8.74640331932948e-06,0.016086964557636276,-0.3805572645278987
147,1644542203499121904,0.0392265990376,-9.64974308014,0.362846046686,acc,1.5906069054888596e-07,-1.4713114102368949e-06,,,,,0.01608712362632627,-0.3805581791254856
148,1644542203501135588,0.0294199492782,-9.66935634613,0.225552946329,acc,1.192956363965973e-07,-9.145998865940905e-07,,,,,0.01608728268701682,-0.3805596504368959
149,1644542203503151178,0.0392265990376,-9.67916297913,0.362846046686,acc,1.5936210081675026e-07,-1.4740994552575783e-06,,,,,0.016087401982653217,-0.3805605650367825
150,1644542203503360987,,,,gyr,1.593363171049319e-07,-1.4741022424577115e-06,-0.00349065847695,-0.00349065847695,0.00349065847695,1.7491145085274048e-05,0.016087401982653217,-0.3805605650367825
151,1644542203505164862,0.0392265990376,-9.67916297913,0.362846046686,acc,1.5906084852879645e-07,-1.4713128715510892e-06,,,,,0.016087561318970323,-0.3805620391390249
152,1644542203507178545,0.0294199492782,-9.62032318115,0.38245934248,acc,1.1929551791166445e-07,-1.5508417404075745e-06,,,,,0.01608772037981885,-0.38056351045189646
153,1644542203508372307,,,,gyr,1.1929551791166445e-07,-1.5508417404075745e-06,0.0,0.0,0.0,-0.0,0.01608772037981885,-0.38056351045189646
154,1644542203509192228,0.0686465501785,-9.66935634613,0.274586200714,acc,2.7835621601364845e-07,-1.1134248640545938e-06,,,,,0.016087839675336762,-0.3805650612936369
155,1644542203511207819,0.0294199492782,-9.70858287811,0.362846046686,acc,1.195216942097033e-07,-1.4741009179556681e-06,,,,,0.016088118031552776,-0.3805661747185009
156,1644542203513221502,0.0686465501785,-9.62032318115,0.294199496508,acc,2.7835621601364845e-07,-1.1929551942252736e-06,,,,,0.016088237553246985,-0.38056764881941885
157,1644542203513383627,,,,gyr,2.7835621601364845e-07,-1.1929551942252736e-06,-0.00349065847695,0.0,0.0,-0.0,0.016088237553246985,-0.38056764881941885
158,1644542203515235186,0.00980664975941,-9.66935634613,0.343232750893,acc,3.976521213223966e-08,-1.3917824623945239e-06,,,,,0.016088515909463,-0.3805688417746131
159,1644542203517248869,0.0294199492782,-9.66935634613,0.313812792301,acc,1.1929551791166445e-07,-1.2724855243918985e-06,,,,,0.016088555674675133,-0.3805702335570755
160,1644542203518394470,,,,gyr,1.1928438929486033e-07,-1.272486567650633e-06,0.0,-0.00174532923847,0.0,8.74557079728273e-06,0.016088555674675133,-0.3805702335570755
161,1644542203519262552,0.0294199492782,-9.67916297913,0.362846046686,acc,1.1929551791166445e-07,-1.4713114102368949e-06,,,,,0.016088674959064426,-0.38057150604364315
162,1644542203521276236,0.0294199492782,-9.70858287811,0.362846046686,acc,1.192956363965973e-07,-1.4713128715510892e-06,,,,,0.016088794254582338,-0.3805729773550534
163,1644542203523289680,0.0294199492782,-9.66935634613,0.294199496508,acc,1.192672017002381e-07,-1.1926720321074237e-06,,,,,0.016088913550218735,-0.38057444866792495
164,1644542203523405790,,,,gyr,1.192567701050558e-07,-1.1926730752208531e-06,-0.00349065847695,-0.00174532923847,-0.00174532923847,8.74640331932948e-06,0.016088913550218735,-0.38057444866792495
165,1644542203525305510,0.0294199492782,-9.67916297913,0.343232750893,acc,1.1955004061382333e-07,-1.3947505116760351e-06,,,,,0.01608903280698884,-0.3805756413410002
166,1644542203527319193,0.0294199492782,-9.67916297913,0.264779537916,acc,1.1929551791166445e-07,-1.0736596385469026e-06,,,,,0.016089152357029454,-0.3805770360915119
167,1644542203528417110,,,,gyr,1.1929551791166445e-07,-1.0736596385469026e-06,-0.00349065847695,0.0,0.00349065847695,-0.0,0.016089152357029454,-0.3805770360915119
168,1644542203529332876,0.00980664975941,-9.67916297913,0.343232750893,acc,3.9765172637262036e-08,-1.3917810800702698e-06,,,,,0.016089271652547366,-0.3805781097511504
169,1644542203531346321,0.0392265990376,-9.64974308014,0.196132987738,acc,1.590230935614776e-07,-7.951154376053804e-07,,,,,0.016089311417720003,-0.38057950153223047
170,1644542203533360004,0.0392265990376,-9.64974308014,0.362846046686,acc,1.5906069054888596e-07,-1.4713114102368949e-06,,,,,0.016089470440813564,-0.38058029664766807
171,1644542203533428192,,,,gyr,1.590349543808801e-07,-1.4713141922975665e-06,-0.00349065847695,-0.00349065847695,0.0,1.7491975861991562e-05,0.016089470440813564,-0.38058029664766807
172,1644542203535373688,0.0,-9.64974308014,0.196132987738,acc,0.0,-7.953042124348039e-07,,,,,0.016089629475767944,-0.3805817679618604
173,1644542203537389517,0.00980664975941,-9.66935634613,0.274586200714,acc,3.984997400091397e-08,-1.115799302301275e-06,,,,,0.016089629475767944,-0.3805825632660728
174,1644542203538439274,,,,gyr,3.984021523215867e-08,-1.1157996507859917e-06,-0.00523598771542,-0.00174532923847,0.0,8.745987930970724e-06,0.016089629475767944,-0.3805825632660728
175,1644542203539401054,-0.00980664975941,-9.66935634613,0.313812792301,acc,-3.968046159905218e-08,-1.2697747711691842e-06,,,,,0.016089669315983175,-0.3805836790657236
176,1644542203541416645,0.0294199492782,-9.61051654816,0.264779537916,acc,1.195216942097033e-07,-1.0756952251862937e-06,,,,,0.016089629635521574,-0.38058494884049476
177,1644542203543430328,0.00980664975941,-9.66935634613,0.274586200714,acc,3.9765172637262036e-08,-1.1134248640545938e-06,,,,,0.016089749157215782,-0.38058602453571994
178,1644542203543450356,,,,gyr,3.9765172637262036e-08,-1.1134248640545938e-06,-0.00349065847695,0.0,0.0,-0.0,0.016089749157215782,-0.38058602453571994
179,1644542203545444012,0.0,-9.62032318115,0.245166242123,acc,0.0,-9.941302957547106e-07,,,,,0.01608978892238842,-0.38058713796058397
180,1644542203547459602,0.0294199492782,-9.57129001617,0.274586200714,acc,1.1952157561256268e-07,-1.1155347359868945e-06,,,,,0.01608978892238842,-0.3805881320908797
181,1644542203548459768,,,,gyr,1.1949231596578638e-07,-1.1155378705608306e-06,-0.00349065847695,-0.00523598771542,0.0,2.6229219693477537e-05,0.01608978892238842,-0.3805881320908797
182,1644542203549471378,0.0,-9.62032318115,0.245166242123,acc,0.0,-9.922472773875712e-07,,,,,0.016089908414704385,-0.3805892476287503
183,1644542203551486969,0.0,-9.66935634613,0.196132987738,acc,0.0,-7.968112644649326e-07,,,,,0.016089908414704385,-0.3805902398760277
184,1644542203553470612,,,,gyr,-1.393714143162615e-11,-7.968112643430444e-07,-0.00872664619237,-0.00349065847695,0.0069813169539,1.7491145085274048e-05,0.016089908414704385,-0.3805902398760277
185,1644542203553500652,0.00980664975941,-9.62032318115,0.225552946329,acc,3.9765172637262036e-08,-9.145989782095978e-07,,,,,0.016089908400767242,-0.38059103668729205
186,1644542203555514336,0.00980664975941,-9.58109664917,0.294199496508,acc,3.976521213223966e-08,-1.1929563790746171e-06,,,,,0.01608994816593988,-0.38059195128627027
187,1644542203557528019,0.0294199492782,-9.58109664917,0.245166242123,acc,1.1929551791166445e-07,-9.941293083802777e-07,,,,,0.016089987931152013,-0.38059314424264934
188,1644542203558481932,,,,gyr,1.1929551791166445e-07,-9.941293083802777e-07,0.0,0.0,0.00174532923847,-0.0,0.016089987931152013,-0.38059314424264934
189,1644542203559541702,0.00980664975941,-9.61051654816,0.196132987738,acc,3.9765172637262036e-08,-7.953034225352816e-07,,,,,0.016090107226669925,-0.3805941383719577
190,1644542203561555386,-0.00980664975941,-9.58109664917,0.196132987738,acc,-3.976521213223966e-08,-7.953042124348039e-07,,,,,0.016090146991842563,-0.3805949336753803
191,1644542203563493252,,,,gyr,-3.976521213223966e-08,-7.953042124348039e-07,-0.00174532923847,0.0,0.00174532923847,-0.0,0.016090146991842563,-0.3805949336753803
192,1644542203563569069,-0.00980664975941,-9.61051654816,0.264779537916,acc,-3.9765172637262036e-08,-1.0736596385469026e-06,,,,,0.01609010722663043,-0.3805957289795927
193,1644542203565584660,0.0294199492782,-9.66935634613,0.166713044047,acc,1.195216942097033e-07,-6.772895929538275e-07,,,,,0.01609006746145779,-0.38059680263923124
194,1644542203567596436,0.0,-9.58109664917,0.225552946329,acc,0.0,-9.128675096688576e-07,,,,,0.016090186983152,-0.3805974799288242
195,1644542203568504333,,,,gyr,7.98392662878299e-12,-9.128675096339439e-07,-0.00349065847695,0.00174532923847,0.0,-8.745986185641486e-06,0.016090186983152,-0.3805974799288242
196,1644542203569612026,0.00980664975941,-9.64974308014,0.274586200714,acc,3.9840525204228197e-08,-1.1155347359868945e-06,,,,,0.016090186991135926,-0.38059839279633384
197,1644542203571627617,0.0294199492782,-9.58109664917,0.196132987738,acc,1.195216942097033e-07,-7.968112644649326e-07,,,,,0.01609022683166113,-0.3805995083310698
198,1644542203573515415,,,,gyr,1.195216942097033e-07,-7.968112644649326e-07,-0.0069813169539,0.0,0.0,-0.0,0.01609022683166113,-0.3805995083310698
199,1644542203573641300,0.00980664975941,-9.64974308014,0.264779537916,acc,3.9765172637262036e-08,-1.0736596385469026e-06,,,,,0.01609034635335534,-0.3806003051423343
200,1644542203575654984,0.0294199492782,-9.58109664917,0.264779537916,acc,1.192956363965973e-07,-1.0736607049112757e-06,,,,,0.016090386118527977,-0.3806013788019728
201,1644542203577668667,0.00980664975941,-9.62032318115,0.196132987738,acc,3.9765172637262036e-08,-7.953034225352816e-07,,,,,0.016090505414164374,-0.3806024524626777
202,1644542203578526497,,,,gyr,3.9765172637262036e-08,-7.953034225352816e-07,-0.00523598771542,0.0,0.0,-0.0,0.016090505414164374,-0.3806024524626777
203,1644542203579682350,0.0294199492782,-9.64974308014,0.264779537916,acc,1.1929551791166445e-07,-1.0736596385469026e-06,,,,,0.016090545179337012,-0.38060324776610027
204,1644542203581697941,0.0392265990376,-9.61051654816,0.245166242123,acc,1.5936225894627104e-07,-9.960141108496196e-07,,,,,0.016090664474854924,-0.3806043214257388
205,1644542203583537817,,,,gyr,1.5934483583963913e-07,-9.960168983904114e-07,-0.00349065847695,-0.00349065847695,0.00174532923847,1.7492806638709073e-05,0.016090664474854924,-0.3806043214257388
206,1644542203583711624,0.00980664975941,-9.56148338318,0.196132987738,acc,3.9765172637262036e-08,-7.953034225352816e-07,,,,,0.016090823819690764,-0.3806053174426372
207,1644542203585725307,0.0392265990376,-9.62032318115,0.196132987738,acc,1.5906069054888596e-07,-7.953034225352816e-07,,,,,0.0160908635848634,-0.38060611274605977
208,1644542203587740898,0.0392265990376,-9.61051654816,0.264779537916,acc,1.5936225894627104e-07,-1.0756952251862937e-06,,,,,0.01609102264555395,-0.38060690804948233
209,1644542203588548899,,,,gyr,1.5936225894627104e-07,-1.0756952251862937e-06,-0.00174532923847,0.0,0.00174532923847,-0.0,0.01609102264555395,-0.38060690804948233
210,1644542203589754581,0.0686465501785,-9.66935634613,0.264779537916,acc,2.7835621601364845e-07,-1.0736596385469026e-06,,,,,0.016091182007812895,-0.3806079837447075
211,1644542203591768265,0.0294199492782,-9.66935634613,0.245166242123,acc,1.192956363965973e-07,-9.941302957547106e-07,,,,,0.01609146036402891,-0.38060905740434603
212,1644542203593559980,,,,gyr,1.192956363965973e-07,-9.941302957547106e-07,-0.00174532923847,0.0,0.0,-0.0,0.01609146036402891,-0.38060905740434603
213,1644542203593781948,0.00980664975941,-9.64974308014,0.225552946329,acc,3.9765172637262036e-08,-9.145989782095978e-07,,,,,0.016091579659665307,-0.3806100515346418
214,1644542203595797539,0.0392265990376,-9.61051654816,0.274586200714,acc,1.5936225894627104e-07,-1.11553584289357e-06,,,,,0.016091619424837944,-0.38061096613362
215,1644542203597811222,0.0686465501785,-9.62032318115,0.313812792301,acc,2.7835621601364845e-07,-1.2724855243918985e-06,,,,,0.01609177878709689,-0.38061208166946287
216,1644542203598571301,,,,gyr,2.7835621601364845e-07,-1.2724855243918985e-06,-0.00349065847695,0.0,0.0,-0.0,0.01609177878709689,-0.38061208166946287
217,1644542203599824905,0.0,-9.66935634613,0.264779537916,acc,0.0,-1.0736596385469026e-06,,,,,0.016092057143312903,-0.38061335415498726
218,1644542203601840496,0.0294199492782,-9.61051654816,0.264779537916,acc,1.195216942097033e-07,-1.0756952251862937e-06,,,,,0.016092057143312903,-0.3806144278146258
219,1644542203603582621,,,,gyr,1.195216942097033e-07,-1.0756952251862937e-06,-0.00349065847695,0.0,0.0,-0.0,0.016092057143312903,-0.3806144278146258
220,1644542203603854179,0.0392265990376,-9.67916297913,0.264779537916,acc,1.5906069054888596e-07,-1.0736596385469026e-06,,,,,0.01609217666500711,-0.38061550350985096
221,1644542203605867863,0.0294199492782,-9.67916297913,0.274586200714,acc,1.192956363965973e-07,-1.1134259699139971e-06,,,,,0.01609233572569766,-0.3806165771694895
222,1644542203607881546,0.0392265990376,-9.66935634613,0.294199496508,acc,1.5906069054888596e-07,-1.1929551942252736e-06,,,,,0.016092455021334058,-0.3806176905954594
223,1644542203608591557,,,,gyr,1.5905026143926266e-07,-1.1929565847268086e-06,-0.00349065847695,-0.00174532923847,0.0,8.742242454424967e-06,0.016092455021334058,-0.3806176905954594
224,1644542203609897375,0.0392265990376,-9.66935634613,0.274586200714,acc,1.5939989600349333e-07,-1.115799302301275e-06,,,,,0.0160926140715955,-0.38061888355204415
225,1644542203611910820,0.0294199492782,-9.66935634613,0.274586200714,acc,1.192673201711082e-07,-1.1131616851355941e-06,,,,,0.016092773471491503,-0.38061999935134644
226,1644542203613604784,,,,gyr,1.1925758030050133e-07,-1.113162728650031e-06,-0.00174532923847,-0.00174532923847,0.0,8.749731662187243e-06,0.016092773471491503,-0.38061999935134644
227,1644542203613924503,0.0392265990376,-9.66935634613,0.294199496508,acc,1.5906069054888596e-07,-1.1929551942252736e-06,,,,,0.016092892729071804,-0.3806211125140751
228,1644542203615938187,0.0392265990376,-9.62032318115,0.294199496508,acc,1.5906084852879645e-07,-1.1929563790746171e-06,,,,,0.016093051789762353,-0.38062230546926934
229,1644542203617951870,0.0392265990376,-9.70858287811,0.294199496508,acc,1.5906069054888596e-07,-1.1929551942252736e-06,,,,,0.01609321085061088,-0.3806234984256484
230,1644542203618613720,,,,gyr,1.5906069054888596e-07,-1.1929551942252736e-06,-0.00174532923847,0.0,0.00349065847695,-0.0,0.01609321085061088,-0.3806234984256484
231,1644542203619965553,0.0686465501785,-9.7478094101,0.274586200714,acc,2.7835621601364845e-07,-1.1134248640545938e-06,,,,,0.01609336991130143,-0.38062469138084265
232,1644542203621979237,0.00980664975941,-9.62032318115,0.343232750893,acc,3.976521213223966e-08,-1.3917824623945239e-06,,,,,0.016093648267517444,-0.3806258048057067
233,1644542203623625040,,,,gyr,3.976521213223966e-08,-1.3917824623945239e-06,-0.00349065847695,0.0,0.0,-0.0,0.016093648267517444,-0.3806258048057067
234,1644542203623992920,0.00980664975941,-9.67916297913,0.362846046686,acc,3.9765172637262036e-08,-1.4713114102368949e-06,,,,,0.016093688032729578,-0.38062719658816907
235,1644542203626008511,0.0686465501785,-9.67916297913,0.274586200714,acc,2.788839607233925e-07,-1.11553584289357e-06,,,,,0.016093727797902215,-0.38062866789957933
236,1644542203628022194,0.0294199492782,-9.61051654816,0.274586200714,acc,1.1929551791166445e-07,-1.1134248640545938e-06,,,,,0.01609400668186294,-0.3806297834354222
237,1644542203628636122,,,,gyr,1.192760418925689e-07,-1.1134269505985765e-06,-0.00523598771542,-0.00349065847695,0.0,1.7491975861991562e-05,0.01609400668186294,-0.3806297834354222
238,1644542203630033970,0.0,-9.62032318115,0.343232750893,acc,0.0,-1.3891462365889697e-06,,,,,0.016094125957904833,-0.3806308968623728
239,1644542203632049561,0.0392265990376,-9.64974308014,0.294199496508,acc,1.5936225894627104e-07,-1.1952169572343069e-06,,,,,0.016094125957904833,-0.3806322860086094
240,1644542203633647203,,,,gyr,1.5936225894627104e-07,-1.1952169572343069e-06,-0.00523598771542,0.0,0.0,-0.0,0.016094125957904833,-0.3806322860086094
241,1644542203634063244,0.0294199492782,-9.64974308014,0.225552946329,acc,1.1929551791166445e-07,-9.145989782095978e-07,,,,,0.016094285320163777,-0.3806334812255666
242,1644542203636076927,0.0294199492782,-9.64974308014,0.362846046686,acc,1.1929551791166445e-07,-1.4713114102368949e-06,,,,,0.01609440461568169,-0.38063439582454484
243,1644542203638090611,0.0686465501785,-9.67916297913,0.294199496508,acc,2.783564924784993e-07,-1.1929563790746171e-06,,,,,0.0160945239111996,-0.3806358671359551
244,1644542203638658524,,,,gyr,2.7832519014353153e-07,-1.19296368251985e-06,-0.0069813169539,-0.00523598771542,-0.00349065847695,2.6239215194026272e-05,0.0160945239111996,-0.3806358671359551
245,1644542203640106201,0.0392265990376,-9.67916297913,0.245166242123,acc,1.5936210081675026e-07,-9.960131225401222e-07,,,,,0.016094802236389746,-0.3806370600996376
246,1644542203642119884,0.0294199492782,-9.66935634613,0.264779537916,acc,1.1929551791166445e-07,-1.0736596385469026e-06,,,,,0.016094961598490564,-0.38063805611276014
247,1644542203643669605,,,,gyr,1.1928612769473516e-07,-1.073660681862791e-06,-0.00174532923847,-0.00174532923847,0.0,8.745986185641486e-06,0.016094961598490564,-0.38063805611276014
248,1644542203644133568,0.00980664975941,-9.67916297913,0.38245934248,acc,3.976521213223966e-08,-1.5508432807117092e-06,,,,,0.01609508088461826,-0.380639129773442
249,1644542203646147251,0.0294199492782,-9.61051654816,0.225552946329,acc,1.1929551791166445e-07,-9.145989782095978e-07,,,,,0.016095120649830392,-0.3806406806167227
250,1644542203648160934,0.0294199492782,-9.67916297913,0.225552946329,acc,1.1929551791166445e-07,-9.145989782095978e-07,,,,,0.016095239945348304,-0.3806415952157009
251,1644542203648680925,,,,gyr,1.193035173586402e-07,-9.145979347679007e-07,-0.00174532923847,0.00174532923847,0.00174532923847,-8.74640331932948e-06,0.016095239945348304,-0.3806415952157009
252,1644542203650176525,0.0294199492782,-9.70858287811,0.38245934248,acc,1.195216942097033e-07,-1.5537820322964049e-06,,,,,0.016095359248865664,-0.3806425098136357
253,1644542203652190208,0.0294199492782,-9.64974308014,0.343232750893,acc,1.1929551791166445e-07,-1.3917810800702698e-06,,,,,0.016095478770559873,-0.380644063595668
254,1644542203653692007,,,,gyr,1.1929551791166445e-07,-1.3917810800702698e-06,-0.00174532923847,0.0,0.0,-0.0,0.016095478770559873,-0.380644063595668
255,1644542203654203892,0.0294199492782,-9.70858287811,0.225552946329,acc,1.192956363965973e-07,-9.145998865940905e-07,,,,,0.016095598066077785,-0.38064545537674804
256,1644542203656217575,0.0392265990376,-9.71838951111,0.402072638273,acc,1.5906069054888596e-07,-1.6303720705741994e-06,,,,,0.016095717361714182,-0.38064636997663465
257,1644542203658231258,0.0,-9.58109664917,0.264779537916,acc,0.0,-1.0736596385469026e-06,,,,,0.01609587642240473,-0.3806480003487052
258,1644542203658703089,,,,gyr,-9.390214240581887e-12,-1.0736596385058393e-06,-0.00349065847695,-0.00174532923847,0.00174532923847,8.745987930970724e-06,0.01609587642240473,-0.3806480003487052
259,1644542203660246849,0.00980664975941,-9.67916297913,0.274586200714,acc,3.984056473660839e-08,-1.11553584289357e-06,,,,,0.016095876413014517,-0.38064907400834375
260,1644542203662260532,0.0294199492782,-9.64974308014,0.343232750893,acc,1.1929551791166445e-07,-1.3917810800702698e-06,,,,,0.016095916253579253,-0.3806501895441866
261,1644542203663714409,,,,gyr,1.192711717360965e-07,-1.391783166670756e-06,-0.00872664619237,-0.00349065847695,0.00174532923847,1.7492806638709073e-05,0.016095916253579253,-0.3806501895441866
262,1644542203664274216,0.0294199492782,-9.58109664917,0.245166242123,acc,1.192956363965973e-07,-9.941302957547106e-07,,,,,0.01609603552475099,-0.38065158132735327
263,1644542203666287899,0.0294199492782,-9.64974308014,0.264779537916,acc,1.1929551791166445e-07,-1.0736596385469026e-06,,,,,0.016096154820387388,-0.380652575457649
264,1644542203668303490,0.0784531980753,-9.66935634613,0.176519691944,acc,3.1872451789294834e-07,-7.171301501241958e-07,,,,,0.0160962741159053,-0.38065364911728755
265,1644542203668725252,,,,gyr,3.1871824616826085e-07,-7.171329375246069e-07,-0.00872664619237,-0.00174532923847,0.00174532923847,8.74557079728273e-06,0.0160962741159053,-0.38065364911728755
266,1644542203670317173,0.0294199492782,-9.57129001617,0.176519691944,acc,1.1929551791166445e-07,-7.157730923646017e-07,,,,,0.016096592834151466,-0.3806543662502251
267,1644542203672330856,0.0,-9.64974308014,0.38245934248,acc,0.0,-1.5508417404075745e-06,,,,,0.01609671212966938,-0.38065508202331744
268,1644542203673736572,,,,gyr,0.0,-1.5508417404075745e-06,-0.00872664619237,0.0,0.0,-0.0,0.01609671212966938,-0.38065508202331744
269,1644542203674344540,0.0294199492782,-9.62032318115,0.225552946329,acc,1.192956363965973e-07,-9.145998865940905e-07,,,,,0.01609671212966938,-0.38065663286505785
270,1644542203676358223,0.0294199492782,-9.67916297913,0.196132987738,acc,1.1929551791166445e-07,-7.953034225352816e-07,,,,,0.016096831425305776,-0.38065754746494446
271,1644542203678373814,0.00980664975941,-9.58109664917,0.294199496508,acc,3.984056473660839e-08,-1.1952169572343069e-06,,,,,0.016096950720823688,-0.380658342768367
272,1644542203678747892,,,,gyr,3.9830110885522556e-08,-1.1952173056502378e-06,-0.00349065847695,-0.00174532923847,0.0,8.74640331932948e-06,0.016096950720823688,-0.380658342768367
273,1644542203680387497,0.0686465501785,-9.61051654816,0.294199496508,acc,2.7835621601364845e-07,-1.1929551942252736e-06,,,,,0.016096990550934574,-0.38065953798567265
274,1644542203682401180,0.0294199492782,-9.67916297913,0.225552946329,acc,1.1929551791166445e-07,-9.145989782095978e-07,,,,,0.01609726890715059,-0.3806607309408669
275,1644542203683756828,,,,gyr,1.192875222610898e-07,-9.146000210849891e-07,-0.00349065847695,-0.00174532923847,0.0,8.742242454424967e-06,0.01609726890715059,-0.3806607309408669
276,1644542203684412956,0.0,-9.56148338318,0.0686465501785,acc,0.0,-2.7782924731738924e-07,,,,,0.01609738819467285,-0.380661645540888
277,1644542203686428547,0.00980664975941,-9.70858287811,0.490332484245,acc,3.984056473660839e-08,-1.992028221695177e-06,,,,,0.01609738819467285,-0.3806619233701353
278,1644542203688442230,0.0392265990376,-9.58109664917,0.0,acc,1.5906069054888596e-07,-0.0,,,,,0.016097428035237588,-0.38066391539835703
279,1644542203688768148,,,,gyr,1.5906069054888596e-07,0.0,-0.00523598771542,0.0,0.00174532923847,-0.0,0.016097428035237588,-0.38066391539835703
280,1644542203690455914,0.0392265990376,-9.70858287811,0.274586200714,acc,1.5906084852879645e-07,-1.1134259699139971e-06,,,,,0.016097587095928137,-0.38066391539835703
281,1644542203692469597,0.0,-9.58109664917,0.264779537916,acc,0.0,-1.0736596385469026e-06,,,,,0.016097746156776664,-0.38066502882432696
282,1644542203693778992,,,,gyr,0.0,-1.0736596385469026e-06,-0.00174532923847,0.0,0.00349065847695,-0.0,0.016097746156776664,-0.38066502882432696
283,1644542203694482803,0.0,-9.58109664917,0.196132987738,acc,0.0,-7.949266851825816e-07,,,,,0.016097746156776664,-0.3806661024839655
284,1644542203696498871,0.0294199492782,-9.66935634613,0.245166242123,acc,1.195782717536712e-07,-9.964855903791048e-07,,,,,0.016097746156776664,-0.3806668974106507
285,1644542203698512554,0.0,-9.57129001617,0.225552946329,acc,0.0,-9.145989782095978e-07,,,,,0.016097865735048417,-0.38066789389624106
286,1644542203698790312,,,,gyr,0.0,-9.145989782095978e-07,-0.00523598771542,0.0,0.0,-0.0,0.016097865735048417,-0.38066789389624106
287,1644542203700523853,-0.0294199492782,-9.62032318115,0.38245934248,acc,-1.190132171088394e-07,-1.5471718299529686e-06,,,,,0.016097865735048417,-0.3806688084952193
288,1644542203702537537,0.0,-9.61051654816,0.12748645246,acc,0.0,-5.169477803766885e-07,,,,,0.01609774672183131,-0.3806703556670492
289,1644542203703801632,,,,gyr,-4.521433782149028e-12,-5.169477803569154e-07,-0.00349065847695,-0.00174532923847,0.0,8.74640331932948e-06,0.01609774672183131,-0.3806703556670492
290,1644542203704553127,0.00980664975941,-9.61051654816,0.196132987738,acc,3.9840525204228197e-08,-7.968104738173585e-07,,,,,0.016097746717309874,-0.38067087261482957
291,1644542203706566811,-0.0392265990376,-9.58109664917,0.245166242123,acc,-1.5906084852879645e-07,-9.941302957547106e-07,,,,,0.01609778655783508,-0.3806716694253034
292,1644542203708580494,-0.0294199492782,-9.66935634613,0.294199496508,acc,-1.1929551791166445e-07,-1.1929551942252736e-06,,,,,0.016097627496986552,-0.38067266355559914
293,1644542203708812475,,,,gyr,-1.19316384041633e-07,-1.192953107427992e-06,-0.0069813169539,-0.00349065847695,0.0,1.749114159461557e-05,0.016097627496986552,-0.38067266355559914
294,1644542203710594177,0.00980664975941,-9.61051654816,0.00980664975941,acc,3.9765172637262036e-08,-3.9765172637262036e-08,,,,,0.016097508180602512,-0.38067385650870655
295,1644542203712607861,-0.0294199492782,-9.66935634613,0.343232750893,acc,-1.192956363965973e-07,-1.3917824623945239e-06,,,,,0.01609754794577515,-0.3806738962738792
296,1644542203713823795,,,,gyr,-1.1933215562777252e-07,-1.3917793316921553e-06,0.0,-0.00523598771542,0.0,2.6239209958038555e-05,0.01609754794577515,-0.3806738962738792
297,1644542203714621544,0.0,-9.67916297913,0.362846046686,acc,0.0,-1.4713114102368949e-06,,,,,0.01609742861361952,-0.3806752880532109
298,1644542203716637135,0.0294199492782,-9.64974308014,0.137293100357,acc,1.195216942097033e-07,-5.57767921446785e-07,,,,,0.01609742861361952,-0.38067675936462114
299,1644542203718648911,0.0294199492782,-9.67916297913,0.196132987738,acc,1.1906967419082443e-07,-7.937977977868717e-07,,,,,0.01609754813531373,-0.3806773171325426
300,1644542203718834877,,,,gyr,1.1906273164031148e-07,-7.937988391384453e-07,0.00174532923847,-0.00174532923847,0.0,8.745987930970724e-06,0.01609754813531373,-0.3806773171325426
301,1644542203720662594,-0.0294199492782,-9.66935634613,0.362846046686,acc,-1.1929551791166445e-07,-1.4713114102368949e-06,,,,,0.016097667198045368,-0.38067811093138176
302,1644542203722676277,-0.00980664975941,-9.67916297913,0.245166242123,acc,-3.9765172637262036e-08,-9.941293083802777e-07,,,,,0.016097547902527456,-0.380679582242792
303,1644542203723845959,,,,gyr,-3.9773867278673975e-08,-9.941289605565362e-07,0.00349065847695,-0.00174532923847,0.00174532923847,8.745987930970724e-06,0.016097547902527456,-0.380679582242792
304,1644542203724691868,0.0392265990376,-9.70858287811,0.176519691944,acc,1.5936225894627104e-07,-7.171301501241958e-07,,,,,0.016097508128660176,-0.38068057637175257
305,1644542203726703644,-0.00980664975941,-9.64974308014,0.294199496508,acc,-3.968989139698195e-08,-1.1906967569882706e-06,,,,,0.01609766749091912,-0.3806812935019027
306,1644542203728719234,0.00980664975941,-9.64974308014,0.38245934248,acc,3.9840525204228197e-08,-1.5537804905335698e-06,,,,,0.016097627801027723,-0.3806824841986597
307,1644542203728857279,,,,gyr,3.9826935211864565e-08,-1.5537808389354401e-06,0.00523598771542,-0.00174532923847,0.0,8.74640331932948e-06,0.016097627801027723,-0.3806824841986597
308,1644542203730732918,0.0392265990376,-9.62032318115,0.245166242123,acc,1.5906084852879645e-07,-9.941302957547106e-07,,,,,0.016097667627962935,-0.3806840379794986
309,1644542203732746601,0.0294199492782,-9.64974308014,0.264779537916,acc,1.1929551791166445e-07,-1.0736596385469026e-06,,,,,0.016097826688811462,-0.3806850321097944
310,1644542203733868361,,,,gyr,1.1929551791166445e-07,-1.0736596385469026e-06,0.0069813169539,0.0,-0.00174532923847,-0.0,0.016097826688811462,-0.3806850321097944
311,1644542203734760284,0.0294199492782,-9.64974308014,0.313812792301,acc,1.1929551791166445e-07,-1.2724855243918985e-06,,,,,0.016097945984329374,-0.3806861057694329
312,1644542203736775875,0.0686465501785,-9.71838951111,0.343232750893,acc,2.788839607233925e-07,-1.3944198036189938e-06,,,,,0.016098065279847286,-0.3806873782549573
313,1644542203738789558,0.0784531980753,-9.70858287811,0.264779537916,acc,3.1812138109817744e-07,-1.0736596385469026e-06,,,,,0.01609834416380801,-0.3806887726747609
314,1644542203738879442,,,,gyr,3.181026006247771e-07,-1.073665202953058e-06,0.00349065847695,-0.00349065847695,0.00349065847695,1.7491972371333082e-05,0.01609834416380801,-0.3806887726747609
315,1644542203740803242,0.0392265990376,-9.66935634613,0.402072638273,acc,1.5906084852879645e-07,-1.6303736898682743e-06,,,,,0.016098662266408634,-0.3806898463399639
316,1644542203742816687,0.0294199492782,-9.66935634613,0.343232750893,acc,1.192673201711082e-07,-1.3914521064215196e-06,,,,,0.01609882132725716,-0.3806914767136538
317,1644542203743890524,,,,gyr,1.1925515054321756e-07,-1.3914531494788446e-06,0.00523598771542,-0.00174532923847,0.00174532923847,8.745987930970724e-06,0.01609882132725716,-0.3806914767136538
318,1644542203744830370,0.0980664938688,-9.7478094101,0.274586200714,acc,3.9765171126682975e-07,-1.1134248640545938e-06,,,,,0.016098940582407704,-0.38069286816680326
319,1644542203746844053,0.0686465501785,-9.66935634613,0.196132987738,acc,2.7835621601364845e-07,-7.953034225352816e-07,,,,,0.016099338234118972,-0.3806939815916673
320,1644542203748857737,0.0294199492782,-9.71838951111,0.509945809841,acc,1.192956363965973e-07,-2.067791121510809e-06,,,,,0.016099616590334986,-0.38069477689508985
321,1644542203748901606,,,,gyr,1.192956363965973e-07,-2.067791121510809e-06,0.00174532923847,0.0,0.0,-0.0,0.016099616590334986,-0.38069477689508985
322,1644542203750871420,0.0392265990376,-9.58109664917,0.264779537916,acc,1.5906069054888596e-07,-1.0736596385469026e-06,,,,,0.016099735885971383,-0.38069684468621134
323,1644542203752885103,0.0686465501785,-9.66935634613,0.343232750893,acc,2.7835621601364845e-07,-1.3917810800702698e-06,,,,,0.016099894946661933,-0.3806979183458499
324,1644542203753912926,,,,gyr,2.783318698137443e-07,-1.3917859490887916e-06,0.0069813169539,-0.00349065847695,0.0,1.7492806638709073e-05,0.016099894946661933,-0.3806979183458499
325,1644542203754898787,0.0294199492782,-9.64974308014,0.264779537916,acc,1.192956363965973e-07,-1.0736607049112757e-06,,,,,0.016100173278531745,-0.380699310131799
326,1644542203756912470,0.0392265990376,-9.66935634613,0.362846046686,acc,1.5906069054888596e-07,-1.4713114102368949e-06,,,,,0.016100292574168142,-0.38070038379250387
327,1644542203758922100,,,,gyr,1.5906069054888596e-07,-1.4713114102368949e-06,0.00349065847695,0.0,0.0,-0.0,0.016100292574168142,-0.38070038379250387
328,1644542203758925915,0.0392265990376,-9.66935634613,0.294199496508,acc,1.590230935614776e-07,-1.1926732168161398e-06,,,,,0.01610045163485869,-0.38070185510391413
329,1644542203760939598,0.0392265990376,-9.66935634613,0.264779537916,acc,1.5906069054888596e-07,-1.0736596385469026e-06,,,,,0.016100610657952253,-0.38070304777713093
330,1644542203762953281,0.0294199492782,-9.62032318115,0.38245934248,acc,1.1929551791166445e-07,-1.5508417404075745e-06,,,,,0.016100769718642802,-0.38070412143676946
331,1644542203763933182,,,,gyr,1.1926839060712647e-07,-1.550843826884639e-06,0.00523598771542,-0.00349065847695,0.0,1.7491975861991562e-05,0.016100769718642802,-0.38070412143676946
332,1644542203764966965,0.0392265990376,-9.66935634613,0.343232750893,acc,1.5906084852879645e-07,-1.3917824623945239e-06,,,,,0.01610088898703341,-0.3807056722805963
333,1644542203766980648,0.0392265990376,-9.66935634613,0.264779537916,acc,1.5906069054888596e-07,-1.0736596385469026e-06,,,,,0.016101048047881938,-0.3807070640630587
334,1644542203768944263,,,,gyr,1.5906069054888596e-07,-1.0736596385469026e-06,0.00872664619237,0.0,-0.00349065847695,-0.0,0.016101048047881938,-0.3807070640630587
335,1644542203768994331,0.0686465501785,-9.64974308014,0.294199496508,acc,2.7835621601364845e-07,-1.1929551942252736e-06,,,,,0.016101207108572487,-0.38070813772269724
336,1644542203771009922,0.0294199492782,-9.61051654816,0.225552946329,acc,1.195216942097033e-07,-9.163329965088831e-07,,,,,0.0161014854647885,-0.3807093306778915
337,1644542203773023605,0.0294199492782,-9.66935634613,0.274586200714,acc,1.1929551791166445e-07,-1.1134248640545938e-06,,,,,0.01610160498648271,-0.38071024701088796
338,1644542203773955345,,,,gyr,1.192857799066789e-07,-1.1134259073691694e-06,0.0,-0.00174532923847,0.0,8.745987930970724e-06,0.01610160498648271,-0.38071024701088796
339,1644542203775037050,0.0686465501785,-9.58109664917,0.225552946329,acc,2.7829042128389853e-07,-9.143827955302144e-07,,,,,0.016101724272262617,-0.3807113604367953
340,1644542203777050734,0.0980664938688,-9.61051654816,0.225552946329,acc,3.9765210621659096e-07,-9.145998865940905e-07,,,,,0.0161020025626839,-0.38071227481959086
341,1644542203778966665,,,,gyr,3.976281077012508e-07,-9.146103203563453e-07,0.0069813169539,-0.00523598771542,-0.00523598771542,2.6239209958038555e-05,0.0161020025626839,-0.38071227481959086
342,1644542203779064417,0.0294199492782,-9.64974308014,0.176519691944,acc,1.1929551791166445e-07,-7.157730923646017e-07,,,,,0.0161024001907916,-0.3807131894299112
343,1644542203781078100,0.0686465501785,-9.62032318115,0.176519691944,acc,2.7835621601364845e-07,-7.157730923646017e-07,,,,,0.016102519486309513,-0.3807139052030036
344,1644542203783091784,0.0784531980753,-9.58109664917,0.166713044047,acc,3.1812169705799836e-07,-6.760085986938737e-07,,,,,0.016102797842525527,-0.38071462097609593
345,1644542203783977747,,,,gyr,3.181157846827861e-07,-6.760113809565421e-07,0.0104719754308,-0.00174532923847,-0.00349065847695,8.745987930970724e-06,0.016102797842525527,-0.38071462097609593
346,1644542203785105467,0.0294199492782,-9.61051654816,0.264779537916,acc,1.1929551791166445e-07,-1.0736596385469026e-06,,,,,0.01610311595831021,-0.38071529698747686
347,1644542203787119150,0.0294199492782,-9.66935634613,0.264779537916,acc,1.1929551791166445e-07,-1.0736596385469026e-06,,,,,0.016103235253828122,-0.3807163706471154
348,1644542203788988829,,,,gyr,1.192673472278822e-07,-1.073662768248812e-06,0.0209439508617,-0.00523598771542,-0.0104719754308,2.6237963792962285e-05,0.016103235253828122,-0.3807163706471154
349,1644542203789132833,0.0294199492782,-9.62032318115,0.294199496508,acc,1.1929551791166445e-07,-1.1929551942252736e-06,,,,,0.01610335452117535,-0.38071744430988363
350,1644542203791146517,0.00980664975941,-9.61051654816,0.313812792301,acc,3.976521213223966e-08,-1.2724867882311824e-06,,,,,0.01610347381669326,-0.3807186372650779
351,1644542203793160200,0.00980664975941,-9.62032318115,0.274586200714,acc,3.9765172637262036e-08,-1.1134248640545938e-06,,,,,0.016103513581905395,-0.3807199097518661
352,1644542203793999910,,,,gyr,3.9745696634219975e-08,-1.1134255594555581e-06,0.0209439508617,-0.00349065847695,-0.00523598771542,1.7491972371333082e-05,0.016103513581905395,-0.3807199097518661
353,1644542203795173883,-0.00980664975941,-9.64974308014,0.225552946329,acc,-3.9765172637262036e-08,-9.145989782095978e-07,,,,,0.01610355332760203,-0.38072102317742557
354,1644542203797187567,0.00980664975941,-9.64974308014,0.225552946329,acc,3.976521213223966e-08,-9.145998865940905e-07,,,,,0.01610351356242939,-0.3807219377764038
355,1644542203799010992,,,,gyr,3.975721305114907e-08,-9.14600234345176e-07,0.0191986225545,-0.00174532923847,-0.00523598771542,8.745987930970724e-06,0.01610351356242939,-0.3807219377764038
356,1644542203799203157,0.0294199492782,-9.62032318115,0.196132987738,acc,1.1952157561256268e-07,-7.968104738173585e-07,,,,,0.01610355331964244,-0.3807228523766381
357,1644542203801216841,0.00980664975941,-9.61051654816,0.12748645246,acc,3.976521213223966e-08,-5.169477803766885e-07,,,,,0.016103672841218053,-0.38072364918711193
358,1644542203803228378,0.0686465501785,-9.58109664917,-0.0294199492782,acc,2.777632387300898e-07,1.1904138479703515e-07,,,,,0.016103712606430187,-0.3807241661348923
359,1644542203804022312,,,,gyr,2.777653210555184e-07,1.1903652592019572e-07,0.0209439508617,-0.00349065847695,-0.00523598771542,1.7492806638709073e-05,0.016103712606430187,-0.3807241661348923
360,1644542203805242062,-0.00980664975941,-9.64974308014,-0.264779537916,acc,-3.976521213223966e-08,1.0736607049112757e-06,,,,,0.016103990371751243,-0.3807240470983664
361,1644542203807257652,-0.0784531980753,-9.57129001617,1.05911815166,acc,-3.187242016339068e-07,-4.302776631231953e-06,,,,,0.01610395060653911,-0.3807229734376615
362,1644542203809033394,,,,gyr,-3.1894999338988213e-07,-4.302759899959509e-06,0.0593411922455,-0.0104719754308,0.00174532923847,5.247592758572412e-05,0.01610395060653911,-0.3807229734376615
363,1644542203809271336,-0.196132987738,-9.53206348419,2.33398270607,acc,-7.953042124348039e-07,-9.464120744273032e-06,,,,,0.01610363165654572,-0.3807272761975614
364,1644542203811285019,0.176519691944,-10.2675619125,1.12776470184,acc,7.157730923646017e-07,-4.572994770191122e-06,,,,,0.016102836352333286,-0.3807367403183057
365,1644542203813298702,0.00980664975941,-8.65927219391,-3.35387420654,acc,3.9765172637262036e-08,1.3599688996616838e-05,,,,,0.016103552125425653,-0.38074131331307587
366,1644542203814042568,,,,gyr,3.952737777586326e-08,1.3599689689844476e-05,-0.0610865242779,0.00349065847695,-0.00174532923847,-1.748531568561754e-05,0.016103552125425653,-0.38074131331307587
367,1644542203815312147,-0.225552946329,-10.5421485901,2.8733484745,acc,-9.143827955302144e-07,-1.1648441988487482e-05,,,,,0.01610359165280343,-0.38072771362338603
368,1644542203817325830,-0.529559075832,-9.42419052124,-0.0686465501785,acc,-2.147319277093805e-06,2.7835621601364845e-07,,,,,0.0161026772700079,-0.3807393620653745
369,1644542203819055557,,,,gyr,-2.147319277093805e-06,2.7835621601364845e-07,-0.0750491544604,0.0,0.0104719754308,-0.0,0.0161026772700079,-0.3807393620653745
370,1644542203819339514,-0.137293100357,-9.70858287811,1.13757133484,acc,-5.567129849569986e-07,-4.612764456287584e-06,,,,,0.016100529950730805,-0.3807390837091585
371,1644542203821353197,0.813951909542,-9.56148338318,-0.951245009899,acc,3.3005092458113876e-06,3.8572216778386844e-06,,,,,0.016099973237745847,-0.3807436964736148
372,1644542203823366880,0.12748645246,-9.24767112732,-1.42196416855,acc,5.169472669419571e-07,5.765949843587912e-06,,,,,0.016103273746991657,-0.38073983925193694
373,1644542203824064732,,,,gyr,5.17552180936172e-07,5.76589557792876e-06,-0.123918376863,-0.0209439508617,0.0383972451091,0.0001049119150576561,0.016103273746991657,-0.38073983925193694
374,1644542203825380564,-0.0784531980753,-9.91452312469,1.5886772871,acc,-3.1812169705799836e-07,-6.4419644711573e-06,,,,,0.016103791299172592,-0.380734073356359
375,1644542203827394247,0.0294199492782,-9.43399715424,-0.529559075832,acc,1.1929551791166445e-07,2.147319277093805e-06,,,,,0.016103473177475534,-0.38074051532083014
376,1644542203829075813,,,,gyr,1.1940820029576092e-07,2.147313013995538e-06,-0.00349065847695,-0.0104719754308,0.00523598771542,5.247591711374869e-05,0.016103473177475534,-0.38074051532083014
377,1644542203829409838,0.00980664975941,-9.96355628967,0.951245009899,acc,3.984056473660839e-08,-3.864534711346403e-06,,,,,0.01610359258567583,-0.38073836800781613
378,1644542203831421375,-0.0392265990376,-9.25747776031,-0.490332484245,acc,-1.5872184639604686e-07,1.9840230648781887e-06,,,,,0.016103632426240567,-0.3807422325425275
379,1644542203833437204,0.0294199492782,-10.1204624176,1.24544453621,acc,1.1954992200262e-07,-5.060946766241482e-06,,,,,0.01610347370439417,-0.3807402485194626
380,1644542203834086895,,,,gyr,1.1954992200262e-07,-5.060946766241482e-06,0.0104719754308,0.0,0.0,-0.0,0.01610347370439417,-0.3807402485194626
381,1644542203835448742,0.0,-9.43399715424,-0.362846046686,acc,0.0,1.4681785615317214e-06,,,,,0.016103593254316175,-0.3807453094662288
382,1644542203837464333,0.0784531980753,-9.78703689575,0.529559075832,acc,3.1872451789294834e-07,-2.1513904503725875e-06,,,,,0.016103593254316175,-0.38074384128766725
383,1644542203839098215,,,,gyr,3.1872451789294834e-07,-2.1513904503725875e-06,0.00872664619237,0.0,0.0,-0.0,0.016103593254316175,-0.38074384128766725
384,1644542203839478016,-0.0686465501785,-9.57129001617,0.225552946329,acc,-2.7835621601364845e-07,-9.145989782095978e-07,,,,,0.016103911978834068,-0.38074599267811765
385,1644542203841491699,0.0294199492782,-9.80665016174,0.529559075832,acc,1.1929551791166445e-07,-2.147319277093805e-06,,,,,0.016103633622618053,-0.38074690727709587
386,1644542203843505383,0.00980664975941,-9.53206348419,-0.0392265990376,acc,3.976521213223966e-08,1.5906084852879645e-07,,,,,0.016103752918135966,-0.380749054596373
387,1644542203844109297,,,,gyr,3.97666032749803e-08,1.590605007366476e-07,0.0104719754308,-0.00174532923847,0.0,8.745987930970724e-06,0.016103752918135966,-0.380749054596373
388,1644542203845519066,-0.0392265990376,-9.64974308014,0.421685934067,acc,-1.5906069054888596e-07,-1.7099024007448792e-06,,,,,0.01610379268473924,-0.38074889553587227
389,1644542203847532749,0.0,-9.71838951111,0.549172401428,acc,0.0,-2.2268497281091876e-06,,,,,0.01610363362404869,-0.380750605438273
390,1644542203849120378,,,,gyr,-5.842799087203501e-11,-2.226849727342672e-06,0.00872664619237,-0.00523598771542,0.0,2.623795855697457e-05,0.01610363362404869,-0.380750605438273
391,1644542203849546432,0.0392265990376,-9.62032318115,0.0980664938688,acc,1.5906069054888596e-07,-3.9765171126682975e-07,,,,,0.0161036335656207,-0.38075283228800033
392,1644542203851560116,0.00980664975941,-9.56148338318,0.225552946329,acc,3.976521213223966e-08,-9.145998865940905e-07,,,,,0.016103792626311248,-0.3807532299397116
393,1644542203853573799,-0.00980664975941,-9.61051654816,0.529559075832,acc,-3.9765172637262036e-08,-2.147319277093805e-06,,,,,0.01610383239152338,-0.3807541445395982
394,1644542203854131699,,,,gyr,-3.9783953959941396e-08,-2.1473189292093634e-06,0.0,-0.00174532923847,0.0,8.74640506465872e-06,0.01610383239152338,-0.3807541445395982
395,1644542203855589390,0.0392265990376,-9.64974308014,0.313812792301,acc,1.5936225894627104e-07,-1.2748980715709808e-06,,,,,0.01610379260756942,-0.38075629185852744
396,1644542203857600927,0.0294199492782,-9.67916297913,0.0980664938688,acc,1.1904138479703515e-07,-3.9680460091691075e-07,,,,,0.016103951969828365,-0.380757566756599
397,1644542203859142542,,,,gyr,1.1903791450975274e-07,-3.9680564198659447e-07,-0.00174532923847,-0.00174532923847,0.0,8.74557079728273e-06,0.016103951969828365,-0.380757566756599
398,1644542203859616756,0.0294199492782,-9.66935634613,0.470719188452,acc,1.1954992200262e-07,-1.912798752045171e-06,,,,,0.016104071007742873,-0.380757963562241
399,1644542203861628056,0.0,-9.58109664917,0.225552946329,acc,0.0,-9.124355793457877e-07,,,,,0.016104190557664877,-0.38075987636099307
400,1644542203863643885,0.0686465501785,-9.80665016174,0.166713044047,acc,2.7894982557531875e-07,-6.774495504452347e-07,,,,,0.016104190557664877,-0.38076078879657244
401,1644542203864153862,,,,gyr,2.7894982557531875e-07,-6.774495504452347e-07,-0.00174532923847,0.0,0.00349065847695,-0.0,0.016104190557664877,-0.38076078879657244
402,1644542203865657568,0.0294199492782,-9.70858287811,0.274586200714,acc,1.1929551791166445e-07,-1.1134248640545938e-06,,,,,0.016104469507490452,-0.3807614662461229
403,1644542203867669106,0.0,-9.56148338318,0.362846046686,acc,0.0,-1.4681785615317214e-06,,,,,0.016104588803008364,-0.3807625796709869
404,1644542203869164944,,,,gyr,0.0,-1.4681785615317214e-06,-0.00349065847695,0.0,0.0,-0.0,0.016104588803008364,-0.3807625796709869
405,1644542203869684696,0.0686465501785,-9.7478094101,0.196132987738,acc,2.788836839967236e-07,-7.968104738173585e-07,,,,,0.016104588803008364,-0.3807640478495485
406,1644542203871698380,0.0686465501785,-9.70858287811,0.137293100357,acc,2.783564924784993e-07,-5.567129849569986e-07,,,,,0.01610486768669236,-0.3807648446600223
407,1644542203873710155,-0.00980664975941,-9.64974308014,0.343232750893,acc,-3.968985193942651e-08,-1.389144855574492e-06,,,,,0.01610514604318484,-0.38076540137300724
408,1644542203874176025,,,,gyr,-3.9714150816786826e-08,-1.3891441611081809e-06,-0.00523598771542,-0.00349065847695,0.00349065847695,1.7491972371333082e-05,0.01610514604318484,-0.38076540137300724
409,1644542203875725746,0.0294199492782,-9.67916297913,0.362846046686,acc,1.195216942097033e-07,-1.4741009179556681e-06,,,,,0.016105106329034023,-0.38076679051716833
410,1644542203877739429,0.0686465501785,-9.62032318115,0.00980664975941,acc,2.7835621601364845e-07,-3.9765172637262036e-08,,,,,0.01610522585072823,-0.38076826461808627
411,1644542203879187346,,,,gyr,2.7835621601364845e-07,-3.9765172637262036e-08,0.0,0.0,0.00349065847695,-0.0,0.01610522585072823,-0.38076826461808627
412,1644542203879753113,0.00980664975941,-9.71838951111,0.264779537916,acc,3.976521213223966e-08,-1.0736607049112757e-06,,,,,0.016105504206944246,-0.3807683043832589
413,1644542203881766796,0.00980664975941,-9.61051654816,0.402072638273,acc,3.9765172637262036e-08,-1.6303720705741994e-06,,,,,0.01610554397215638,-0.3807693780439638
414,1644542203883782387,0.0686465501785,-9.64974308014,0.313812792301,acc,2.788839607233925e-07,-1.2748980715709808e-06,,,,,0.016105583737329017,-0.3807710084160344
415,1644542203884198189,,,,gyr,2.788839607233925e-07,-1.2748980715709808e-06,0.0,0.0,0.0,-0.0,0.016105583737329017,-0.3807710084160344
416,1644542203885793924,0.0392265990376,-9.58109664917,0.0294199492782,acc,1.5872184639604686e-07,-1.1904138479703515e-07,,,,,0.01610586262128974,-0.38077228331410595
417,1644542203887809515,0.0294199492782,-9.61051654816,0.343232750893,acc,1.195216942097033e-07,-1.3944198036189938e-06,,,,,0.016106021343136136,-0.38077240235549076
418,1644542203889209509,,,,gyr,1.1950949804713285e-07,-1.3944208489506005e-06,-0.00523598771542,-0.00174532923847,0.0,8.74640331932948e-06,0.016106021343136136,-0.38077240235549076
419,1644542203889823198,0.0392265990376,-9.61051654816,0.225552946329,acc,1.5906069054888596e-07,-9.145989782095978e-07,,,,,0.016106140852634183,-0.3807737967763397
420,1644542203891836882,0.0686465501785,-9.70858287811,0.176519691944,acc,2.783564924784993e-07,-7.157738032741839e-07,,,,,0.016106299913324733,-0.38077471137531793
421,1644542203893850565,0.0980664938688,-9.53206348419,0.0392265990376,acc,3.9765171126682975e-07,-1.5906069054888596e-07,,,,,0.01610657826981721,-0.3807754271491212
422,1644542203894218445,,,,gyr,3.976475394887044e-07,-1.5907111959719747e-07,0.0069813169539,-0.00523598771542,0.00349065847695,2.6226727363324996e-05,0.01610657826981721,-0.3807754271491212
423,1644542203895864248,0.0686465501785,-9.64974308014,0.12748645246,acc,2.7835621601364845e-07,-5.169472669419571e-07,,,,,0.0161069759173567,-0.3807755862202408
424,1644542203897877932,0.0980664938688,-9.70858287811,0.12748645246,acc,3.9765210621659096e-07,-5.169477803766885e-07,,,,,0.016107254273572714,-0.38077610316750776
425,1644542203899229765,,,,gyr,3.976249770663464e-07,-5.169686478190563e-07,0.0209439508617,-0.0104719754308,0.00349065847695,5.247841991587665e-05,0.016107254273572714,-0.38077610316750776
426,1644542203899891615,0.0784531980753,-9.56148338318,0.0,acc,3.1812138109817744e-07,-0.0,,,,,0.01610765189854978,-0.3807766201361556
427,1644542203901905298,0.0686465501785,-9.61051654816,-0.0686465501785,acc,2.7835621601364845e-07,2.7835621601364845e-07,,,,,0.01610797001993088,-0.3807766201361556
428,1644542203903918982,0.0784531980753,-9.64974308014,-0.12748645246,acc,3.1812169705799836e-07,5.169477803766885e-07,,,,,0.016108248376146894,-0.3807763417799396
429,1644542203904240608,,,,gyr,3.1820307117254056e-07,5.168976951697588e-07,0.0418879017234,-0.0314159244299,0.00523598771542,0.00015742026501809343,0.016108248376146894,-0.3807763417799396
430,1644542203905932665,0.12748645246,-9.64974308014,-0.176519691944,acc,5.169472669419571e-07,7.157730923646017e-07,,,,,0.016108566579218067,-0.38077582488224443
431,1644542203907946110,0.0980664938688,-9.62032318115,-0.313812792301,acc,3.975577188018794e-07,1.2721847484926318e-06,,,,,0.016109083526485008,-0.3807751091091521
432,1644542203909251928,,,,gyr,3.979693985083697e-07,1.272056025467079e-06,0.0959931090474,-0.0645771846175,0.00872664619237,0.0003236169368173701,0.016109083526485008,-0.3807751091091521
433,1644542203909959793,0.0980664938688,-9.67916297913,-0.421685934067,acc,3.9765171126682975e-07,1.7099024007448792e-06,,,,,0.016109481495883517,-0.3807738370531266
434,1644542203911973476,0.0980664938688,-9.70858287811,-0.57859236002,acc,3.9765171126682975e-07,2.346145283787559e-06,,,,,0.016109879147594784,-0.3807721271507259
435,1644542203913987160,0.12748645246,-9.64974308014,-0.686465501785,acc,5.169477803766885e-07,2.783564924784993e-06,,,,,0.01611027679930605,-0.3807697810054421
436,1644542203914263010,,,,gyr,5.186518351836355e-07,2.783247917809392e-06,0.191986218095,-0.122173048556,0.0226892791688,0.0006122191645040976,0.01611027679930605,-0.3807697810054421
437,1644542203915998697,-0.0294199492782,-9.53206348419,-0.774725317955,acc,-1.1904138479703515e-07,3.134756413568131e-06,,,,,0.016110795451141236,-0.3807669977575243
438,1644542203918012381,-0.166713044047,-9.48303031921,-0.774725317955,acc,-6.760085986938737e-07,3.1414517055772622e-06,,,,,0.016110676409756438,-0.38076386300111076
439,1644542203919274092,,,,gyr,-6.720791318857207e-07,3.142294716360335e-06,0.296705961227,-0.249582082033,0.0279252678156,0.0012506762787980897,0.016110676409756438,-0.38076386300111076
440,1644542203920027971,0.137293100357,-9.75761604309,-0.529559075832,acc,5.577673679934472e-07,2.1513883156241023e-06,,,,,0.016110004330624553,-0.3807607207063944
441,1644542203922041655,0.362846046686,-9.88510322571,-0.196132987738,acc,1.4713128715510892e-06,7.953042124348039e-07,,,,,0.016110562097992547,-0.3807585693180788
442,1644542203924057484,0.0294199492782,-9.58109664917,0.0294199492782,acc,1.1954992200262e-07,-1.1954992200262e-07,,,,,0.016112033410864098,-0.38075777401386635
443,1644542203924285412,,,,gyr,1.1931651886107184e-07,-1.1978287034689283e-07,0.413643032312,-0.38920840621,0.00174532923847,0.0019504478702082972,0.016112033410864098,-0.38075777401386635
444,1644542203926068783,-0.12748645246,-9.30651092529,0.38245934248,acc,-5.157239634094303e-07,-1.5471718299529686e-06,,,,,0.016112152727382957,-0.3807578937967367
445,1644542203928084612,0.0392265990376,-9.61051654816,0.961051702499,acc,1.5939989600349333e-07,-3.905297558054462e-06,,,,,0.016111637003419547,-0.3807594409685666
446,1644542203929296494,,,,gyr,1.5010910761529448e-07,-3.90566570504991e-06,0.500909507275,-0.474729537964,0.00872664619237,0.002378908642559717,0.016111637003419547,-0.3807594409685666
447,1644542203930098057,0.12748645246,-9.70858287811,1.33370435238,acc,5.168250767275243e-07,-5.40678512069271e-06,,,,,0.016111787112527164,-0.3807633466342717
448,1644542203932111740,-0.0392265990376,-9.58109664917,1.37293100357,acc,-1.5906069054888596e-07,-5.567124320272969e-06,,,,,0.016112303937603892,-0.38076875341939237
449,1644542203934125423,-0.137293100357,-9.62032318115,1.37293100357,acc,-5.567124320272969e-07,-5.567124320272969e-06,,,,,0.016112144876913342,-0.38077432054371263
450,1644542203934307575,,,,gyr,-5.67569234224441e-07,-5.566027945825497e-06,0.558505356312,-0.38920840621,-0.00872664619237,0.001950354849399213,0.016112144876913342,-0.38077432054371263
451,1644542203936141014,0.0686465501785,-9.66935634613,1.37293100357,acc,2.788839607233925e-07,-5.57767921446785e-06,,,,,0.016111577307679117,-0.38077988657165845
452,1644542203938154697,0.0784531980753,-9.67916297913,1.33370435238,acc,3.1812138109817744e-07,-5.408063418250314e-06,,,,,0.01611185619163984,-0.3807854642508729
453,1644542203939318657,,,,gyr,3.1197232539235595e-07,-5.408421619762865e-06,0.438077628613,-0.226892799139,-0.00523598771542,0.0011369784216950585,0.01611185619163984,-0.3807854642508729
454,1644542203940166473,-0.00980664975941,-9.70858287811,1.45138418674,acc,-3.968989139698195e-08,-5.8741040171983555e-06,,,,,0.016112168163965233,-0.3807908726724927
455,1644542203942180157,-0.12748645246,-9.56148338318,1.45138418674,acc,-5.169477803766885e-07,-5.885251486188137e-06,,,,,0.016112128474073836,-0.3807967467765099
456,1644542203944193840,-0.00980664975941,-9.70858287811,1.50041747093,acc,-3.9765172637262036e-08,-6.0840716476332224e-06,,,,,0.016111611526293458,-0.3808026320279961
457,1644542203944329739,,,,gyr,-4.322389511502772e-08,-6.084048058437769e-06,0.254818081856,-0.11344639957,0.00174532923847,0.0005684892108500347,0.016111611526293458,-0.3808026320279961
458,1644542203946209431,0.0392265990376,-9.86548995972,1.42196416855,acc,1.5936225894627104e-07,-5.776881697635152e-06,,,,,0.016111568302398342,-0.38080871607605454
459,1644542203948223114,0.0294199492782,-9.64974308014,0.951245009899,acc,1.1929551791166445e-07,-3.8572216778386844e-06,,,,,0.016111727664657287,-0.38081449295775216
460,1644542203949340820,,,,gyr,1.1875575342525143e-07,-3.857238333783756e-06,0.0436332300305,-0.0279252678156,0.0,0.00013993577897066466,0.016111727664657287,-0.38081449295775216
461,1644542203950234652,-0.00980664975941,-9.64974308014,0.764918684959,acc,-3.9680501051939676e-08,-3.0950790971237876e-06,,,,,0.016111846420410712,-0.38081835019608595
462,1644542203952248335,-0.00980664975941,-9.7478094101,0.725692093372,acc,-3.9765172637262036e-08,-2.9426228204737898e-06,,,,,0.01611180673990966,-0.3808214452751831
463,1644542203954262018,0.0,-9.7478094101,0.686465501785,acc,0.0,-2.7835621601364844e-06,,,,,0.016111766974737023,-0.38082438789800355
464,1644542203954349995,,,,gyr,1.9468589110923627e-10,-2.7835621533281945e-06,-0.120427720249,0.0139626339078,0.00872664619237,-6.994127670510407e-05,0.016111766974737023,-0.38082438789800355
465,1644542203956277609,-0.0784531980753,-9.58109664917,0.637432217598,acc,-3.1872451789294834e-07,-2.589636639775422e-06,,,,,0.016111767169422916,-0.3808271714601569
466,1644542203958291292,-0.00980664975941,-9.70858287811,0.598205626011,acc,-3.9765172637262036e-08,-2.4256754931094814e-06,,,,,0.016111448444905023,-0.38082976109679667
467,1644542203959361076,,,,gyr,-3.9383303530354794e-08,-2.425681723192437e-06,-0.202458187938,0.0314159244299,0.0,-0.00015742774200810773,0.016111448444905023,-0.38082976109679667
468,1644542203960306883,0.0294199492782,-9.70858287811,0.490332484245,acc,1.195216942097033e-07,-1.992028221695177e-06,,,,,0.01611140906160149,-0.3808321867785199
469,1644542203962320566,0.0686465501785,-9.64974308014,0.38245934248,acc,2.7835621601364845e-07,-1.5508417404075745e-06,,,,,0.0161115285832957,-0.3808341788067416
470,1644542203964332342,0.0,-9.64974308014,0.264779537916,acc,0.0,-1.0716270451022373e-06,,,,,0.016111806939511714,-0.380835729648482
471,1644542203964372396,,,,gyr,1.874576459318174e-10,-1.0716270287064355e-06,-0.253072738647,0.0349065847695,-0.00872664619237,-0.00017492806638709073,0.016111806939511714,-0.380835729648482
472,1644542203966346025,-0.00980664975941,-9.66935634613,0.225552946329,acc,-3.9765172637262036e-08,-9.145989782095978e-07,,,,,0.01611180712696936,-0.38083680127551073
473,1644542203968359709,0.0,-9.58109664917,0.225552946329,acc,0.0,-9.145998865940905e-07,,,,,0.016111767361796724,-0.38083771587448895
474,1644542203969383240,,,,gyr,1.4397658467150997e-10,-9.145998752616722e-07,-0.249582082033,0.0314159244299,0.0,-0.00015742029643401787,0.016111767361796724,-0.38083771587448895
475,1644542203970375299,0.0,-9.64974308014,0.225552946329,acc,0.0,-9.163320872641309e-07,,,,,0.016111767505773308,-0.3808386304743642
476,1644542203972388983,-0.00980664975941,-9.64974308014,0.196132987738,acc,-3.976521213223966e-08,-7.953042124348039e-07,,,,,0.016111767505773308,-0.3808395468064515
477,1644542203974394560,,,,gyr,-3.9695651466192096e-08,-7.953076874186118e-07,-0.226892799139,0.0174532923847,0.0,-8.74640331932948e-05,0.016111767505773308,-0.3808395468064515
478,1644542203974402428,-0.0294199492782,-9.62032318115,0.12748645246,acc,-1.192673201711082e-07,-5.168250767275243e-07,,,,,0.01611172781012184,-0.3808403421141389
479,1644542203976416111,-0.00980664975941,-9.64974308014,0.12748645246,acc,-3.9765172637262036e-08,-5.169472669419571e-07,,,,,0.016111608542801668,-0.38084085893921565
480,1644542203978429794,0.0,-9.64974308014,0.176519691944,acc,0.0,-7.157730923646017e-07,,,,,0.01611156877762903,-0.3808413758864826
481,1644542203979405403,,,,gyr,-3.755906550707972e-11,-7.157730913791754e-07,-0.200712859631,-0.0104719754308,-0.00349065847695,5.247342478359616e-05,0.01611156877762903,-0.3808413758864826
482,1644542203980445623,-0.0294199492782,-9.66935634613,0.196132987738,acc,-1.1954992200262e-07,-7.969994497438957e-07,,,,,0.016111568740069963,-0.38084209165957394
483,1644542203982459545,0.0,-9.64974308014,0.38245934248,acc,0.0,-1.551209894850831e-06,,,,,0.01611144919014796,-0.3808428886590237
484,1644542203984417200,,,,gyr,-3.3921995979989505e-10,-1.5512098577603693e-06,-0.174532920122,-0.0436332300305,0.0,0.0002186808913671698,0.01611144919014796,-0.3808428886590237
485,1644542203984473228,0.00980664975941,-9.66935634613,0.470719188452,acc,3.9765172637262036e-08,-1.9087282865898754e-06,,,,,0.016111448850928,-0.3808444398688815
486,1644542203986489058,0.0294199492782,-9.71838951111,0.490332484245,acc,1.1955004061382333e-07,-1.9925006617602546e-06,,,,,0.016111488616100636,-0.3808463485971681
487,1644542203988502979,0.00980664975941,-9.61051654816,0.421685934067,acc,3.977457299508987e-08,-1.7103066161261198e-06,,,,,0.01611160816614125,-0.38084834109782983
488,1644542203989428997,,,,gyr,3.932575795481118e-08,-1.7103169947652978e-06,-0.176278248429,-0.0523598790169,-0.00174532923847,0.0002624170845772624,0.01611160816614125,-0.38084834109782983
489,1644542203990516901,0.0294199492782,-9.62032318115,0.402072638273,acc,1.1932383748408468e-07,-1.6307591047288162e-06,,,,,0.016111647491899205,-0.3808500514148246
490,1644542203992530584,0.00980664975941,-9.7478094101,0.38245934248,acc,3.9765172637262036e-08,-1.5508417404075745e-06,,,,,0.01611176681573669,-0.38085168217392934
491,1644542203994440317,,,,gyr,3.939893576626805e-08,-1.5508510878242795e-06,-0.193731546402,-0.0471238903701,0.00349065847695,0.00023615289428948952,0.01611176681573669,-0.38085168217392934
492,1644542203994544506,0.0294199492782,-9.62032318115,0.402072638273,acc,1.1932383748408468e-07,-1.6307591047288162e-06,,,,,0.016111806214672456,-0.38085323302501717
493,1644542203996558428,-0.0294199492782,-9.64974308014,0.402072638273,acc,-1.1932383748408468e-07,-1.6307591047288162e-06,,,,,0.01611192553850994,-0.3808548637841219
494,1644542203998574257,0.0686465501785,-9.67916297913,0.402072638273,acc,2.7894982557531875e-07,-1.6338489264678203e-06,,,,,0.016111806214672456,-0.3808564945432267
495,1644542203999452114,,,,gyr,2.785639429205322e-07,-1.6339147619790687e-06,-0.214675500989,-0.0471238903701,0.00174532923847,0.0002361753723851961,0.016111806214672456,-0.3808564945432267
496,1644542204000587940,0.0294199492782,-9.62032318115,0.362846046686,acc,1.1929551791166445e-07,-1.4713114102368949e-06,,,,,0.016112084778615376,-0.38085812845798866
497,1644542204002601862,0.0294199492782,-9.58109664917,0.274586200714,acc,1.1932383748408468e-07,-1.1136891800710211e-06,,,,,0.016112204074133288,-0.3808595997693989
498,1644542204004463673,,,,gyr,1.190803036559179e-07,-1.1137152460482913e-06,-0.228638127446,-0.0436332300305,-0.00523598771542,0.00021867050665842254,0.016112204074133288,-0.3808595997693989
499,1644542204004615784,0.0784531980753,-9.61051654816,0.274586200714,acc,3.181968999579648e-07,-1.1136891800710211e-06,,,,,0.016112323154436944,-0.38086071348464495
500,1644542204006629705,0.12748645246,-9.64974308014,0.274586200714,acc,5.17069471599075e-07,-1.1136880740809147e-06,,,,,0.0161126413513369,-0.380861827173825
501,1644542204008643389,0.0294199492782,-9.62032318115,0.343232750893,acc,1.192956363965973e-07,-1.3917824623945239e-06,,,,,0.0161131584208085,-0.3808629408618991
502,1644542204009475231,,,,gyr,1.1893042221430269e-07,-1.391813718198007e-06,-0.237364768982,-0.0523598790169,0.0,0.00026240457056617736,0.0161131584208085,-0.3808629408618991
503,1644542204010657310,0.00980664975941,-9.62032318115,0.402072638273,acc,3.977457299508987e-08,-1.6307574852433549e-06,,,,,0.016113277351230717,-0.3808643326756173
504,1644542204012671232,0.764918684959,-10.1204624176,-0.451105892658,acc,3.102419789697606e-06,1.8296321898665583e-06,,,,,0.016113317125803713,-0.38086596343310253
505,1644542204014487028,,,,gyr,3.1030117835248803e-06,1.8286280029051766e-06,-0.249582082033,-0.0645771846175,0.0069813169539,0.0003236477401344327,0.016113317125803713,-0.38086596343310253
506,1644542204014682770,-1.17679798603,-8.58081817627,-0.451105892658,acc,-4.761660186525646e-06,1.8253030634622036e-06,,,,,0.01611642013758724,-0.3808641348050996
507,1644542204016700983,0.598205626011,-10.3656291962,0.921825051308,acc,2.4366014131137125e-06,-3.7547627855632884e-06,,,,,0.016111658477400714,-0.38086230950203614
508,1644542204018712759,-0.264779537916,-9.07115077972,-1.81423020363,acc,-1.0716270451022373e-06,7.342629900910349e-06,,,,,0.01611409507881383,-0.3808660642648217
509,1644542204019498587,,,,gyr,-1.0713701457848095e-06,7.342667389733672e-06,-0.153588980436,-0.0069813169539,0.0104719754308,3.4987281812170126e-05,0.01611409507881383,-0.3808660642648217
510,1644542204020728588,0.196132987738,-9.96355628967,1.13757133484,acc,7.969994497438957e-07,-4.622596832731827e-06,,,,,0.016113023708668045,-0.380858721597432
511,1644542204022740364,-0.00980664975941,-9.45361042023,-0.470719188452,acc,-3.968989139698195e-08,1.9051147870564286e-06,,,,,0.016113820708117788,-0.38086334419426476
512,1644542204024508238,,,,gyr,-3.968989139698195e-08,1.9051147870564286e-06,-0.0209439508617,0.0,-0.00349065847695,-0.0,0.016113820708117788,-0.38086334419426476
513,1644542204024754047,-0.0686465501785,-9.70858287811,0.882598459721,acc,-2.7835621601364845e-07,-3.5788654618270634e-06,,,,,0.01611378101822639,-0.3808614390794777
514,1644542204026770115,0.0784531980753,-9.57129001617,-0.225552946329,acc,3.1887539134352963e-07,9.16766757682886e-07,,,,,0.016113502662010375,-0.38086501794493954
515,1644542204028784037,0.0392265990376,-9.7478094101,0.38245934248,acc,1.5909844997877958e-07,-1.551209894850831e-06,,,,,0.016113821537401717,-0.38086410117818187
516,1644542204029519796,,,,gyr,1.5898990437553734e-07,-1.55122102389551e-06,-0.0069813169539,-0.0139626339078,0.0,6.997454966170636e-05,0.016113821537401717,-0.38086410117818187
517,1644542204030797958,0.0392265990376,-9.5222568512,0.196132987738,acc,1.5909829198019726e-07,-7.954914296846966e-07,,,,,0.01611398052730609,-0.3808656523992058
518,1644542204032813787,0.0392265990376,-9.61051654816,0.176519691944,acc,1.5939989600349333e-07,-7.172995168781217e-07,,,,,0.016114139625598073,-0.38086644789063545
519,1644542204034531832,,,,gyr,1.5932459887837682e-07,-7.173162454257924e-07,-0.00174532923847,-0.0209439508617,0.0,0.00010497183570107142,0.016114139625598073,-0.38086644789063545
520,1644542204034827948,0.0784531980753,-9.71838951111,0.0784531980753,acc,3.1827242778040234e-07,-3.1827242778040234e-07,,,,,0.01611429895019695,-0.38086716520688085
521,1644542204036841869,0.0294199492782,-9.66935634613,0.313812792301,acc,1.1932371898514792e-07,-1.2727863358423893e-06,,,,,0.016114617222624732,-0.38086748347930865
522,1644542204038855791,0.0392265990376,-9.58109664917,0.225552946329,acc,1.5909844997877958e-07,-9.148160949332792e-07,,,,,0.016114736546343718,-0.3808687562656445
523,1644542204039543629,,,,gyr,1.5896241231823613e-07,-9.148397432362631e-07,-0.00523598771542,-0.0296705961227,0.0,0.0001487030046359595,0.016114736546343718,-0.3808687562656445
524,1644542204040869713,0.0980664938688,-9.75761604309,0.0980664938688,acc,3.9774610983797795e-07,-3.9774610983797795e-07,,,,,0.016114895508756034,-0.3808696711053877
525,1644542204042885780,0.00980664975941,-9.57129001617,0.196132987738,acc,3.985938437619531e-08,-7.971876572423734e-07,,,,,0.01611529325486587,-0.38087006885149755
526,1644542204044555664,,,,gyr,3.9671098233528806e-08,-7.971970492590766e-07,-0.00349065847695,-0.0471238903701,0.0,0.00023618658787110414,0.01611529325486587,-0.38087006885149755
527,1644542204044897795,0.0,-9.64974308014,0.313812792301,acc,0.0,-1.2703783140872904e-06,,,,,0.016115332925964104,-0.3808708660485468
528,1644542204046913624,0.0294199492782,-9.62032318115,0.313812792301,acc,1.1954992200262e-07,-1.2751991680287593e-06,,,,,0.016115332925964104,-0.3808721364268609
529,1644542204048927546,0.0392265990376,-9.62032318115,0.196132987738,acc,1.5909844997877958e-07,-7.954922196775783e-07,,,,,0.016115452475886107,-0.38087341162602895
530,1644542204049567699,,,,gyr,1.5887576571657698e-07,-7.955367241184921e-07,-0.00349065847695,-0.0558505356312,0.00349065847695,0.0002799248393523215,0.016115452475886107,-0.38087341162602895
531,1644542204050939798,0.0,-9.57129001617,0.509945809841,acc,0.0,-2.0648512123451617e-06,,,,,0.016115611351651824,-0.38087420716275305
532,1644542204052955627,0.00980664975941,-9.61051654816,0.294199496508,acc,3.984997400091397e-08,-1.195499235167049e-06,,,,,0.016115611351651824,-0.3808762720139654
533,1644542204054579496,,,,gyr,3.9661741871252056e-08,-1.1955054947362688e-06,-0.00174532923847,-0.0314159244299,0.00174532923847,0.00015745023580999954,0.016115611351651824,-0.3808762720139654
534,1644542204054969549,0.0784531980753,-9.66935634613,0.245166242123,acc,3.181968999579648e-07,-9.943653048153203e-07,,,,,0.016115651013393694,-0.3808774675194601
535,1644542204056983471,0.0294199492782,-9.58109664917,0.274586200714,acc,1.1932383748408468e-07,-1.1136891800710211e-06,,,,,0.01611596921029365,-0.38087846188476493
536,1644542204058997631,0.0392265990376,-9.67916297913,0.362846046686,acc,1.591360558726657e-07,-1.4720085394925937e-06,,,,,0.016116088534131136,-0.380879575573945
537,1644542204059591532,,,,gyr,1.590974259582327e-07,-1.4720127151866902e-06,0.0,-0.00523598771542,0.00174532923847,2.6242958925242797e-05,0.016116088534131136,-0.380879575573945
538,1644542204061011553,0.0686465501785,-9.67916297913,0.274586200714,acc,2.784222950177553e-07,-1.1136891800710211e-06,,,,,0.016116247631557095,-0.38088104758666014
539,1644542204063027382,0.0686465501785,-9.66935634613,0.264779537916,acc,2.7894982557531875e-07,-1.0759492753171828e-06,,,,,0.016116526053852113,-0.3808821612758402
540,1644542204064603567,,,,gyr,2.7894982557531875e-07,-1.0759492753171828e-06,0.0,0.0,0.0,-0.0,0.016116526053852113,-0.3808821612758402
541,1644542204065039396,0.00980664975941,-9.62032318115,0.402072638273,acc,3.9699282852999984e-08,-1.6276705894319712e-06,,,,,0.016116805003677688,-0.3808832372251155
542,1644542204067055464,0.0686465501785,-9.70858287811,0.264779537916,acc,2.7901597499623306e-07,-1.076204423071259e-06,,,,,0.016116844702960542,-0.38088486489570494
543,1644542204069069386,0.0784531980753,-9.75761604309,0.196132987738,acc,3.181968999579648e-07,-7.954922196775783e-07,,,,,0.01611712371893554,-0.380885941100128
544,1644542204069615126,,,,gyr,3.181968999579648e-07,-7.954922196775783e-07,0.0,0.0,0.0,-0.0,0.01611712371893554,-0.380885941100128
545,1644542204071083307,0.0294199492782,-9.70858287811,0.362846046686,acc,1.1932371898514792e-07,-1.4716592234818807e-06,,,,,0.016117441915835497,-0.3808867365923477
546,1644542204073097229,0.0294199492782,-9.70858287811,0.402072638273,acc,1.1932383748408468e-07,-1.6307591047288162e-06,,,,,0.016117561239554483,-0.38088820825157116
547,1644542204074627161,,,,gyr,1.1932383748408468e-07,-1.6307591047288162e-06,0.00349065847695,0.0,0.00174532923847,-0.0,0.016117561239554483,-0.38088820825157116
548,1644542204075111389,0.0392265990376,-9.75761604309,0.176519691944,acc,1.591360558726657e-07,-7.161122363144532e-07,,,,,0.016117680563391967,-0.3808898390106759
549,1644542204077125311,0.0294199492782,-9.67916297913,0.343232750893,acc,1.1932383748408468e-07,-1.3921114750908047e-06,,,,,0.01611783969944784,-0.3808905551229122
550,1644542204079137325,0.0,-9.57129001617,0.38245934248,acc,0.0,-1.5482720388088371e-06,,,,,0.016117959023285323,-0.3808919472343873
551,1644542204079639196,,,,gyr,-1.3543743804077684e-11,-1.548272038749599e-06,0.0,-0.00174532923847,0.00523598771542,8.747651229734985e-06,0.016117959023285323,-0.3808919472343873
552,1644542204081153154,0.0686465501785,-9.66935634613,0.294199496508,acc,2.7894982557531875e-07,-1.195499235167049e-06,,,,,0.01611795900974158,-0.38089349550642604
553,1644542204083167315,0.0294199492782,-9.62032318115,0.294199496508,acc,1.1935216041749872e-07,-1.19352161929079e-06,,,,,0.016118237959567155,-0.3808946910056612
554,1644542204084651232,,,,gyr,1.1935216041749872e-07,-1.19352161929079e-06,0.0,0.0,0.0,-0.0,0.016118237959567155,-0.3808946910056612
555,1644542204085181236,0.0,-9.57129001617,0.421685934067,acc,0.0,-1.7103066161261198e-06,,,,,0.016118357311727574,-0.3808958845272805
556,1644542204087195158,-0.0294199492782,-9.64974308014,0.402072638273,acc,-1.1932383748408468e-07,-1.6307591047288162e-06,,,,,0.016118357311727574,-0.3808975948338966
557,1644542204089209080,0.0294199492782,-9.66935634613,0.196132987738,acc,1.1932383748408468e-07,-7.954922196775783e-07,,,,,0.01611823798789009,-0.3808992255930014
558,1644542204089663029,,,,gyr,1.193168791214643e-07,-7.95493263400893e-07,0.0,-0.00174532923847,0.00174532923847,8.74723584137623e-06,0.01611823798789009,-0.3808992255930014
559,1644542204091225147,0.00980664975941,-9.62032318115,0.362846046686,acc,3.985938437619531e-08,-1.4747972446311073e-06,,,,,0.01611835730476921,-0.3809000210862648
560,1644542204093237162,-0.00980664975941,-9.61051654816,0.362846046686,acc,-3.9699322315243005e-08,-1.468874948284669e-06,,,,,0.016118397164153586,-0.3809014958835094
561,1644542204094673157,,,,gyr,-3.9712166630553314e-08,-1.4688746010848188e-06,0.0,-0.00174532923847,0.00174532923847,8.744322886877223e-06,0.016118397164153586,-0.3809014958835094
562,1644542204095251083,0.0,-9.66935634613,0.245166242123,acc,0.0,-9.943643173241883e-07,,,,,0.016118357451986955,-0.3809029647581105
563,1644542204097265005,-0.00980664975941,-9.64974308014,0.176519691944,acc,-3.977461249473545e-08,-7.159430097955371e-07,,,,,0.016118357451986955,-0.3809039591224278
564,1644542204099281073,0.0294199492782,-9.64974308014,0.362846046686,acc,1.195782717536712e-07,-1.4747987076753524e-06,,,,,0.01611831767737446,-0.3809046750654376
565,1644542204099684954,,,,gyr,1.1956537133698205e-07,-1.4747997535982754e-06,-0.0069813169539,-0.00174532923847,-0.00349065847695,8.74723584137623e-06,0.01611831767737446,-0.3809046750654376
566,1644542204101294994,0.0,-9.62032318115,0.245166242123,acc,0.0,-9.943643173241883e-07,,,,,0.016118437242745795,-0.3809061498651912
567,1644542204103308916,0.0294199492782,-9.7478094101,0.12748645246,acc,1.1932383748408468e-07,-5.170699850944901e-07,,,,,0.016118437242745795,-0.38090714422950855
568,1644542204104696751,,,,gyr,1.1931931454641363e-07,-5.170710288284564e-07,-0.00349065847695,-0.00174532923847,0.0,8.74723584137623e-06,0.016118437242745795,-0.38090714422950855
569,1644542204105322838,-0.0294199492782,-9.61051654816,0.294199496508,acc,-1.1932383748408468e-07,-1.1932383899530623e-06,,,,,0.016118556562060342,-0.3809076613005374
570,1644542204107336998,-0.00980664975941,-9.64974308014,0.274586200714,acc,-3.978401396820699e-08,-1.1139524213353667e-06,,,,,0.016118437238222857,-0.3809088545389273
571,1644542204109350920,0.0,-9.70858287811,0.264779537916,acc,0.0,-1.0739145146933057e-06,,,,,0.01611839745420889,-0.38090996849134867
572,1644542204109708786,,,,gyr,-1.8788459249269643e-11,-1.0739145145289508e-06,-0.00174532923847,-0.00349065847695,0.0,1.7495302459520094e-05,0.01611839745420889,-0.38090996849134867
573,1644542204111366749,0.00980664975941,-9.66935634613,0.166713044047,acc,3.984997400091397e-08,-6.774495504452347e-07,,,,,0.01611839743542043,-0.3809110424058632
574,1644542204113380909,0.0,-9.58109664917,0.264779537916,acc,0.0,-1.07416835447168e-06,,,,,0.01611843728539443,-0.38091171985541367
575,1644542204114720821,,,,gyr,-1.879290025296833e-11,-1.0741683543072864e-06,0.0,-0.00349065847695,0.00174532923847,1.7495302459520094e-05,0.01611843728539443,-0.38091171985541367
576,1644542204115394831,0.0,-9.67916297913,0.176519691944,acc,0.0,-7.159430097955371e-07,,,,,0.01611843726660153,-0.380912794023768
577,1644542204117408752,0.0,-9.67916297913,0.12748645246,acc,0.0,-5.17069471599075e-07,,,,,0.01611843726660153,-0.3809135099667778
578,1644542204119422674,-0.0294199492782,-9.61051654816,0.176519691944,acc,-1.1932383748408468e-07,-7.159430097955371e-07,,,,,0.01611843726660153,-0.3809140270362494
579,1644542204119732618,,,,gyr,-1.1934262501006474e-07,-7.159398782877847e-07,0.0,-0.00523598771542,0.0,2.6241707524178813e-05,0.01611843726660153,-0.3809140270362494
580,1644542204121436834,-0.00980664975941,-9.58109664917,0.12748645246,acc,-3.978401396820699e-08,-5.171922042549768e-07,,,,,0.016118317923976517,-0.38091474297612765
581,1644542204123450756,-0.00980664975941,-9.58109664917,-0.0392265990376,acc,-3.977461249473545e-08,1.5909844997877958e-07,,,,,0.01611827813996255,-0.3809152601683319
582,1644542204124744654,,,,gyr,-3.976904551827055e-08,1.5909984161941306e-07,0.00872664619237,-0.0069813169539,0.0,3.499061190035714e-05,0.01611827813996255,-0.3809152601683319
583,1644542204125464678,-0.0294199492782,-9.62032318115,-0.00980664975941,acc,-1.1932383748408468e-07,3.977461249473545e-08,,,,,0.01611823837091703,-0.38091510106849025
584,1644542204127478600,-0.0294199492782,-9.58109664917,0.0686465501785,acc,-1.1932383748408468e-07,-2.784222950177553e-07,,,,,0.016118119047079545,-0.38091506129387775
585,1644542204129494667,0.0,-9.61051654816,0.0784531980753,acc,0.0,-3.188750750096437e-07,,,,,0.01611799972324206,-0.38091533971617275
586,1644542204129756689,,,,gyr,-3.068348880355295e-11,-3.188750735333971e-07,0.0383972451091,-0.0191986225545,-0.00174532923847,9.62241681949434e-05,0.01611799972324206,-0.38091533971617275
587,1644542204131508589,0.00980664975941,-9.64974308014,0.176519691944,acc,3.977461249473545e-08,-7.159430097955371e-07,,,,,0.01611799969255857,-0.38091565859124626
588,1644542204133522511,0.0,-9.56148338318,0.166713044047,acc,0.0,-6.761684048545165e-07,,,,,0.016118039467171066,-0.3809163745342561
589,1644542204134768486,,,,gyr,-8.87190704878608e-11,-6.761683990341666e-07,0.0767944902182,-0.0261799395084,0.0,0.00013120854228838058,0.016118039467171066,-0.3809163745342561
590,1644542204135536432,0.0,-9.62032318115,0.294199496508,acc,0.0,-1.19323720496368e-06,,,,,0.016118039378451996,-0.38091705070265514
591,1644542204137552500,0.0294199492782,-9.64974308014,0.343232750893,acc,1.195782717536712e-07,-1.395079874983198e-06,,,,,0.016118039378451996,-0.3809182439398601
592,1644542204139566422,0.00980664975941,-9.64974308014,0.402072638273,acc,3.977461249473545e-08,-1.6307591047288162e-06,,,,,0.01611815895672375,-0.38091963901973513
593,1644542204139780521,,,,gyr,3.94179787568648e-08,-1.6307677640932688e-06,0.0890117883682,-0.0436332300305,-0.00349065847695,0.00021869127607591706,0.01611815895672375,-0.38091963901973513
594,1644542204141580343,0.00980664975941,-9.62032318115,0.470719188452,acc,3.977457299508987e-08,-1.9091795037656116e-06,,,,,0.016118198374702505,-0.38092126978749924
595,1644542204143594503,0.00980664975941,-9.66935634613,0.470719188452,acc,3.978401396820699e-08,-1.9096326704752334e-06,,,,,0.0161182381492755,-0.380923178967003
596,1644542204144792557,,,,gyr,3.93329831482261e-08,-1.9096420136639368e-06,0.0680678412318,-0.0471238903701,0.0,0.00023618663499499454,0.0161182381492755,-0.380923178967003
597,1644542204145608425,0.00980664975941,-9.67916297913,0.509945809841,acc,3.977461249473545e-08,-2.0682799403820163e-06,,,,,0.01611827748225865,-0.3809250886090167
598,1644542204147622347,0.0294199492782,-9.62032318115,0.549172401428,acc,1.1932383748408468e-07,-2.2273783601420422e-06,,,,,0.016118317256871146,-0.38092715688895706
599,1644542204149638414,0.0294199492782,-9.64974308014,0.558979034424,acc,1.1957815312846397e-07,-2.2719849018734805e-06,,,,,0.01611843658070863,-0.3809293842673172
600,1644542204149804115,,,,gyr,1.1910120713614526e-07,-2.2720099540946944e-06,0.0209439508617,-0.0418879017234,-0.00349065847695,0.00020992364898511905,0.01611843658070863,-0.3809293842673172
601,1644542204151652336,0.0392265990376,-9.66935634613,0.558979034424,acc,1.5909844997877958e-07,-2.2671529046463682e-06,,,,,0.016118555681915767,-0.3809316562772713
602,1644542204153666258,0.0294199492782,-9.66935634613,0.509945809841,acc,1.1932383748408468e-07,-2.0682799403820163e-06,,,,,0.016118714780365747,-0.38093392343017596
603,1644542204154816151,,,,gyr,1.1888961257342398e-07,-2.0683049460852497e-06,-0.0383972451091,-0.0418879017234,0.0,0.00020994367140214285,0.016118714780365747,-0.38093392343017596
604,1644542204155680180,0.00980664975941,-9.66935634613,0.490332484245,acc,3.977461249473545e-08,-1.9887306096265847e-06,,,,,0.016118833669978322,-0.38093599173512205
605,1644542204157694340,0.0392265990376,-9.70858287811,0.490332484245,acc,1.591360558726657e-07,-1.98920068329659e-06,,,,,0.016118873444590818,-0.3809379804657317
606,1644542204159708261,0.0980664938688,-9.67916297913,0.362846046686,acc,3.977457148415371e-07,-1.4716592234818807e-06,,,,,0.01611903258064669,-0.38093996966641497
607,1644542204159828186,,,,gyr,3.974367405994357e-07,-1.471742695227598e-06,-0.11344639957,-0.0418879017234,0.0,0.0002099436295142411,0.01611903258064669,-0.38093996966641497
608,1644542204161722183,0.0686465501785,-9.7478094101,-0.0980664938688,acc,2.784222950177553e-07,3.9774610983797795e-07,,,,,0.016119430017387287,-0.3809414414091102
609,1644542204163736105,0.00980664975941,-9.35554409027,-0.813951909542,acc,3.977461249473545e-08,3.3012927539619583e-06,,,,,0.016119708439682304,-0.38094104366300036
610,1644542204164839983,,,,gyr,4.061204959334016e-08,3.30128255812626e-06,-0.139626339078,-0.0506145469844,0.00523598771542,0.00025366983473277497,0.016119708439682304,-0.38094104366300036
611,1644542204165752172,0.0686465501785,-9.78703689575,0.666852176189,acc,2.790156982040754e-07,-2.7104381072969835e-06,,,,,0.0161197490517319,-0.38093774238044226
612,1644542204167766094,0.0294199492782,-9.56148338318,0.176519691944,acc,1.1932383748408468e-07,-7.159430097955371e-07,,,,,0.016120028067430105,-0.38094045281854955
613,1644542204169780016,0.0392265990376,-9.58109664917,0.362846046686,acc,1.5909844997877958e-07,-1.4716606849687898e-06,,,,,0.01612014739126759,-0.38094116876155937
614,1644542204169850111,,,,gyr,1.5902123770258627e-07,-1.4716690301925892e-06,-0.0349065847695,-0.0104719754308,0.00349065847695,5.2465937321163136e-05,0.01612014739126759,-0.38094116876155937
615,1644542204171793938,0.0686465501785,-9.70858287811,0.12748645246,acc,2.784222950177553e-07,-5.170699850944901e-07,,,,,0.01612030641250529,-0.38094264043058956
616,1644542204173810005,0.0294199492782,-9.71838951111,0.421685934067,acc,1.1957815312846397e-07,-1.7139535054653296e-06,,,,,0.01612058483480031,-0.38094315750057467
617,1644542204174862146,,,,gyr,1.1950318767666016e-07,-1.7139587339657928e-06,-0.00523598771542,-0.00872664619237,0.00174532923847,4.373825614877517e-05,0.01612058483480031,-0.38094315750057467
618,1644542204175823927,0.0294199492782,-9.61051654816,0.362846046686,acc,1.1932383748408468e-07,-1.4716606849687898e-06,,,,,0.016120704337987984,-0.3809448714593086
619,1644542204177837849,0.0686465501785,-9.71838951111,0.176519691944,acc,2.784222950177553e-07,-7.159430097955371e-07,,,,,0.01612082366182547,-0.3809463431199936
620,1644542204179849863,0.00980664975941,-9.71838951111,0.00980664975941,acc,3.9699282852999984e-08,-3.9699282852999984e-08,,,,,0.016121102084120487,-0.3809470590630034
621,1644542204179873943,,,,gyr,3.969719924438584e-08,-3.970136635226211e-08,-0.00872664619237,-0.0104719754308,0.0,5.2483415048157144e-05,0.016121102084120487,-0.3809470590630034
622,1644542204181864023,-0.0686465501785,-9.57129001617,-0.0980664938688,acc,-2.784881053338417e-07,3.978401245691219e-07,,,,,0.01612114178131973,-0.3809470987643698
623,1644542204183877945,-0.0784531980753,-9.66935634613,-0.176519691944,acc,-3.181968999579648e-07,7.159430097955371e-07,,,,,0.016120863293214396,-0.3809467009242452
624,1644542204184885979,,,,gyr,-3.1800900436645066e-07,7.16026489426062e-07,-0.0069813169539,-0.0523598790169,0.00523598771542,0.0002624295985883474,0.016120863293214396,-0.3809467009242452
625,1644542204185891867,-0.137293100357,-9.78703689575,-0.166713044047,acc,-5.568445900355106e-07,6.761684048545165e-07,,,,,0.01612054528421003,-0.3809459848977558
626,1644542204187905788,-0.0294199492782,-9.53206348419,-0.137293100357,acc,-1.1932371898514792e-07,5.568440370404573e-07,,,,,0.016119988439619995,-0.3809453087293509
627,1644542204189898014,,,,gyr,-1.1877322903261179e-07,5.569617146313806e-07,-0.00349065847695,-0.197222203016,0.0,0.0009884845842932975,0.016119988439619995,-0.3809453087293509
628,1644542204189921856,0.0,-9.71838951111,0.362846046686,acc,0.0,-1.4747987076753524e-06,,,,,0.01611986966639096,-0.38094475176763626
629,1644542204191935778,0.274586200714,-9.71838951111,0.137293100357,acc,1.1136891800710211e-06,-5.568445900355106e-07,,,,,0.01611986966639096,-0.3809462265663439
630,1644542204193951845,0.225552946329,-9.7478094101,0.0784531980753,acc,9.167658482229563e-07,-3.188750750096437e-07,,,,,0.016120983355571033,-0.38094678341093396
631,1644542204194909573,,,,gyr,9.162458545774763e-07,-3.203661466196962e-07,-0.00174532923847,-0.324631243944,0.00349065847695,0.0016269086322687487,0.016120983355571033,-0.38094678341093396
632,1644542204195965767,0.166713044047,-9.71838951111,0.38245934248,acc,6.761684048545165e-07,-1.551209894850831e-06,,,,,0.01612189960142561,-0.3809471037770806
633,1644542204197977781,-0.0294199492782,-9.58109664917,0.529559075832,acc,-1.1909784855887848e-07,-2.1437612288187455e-06,,,,,0.016122575769830463,-0.38094865498697544
634,1644542204199921608,,,,gyr,-1.2290449256497787e-07,-2.1435463581236483e-06,0.0,-0.354301840067,0.0104719754308,0.0017757732229802062,0.016122575769830463,-0.38094865498697544
635,1644542204199991703,0.00980664975941,-9.61051654816,0.470719188452,acc,3.977461249473545e-08,-1.9091813997485995e-06,,,,,0.016122452865337897,-0.3809507985333336
636,1644542204202007771,0.0392265990376,-9.58109664917,0.637432217598,acc,1.5943769567156158e-07,-2.590862486529156e-06,,,,,0.016122492639950393,-0.38095270771473333
637,1644542204204021692,0.0784531980753,-9.57129001617,0.245166242123,acc,3.181965839608001e-07,-9.943643173241883e-07,,,,,0.016122652077646064,-0.3809552985772199
638,1644542204204933643,,,,gyr,3.166478920877471e-07,-9.948585698722751e-07,-0.0069813169539,-0.310668617487,0.00872664619237,0.001557081984246456,0.016122652077646064,-0.3809552985772199
639,1644542204206035614,0.0784531980753,-9.58109664917,0.38245934248,acc,3.181968999579648e-07,-1.551209894850831e-06,,,,,0.016122968725538152,-0.38095629343578974
640,1644542204208049536,0.00980664975941,-9.61051654816,0.225552946329,acc,3.977461249473545e-08,-9.148160949332792e-07,,,,,0.01612328692243811,-0.3809578446456846
641,1644542204209945440,,,,gyr,3.871030492571694e-08,-9.148617489220099e-07,0.00174532923847,-0.23212878406,0.0,0.001163382343565556,0.01612328692243811,-0.3809578446456846
642,1644542204210065603,0.0294199492782,-9.57129001617,0.294199496508,acc,1.1957815312846397e-07,-1.1957815464290641e-06,,,,,0.016123325632743036,-0.3809587595074335
643,1644542204212079525,0.0392265990376,-9.66935634613,0.0784531980753,acc,1.5909844997877958e-07,-3.181968999579648e-07,,,,,0.016123445210896165,-0.38095995528897997
644,1644542204214091539,0.0,-9.53206348419,0.0294199492782,acc,0.0,-1.1909784855887848e-07,,,,,0.016123604309346146,-0.3809602734858799
645,1644542204214957476,,,,gyr,-1.2606100491491024e-10,-1.1909778184322576e-07,0.0174532923847,-0.211184844375,-0.00349065847695,0.0010584660426618975,0.016123604309346146,-0.3809602734858799
646,1644542204216105461,0.0294199492782,-9.57129001617,-0.00980664975941,acc,1.1932383748408468e-07,3.977461249473545e-08,,,,,0.01612360418328514,-0.38096039258366177
647,1644542204218121529,0.00980664975941,-9.62032318115,0.0784531980753,acc,3.9859423917931046e-08,-3.1887539134352963e-07,,,,,0.016123723507122625,-0.3809603528090493
648,1644542204219969511,,,,gyr,3.94800359555606e-08,-3.1892258565442825e-07,0.0314159244299,-0.237364768982,-0.0139626339078,0.0011896805299046983,0.016123723507122625,-0.3809603528090493
649,1644542204220137358,0.0784531980753,-9.81645679474,0.0784531980753,acc,3.18799792007393e-07,-3.18799792007393e-07,,,,,0.01612376298715858,-0.38096067173163495
650,1644542204222149372,-0.0980664938688,-9.62032318115,0.343232750893,acc,-3.9699281344923906e-07,-1.3894749375585204e-06,,,,,0.016124081786950586,-0.38096099053142696
651,1644542204224165440,0.00980664975941,-9.66935634613,0.245166242123,acc,3.9859423917931046e-08,-9.964855903791048e-07,,,,,0.016123684794137137,-0.3809623800063645
652,1644542204224981546,,,,gyr,3.858672306442065e-08,-9.96535684414468e-07,0.0558505356312,-0.254818081856,-0.0174532923847,0.001277157144895137,0.016123684794137137,-0.3809623800063645
653,1644542204226179361,0.12748645246,-9.80665016174,0.313812792301,acc,5.17069471599075e-07,-1.2727863358423893e-06,,,,,0.0161237233808602,-0.3809633765420489
654,1644542204228193283,0.0980664938688,-9.67916297913,0.294199496508,acc,3.9774610983797795e-07,-1.1932383899530623e-06,,,,,0.0161242404503318,-0.38096464932838475
655,1644542204229993343,,,,gyr,3.962323473666377e-07,-1.1937419109880263e-06,0.0680678412318,-0.253072738647,-0.0191986225545,0.0012683491923328185,0.0161242404503318,-0.38096464932838475
656,1644542204230207205,0.0980664938688,-9.61051654816,0.294199496508,acc,3.9774610983797795e-07,-1.1932383899530623e-06,,,,,0.016124636682679168,-0.38096584307029574
657,1644542204232223272,0.0686465501785,-9.66935634613,0.421685934067,acc,2.790156982040754e-07,-1.7139535054653296e-06,,,,,0.016125034428789004,-0.38096703630868567
658,1644542204234237194,0.0294199492782,-9.56148338318,0.529559075832,acc,1.1932383748408468e-07,-2.1478290293866114e-06,,,,,0.01612531344448721,-0.3809687502621911
659,1644542204235005379,,,,gyr,1.1705036697329088e-07,-2.1479541264326804e-06,0.0767944902182,-0.211184844375,-0.00174532923847,0.0010584660426618975,0.01612531344448721,-0.3809687502621911
660,1644542204236249208,0.0,-9.57129001617,0.509945809841,acc,0.0,-2.0643627988400776e-06,,,,,0.01612543049485418,-0.3809708982163176
661,1644542204238265276,0.0784531980753,-9.61051654816,0.402072638273,acc,3.1887539134352963e-07,-1.6342363730637251e-06,,,,,0.01612543049485418,-0.3809729625791164
662,1644542204240017414,,,,gyr,3.176458685067524e-07,-1.634475799903308e-06,0.0767944902182,-0.150098308921,0.00349065847695,0.0007522979777528642,0.01612543049485418,-0.3809729625791164
663,1644542204240277290,0.0,-9.61051654816,0.343232750893,acc,0.0,-1.3894749375585204e-06,,,,,0.01612574814072269,-0.3809745970549163
664,1644542204242293119,0.00980664975941,-9.58109664917,0.313812792301,acc,3.984997400091397e-08,-1.2751991680287593e-06,,,,,0.01612574814072269,-0.38097598652985387
665,1644542204244307041,0.0392265990376,-9.58109664917,0.362846046686,acc,1.5909844997877958e-07,-1.4716606849687898e-06,,,,,0.01612578799069669,-0.3809772617290219
666,1644542204245027065,,,,gyr,1.5812048861948304e-07,-1.4717660818034888e-06,0.0523598790169,-0.132645025849,-0.0069813169539,0.0006645052863894688,0.01612578799069669,-0.3809772617290219
667,1644542204246323347,0.00980664975941,-9.58109664917,0.470719188452,acc,3.986883540885606e-08,-1.913704099626392e-06,,,,,0.01612594611118531,-0.3809787334951037
668,1644542204248337269,0.00980664975941,-9.58109664917,0.490332484245,acc,3.977461249473545e-08,-1.9887306096265847e-06,,,,,0.01612598598002072,-0.3809806471992033
669,1644542204250039101,,,,gyr,3.8626422082661773e-08,-1.9887532418532786e-06,0.0383972451091,-0.115191727877,0.00174532923847,0.0005773450870217275,0.01612598598002072,-0.3809806471992033
670,1644542204250351191,0.0392265990376,-9.58109664917,0.57859236002,acc,1.5909844997877958e-07,-2.3467022354017995e-06,,,,,0.0161260246064428,-0.3809826359524452
671,1644542204252365351,0.0686465501785,-9.58109664917,0.558979034424,acc,2.784881053338417e-07,-2.26768878863246e-06,,,,,0.016126183704892782,-0.3809849826546806
672,1644542204254381180,0.0686465501785,-9.66935634613,0.490332484245,acc,2.7894982557531875e-07,-1.992498684906881e-06,,,,,0.016126462192998115,-0.38098725034346925
673,1644542204255051136,,,,gyr,2.7811317619831146e-07,-1.99261563673706e-06,0.00523598771542,-0.0837758034468,-0.00174532923847,0.0004198872590284822,0.016126462192998115,-0.38098725034346925
674,1644542204256395102,0.0686465501785,-9.62032318115,0.451105892658,acc,2.784222950177553e-07,-1.8296321898665583e-06,,,,,0.016126740306174312,-0.38098924295910597
675,1644542204258409023,0.0,-9.64974308014,0.421685934067,acc,0.0,-1.7103066161261198e-06,,,,,0.01612701872846933,-0.38099107259129583
676,1644542204260062933,,,,gyr,-3.291300312466693e-10,-1.71030658445736e-06,-0.0296705961227,-0.0383972451091,0.00349065847695,0.00019243919784605207,0.01612701872846933,-0.38099107259129583
677,1644542204260423183,0.00980664975941,-9.67916297913,0.343232750893,acc,3.978401396820699e-08,-1.392440526671237e-06,,,,,0.016127018399339298,-0.3809927828978803
678,1644542204262437105,0.00980664975941,-9.66935634613,0.245166242123,acc,3.977461249473545e-08,-9.943653048153203e-07,,,,,0.016127058183353266,-0.38099417533840696
679,1644542204264452934,0.0392265990376,-9.66935634613,0.0784531980753,acc,1.5939989600349333e-07,-3.18799792007393e-07,,,,,0.016127097957965762,-0.3809951697037118
680,1644542204265074968,,,,gyr,1.5936643013262333e-07,-3.188165227472774e-07,-0.0593411922455,-0.0209439508617,0.00349065847695,0.00010497181475712054,0.016127097957965762,-0.3809951697037118
681,1644542204266467094,0.0,-9.66935634613,0.0784531980753,acc,0.0,-3.1827211174573706e-07,,,,,0.016127257324395895,-0.3809954885202345
682,1644542204268481016,-0.137293100357,-9.57129001617,0.294199496508,acc,-5.568445900355106e-07,-1.1932383899530623e-06,,,,,0.016127257324395895,-0.38099580679234624
683,1644542204270087004,,,,gyr,-5.569698433915436e-07,-1.193179930380155e-06,-0.0523598790169,-0.0209439508617,0.00523598771542,0.00010497183570107142,0.016127257324395895,-0.38099580679234624
684,1644542204270494938,0.0,-9.64974308014,0.245166242123,acc,0.0,-9.943653048153203e-07,,,,,0.016126700354552503,-0.3809969999722766
685,1644542204272508860,0.166713044047,-9.78703689575,-0.00980664975941,acc,6.761684048545165e-07,3.977461249473545e-08,,,,,0.016126700354552503,-0.3809979943375814
686,1644542204274524927,-0.176519691944,-9.53206348419,0.245166242123,acc,-7.17468903629611e-07,-9.964846018357185e-07,,,,,0.016127376522957357,-0.3809979545629689
687,1644542204275098801,,,,gyr,-7.176432223659109e-07,-9.963590691931489e-07,-0.0383972451091,-0.0349065847695,0.0,0.00017494471682802582,0.016127376522957357,-0.3809979545629689
688,1644542204276538849,0.00980664975941,-9.62032318115,0.166713044047,acc,3.977461249473545e-08,-6.761684048545165e-07,,,,,0.016126658879734992,-0.3809989509220381
689,1644542204278552771,0.0,-9.57129001617,0.313812792301,acc,0.0,-1.2727875998310479e-06,,,,,0.016126698654347488,-0.380999627090443
690,1644542204280110836,,,,gyr,-2.449458546538162e-10,-1.2727875762613367e-06,-0.0174532923847,-0.0383972451091,0.00349065847695,0.00019244833639038802,0.016126698654347488,-0.380999627090443
691,1644542204280566931,-0.00980664975941,-9.62032318115,0.225552946329,acc,-3.978401396820699e-08,-9.1503232882491e-07,,,,,0.016126698409401632,-0.3810008998780193
692,1644542204282582760,0.00980664975941,-9.64974308014,0.166713044047,acc,3.984997400091397e-08,-6.774495504452347e-07,,,,,0.016126658625387664,-0.3810018149103481
693,1644542204284596682,-0.0392265990376,-9.58109664917,0.343232750893,acc,-1.5909844997877958e-07,-1.3921114750908047e-06,,,,,0.016126698475361665,-0.3810024923598986
694,1644542204285122871,,,,gyr,-1.5924458156983626e-07,-1.3920947665679208e-06,-0.00174532923847,-0.0209439508617,0.00349065847695,0.00010497181475712054,0.016126698475361665,-0.3810024923598986
695,1644542204286612749,0.0686465501785,-9.70858287811,0.264779537916,acc,2.790156982040754e-07,-1.0762033554444165e-06,,,,,0.016126539230780095,-0.38100388445466515
696,1644542204288624763,-0.00980664975941,-9.66935634613,0.313812792301,acc,-3.9699282852999984e-08,-1.2703770512955137e-06,,,,,0.0161268182464783,-0.3810049606580206
697,1644542204290134668,,,,gyr,-3.987707906641532e-08,-1.2703714827098638e-06,0.0,-0.0279252678156,0.00174532923847,0.00013995577346242064,0.0161268182464783,-0.3810049606580206
698,1644542204290638685,-0.00980664975941,-9.64974308014,0.402072638273,acc,-3.977461249473545e-08,-1.6307591047288162e-06,,,,,0.016126778369399235,-0.3810062310295033
699,1644542204292654753,0.0784531980753,-9.71838951111,0.225552946329,acc,3.1887539134352963e-07,-9.16766757682886e-07,,,,,0.01612673859478674,-0.38100786178860807
700,1644542204294668674,0.0,-9.70858287811,0.264779537916,acc,0.0,-1.0739134482028975e-06,,,,,0.01612705747017808,-0.38100877855536575
701,1644542204295146704,,,,gyr,-1.878844424447303e-10,-1.0739134317674183e-06,-0.00349065847695,-0.0349065847695,0.0,0.00017495305950178573,0.01612705747017808,-0.38100877855536575
702,1644542204296682596,-0.00980664975941,-9.62032318115,0.245166242123,acc,-3.977461249473545e-08,-9.943653048153203e-07,,,,,0.016127057282293637,-0.38100985246879754
703,1644542204298696518,-0.00980664975941,-9.64974308014,0.38245934248,acc,-3.977461249473545e-08,-1.551209894850831e-06,,,,,0.01612701750768114,-0.38101084683410236
704,1644542204300158739,,,,gyr,-4.00731395199956e-08,-1.5512022115672873e-06,-0.00872664619237,-0.0383972451091,0.0,0.00019244833639038802,0.01612701750768114,-0.38101084683410236
705,1644542204300712585,0.12748645246,-9.75761604309,0.294199496508,acc,5.181720196017698e-07,-1.1957815464290641e-06,,,,,0.016126977434541622,-0.3810123980363139
706,1644542204302726507,0.0686465501785,-9.66935634613,0.245166242123,acc,2.784222950177553e-07,-9.943653048153203e-07,,,,,0.016127495606561223,-0.3810135938178604
707,1644542204304740429,-0.0392265990376,-9.61051654816,0.38245934248,acc,-1.5909844997877958e-07,-1.551209894850831e-06,,,,,0.01612777402885624,-0.3810145881831652
708,1644542204305168390,,,,gyr,-1.593697073202155e-07,-1.5511820496181116e-06,-0.00872664619237,-0.0349065847695,-0.00349065847695,0.00017486980729711048,0.01612777402885624,-0.3810145881831652
709,1644542204306756496,0.0686465501785,-9.71838951111,0.313812792301,acc,2.790156982040754e-07,-1.275500300037762e-06,,,,,0.01612761465914892,-0.38101613936521483
710,1644542204308770418,0.0980664938688,-9.66935634613,0.343232750893,acc,3.9774610983797795e-07,-1.3921114750908047e-06,,,,,0.016127893674847127,-0.3810174148655149
711,1644542204310180426,,,,gyr,3.9758779706783967e-07,-1.392156697571607e-06,-0.00523598771542,-0.0226892791688,0.00174532923847,0.00011371948400807568,0.016127893674847127,-0.3810174148655149
712,1644542204310784340,0.0294199492782,-9.57129001617,0.313812792301,acc,1.1932383748408468e-07,-1.2727875998310479e-06,,,,,0.016128291262644194,-0.38101880702221247
713,1644542204312798500,0.0392265990376,-9.64974308014,0.294199496508,acc,1.591360558726657e-07,-1.1935204341607803e-06,,,,,0.01612841058648168,-0.3810200798098123
714,1644542204314814568,0.0686465501785,-9.66935634613,0.343232750893,acc,2.7901597499623306e-07,-1.395079874983198e-06,,,,,0.01612856972253755,-0.38102127333024643
715,1644542204315192461,,,,gyr,2.789671601367014e-07,-1.3950896370669154e-06,-0.00349065847695,-0.0069813169539,0.0,3.499060491904019e-05,0.01612856972253755,-0.38102127333024643
716,1644542204316828251,0.0686465501785,-9.58109664917,0.264779537916,acc,2.7835621601364845e-07,-1.0736596385469026e-06,,,,,0.016128848689697686,-0.3810226684198835
717,1644542204318842173,0.0294199492782,-9.58109664917,0.343232750893,acc,1.1932383748408468e-07,-1.3921114750908047e-06,,,,,0.0161291270459137,-0.38102374207952205
718,1644542204320204258,,,,gyr,1.1932383748408468e-07,-1.3921114750908047e-06,0.0,0.0,0.0,-0.0,0.0161291270459137,-0.38102374207952205
719,1644542204320856333,0.0686465501785,-9.62032318115,0.294199496508,acc,2.784881053338417e-07,-1.1935204341607803e-06,,,,,0.016129246369751184,-0.38102513419099715
720,1644542204322872400,0.0686465501785,-9.64974308014,0.245166242123,acc,2.790156982040754e-07,-9.964846018357185e-07,,,,,0.016129524857856518,-0.3810263277114313
721,1644542204324886322,0.0294199492782,-9.57129001617,0.264779537916,acc,1.1932383748408468e-07,-1.0739145146933057e-06,,,,,0.016129803873554723,-0.38102732419603313
722,1644542204325216293,,,,gyr,1.1931444324989428e-07,-1.0739155584555306e-06,0.0,-0.00174532923847,0.0,8.747651229734985e-06,0.016129803873554723,-0.38102732419603313
723,1644542204326900482,0.0980664938688,-9.67916297913,0.294199496508,acc,3.978401245691219e-07,-1.1935204341607803e-06,,,,,0.016129923187997972,-0.3810283981115916
724,1644542204328914404,0.0686465501785,-9.61051654816,0.274586200714,acc,2.784222950177553e-07,-1.1136891800710211e-06,,,,,0.016130321028122542,-0.38102959163202577
