,field.header.stamp,field.linear_acceleration.x,field.linear_acceleration.y,field.linear_acceleration.z,type,delta_x,delta_z,field.angular_velocity.x,field.angular_velocity.y,field.angular_velocity.z,delta_angle,x,z
0,1.64454093642317e+18,0.343232750893,-9.67916297913,0.774725317955,acc,0.0,0.0,,,,,0,0
1,1.644540936424736e+18,,,,gyr,0.0,0.0,-0.00349065847695,0.0,0.00349065847695,,0,0
2,1.64454093642518e+18,0.313812792301,-9.62032318115,0.735498726368,acc,1.2676534087332848e-06,-2.971062654147938e-06,,,,,0.0,0.0
3,1.64454093642719e+18,0.343232750893,-9.58109664917,0.764918684959,acc,1.386849178302083e-06,-3.0906923856867118e-06,,,,,1.2676534087332848e-06,-2.971062654147938e-06
4,1.64454093642921e+18,0.313812792301,-9.57129001617,0.725692093372,acc,1.2806034297504652e-06,-2.9613954769045806e-06,,,,,2.6545025870353678e-06,-6.06175503983465e-06
5,1.644540936429748e+18,,,,gyr,1.2806034297504652e-06,-2.9613954769045806e-06,0.0,0.0,0.00174532923847,-0.0,2.6545025870353678e-06,-6.06175503983465e-06
6,1.64454093643122e+18,0.343232750893,-9.61051654816,0.637432217598,acc,1.3864959534252466e-06,-2.574920918773351e-06,,,,,3.935106016785833e-06,-9.023150516739231e-06
7,1.64454093643324e+18,0.38245934248,-9.61051654816,0.686465501785,acc,1.5607354376115246e-06,-2.801320078590192e-06,,,,,5.321601970211079e-06,-1.1598071435512582e-05
8,1.6445409364347604e+18,,,,gyr,1.5607354376115246e-06,-2.801320078590192e-06,0.0,0.0,-0.00349065847695,-0.0,5.321601970211079e-06,-1.1598071435512582e-05
9,1.64454093643525e+18,0.421685934067,-9.53206348419,0.696272134781,acc,1.7034092454146536e-06,-2.812606008153235e-06,,,,,6.882337407822604e-06,-1.4399391514102773e-05
10,1.64454093643727e+18,0.402072638273,-9.58109664917,0.725692093372,acc,1.640773136766678e-06,-2.9613954769045806e-06,,,,,8.585746653237258e-06,-1.7211997522256008e-05
11,1.64454093643928e+18,0.402072638273,-9.71838951111,0.804145276546,acc,1.6245947001150026e-06,-3.2491894002300053e-06,,,,,1.0226519790003936e-05,-2.017339299916059e-05
12,1.6445409364397722e+18,,,,gyr,1.624623121478827e-06,-3.2491751893927123e-06,0.00174532923847,0.00174532923847,0.0,-8.74723584137623e-06,1.0226519790003936e-05,-2.017339299916059e-05
13,1.6445409364413e+18,0.421685934067,-9.70858287811,0.774725317955,acc,1.720374718374366e-06,-3.1606884247710245e-06,,,,,1.1851142911482763e-05,-2.3422568188553302e-05
14,1.64454093644331e+18,0.38245934248,-9.61051654816,0.735498726368,acc,1.5453461928453765e-06,-2.971819564572013e-06,,,,,1.3571517629857129e-05,-2.6583256613324326e-05
15,1.644540936444784e+18,,,,gyr,1.5453721892273187e-06,-2.971806046308785e-06,0.0,0.00174532923847,0.0,-8.747651229734985e-06,1.3571517629857129e-05,-2.6583256613324326e-05
16,1.64454093644533e+18,0.38245934248,-9.56148338318,0.637432217598,acc,1.5603398891273724e-06,-2.6005664008196893e-06,,,,,1.5116889819084447e-05,-2.9555062659633112e-05
17,1.64454093644734e+18,0.402072638273,-9.53206348419,0.666852176189,acc,1.6245947001150026e-06,-2.69444972890998e-06,,,,,1.667722970821182e-05,-3.21556290604528e-05
18,1.644540936449796e+18,,,,gyr,1.6245947001150026e-06,-2.69444972890998e-06,-0.00174532923847,0.0,0.00349065847695,-0.0,1.667722970821182e-05,-3.21556290604528e-05
19,1.64454093645339e+18,0.343232750893,-9.64974308014,0.735498726368,acc,1.2563376114933558e-05,-2.692151931123958e-05,,,,,1.8301824408326822e-05,-3.4850078789362784e-05
20,1.644540936454808e+18,,,,gyr,1.2562905135253782e-05,-2.69217390967475e-05,0.0,-0.00349065847695,0.0,1.749447168280258e-05,1.8301824408326822e-05,-3.4850078789362784e-05
21,1.6445409364554e+18,0.402072638273,-9.67916297913,0.735498726368,acc,1.624180922415282e-06,-2.971062654147938e-06,,,,,3.0864729543580604e-05,-6.177181788611028e-05
22,1.64454093645742e+18,0.402072638273,-9.70858287811,0.764918684959,acc,1.640773136766678e-06,-3.1214708752189678e-06,,,,,3.248891046599589e-05,-6.474288054025822e-05
23,1.64454093645982e+18,,,,gyr,1.6408004422424407e-06,-3.1214565221883904e-06,0.0,0.00174532923847,0.0,-8.747651229734985e-06,3.248891046599589e-05,-6.474288054025822e-05
24,1.644540936464832e+18,,,,gyr,1.6407731367666779e-06,-3.1214708752189673e-06,-0.00174532923847,-0.00174532923847,-0.00174532923847,8.747651229734985e-06,3.248891046599589e-05,-6.474288054025822e-05
25,1.644540936469842e+18,,,,gyr,1.6407458428513626e-06,-3.1214852218681738e-06,-0.00174532923847,-0.00174532923847,0.0,8.743907498518468e-06,3.248891046599589e-05,-6.474288054025822e-05
26,1.644540936474854e+18,,,,gyr,1.6407185371245471e-06,-3.121499574421133e-06,-0.00349065847695,-0.00174532923847,0.0,8.747651229734985e-06,3.248891046599589e-05,-6.474288054025822e-05
27,1.6445409364798664e+18,,,,gyr,1.6407458441534393e-06,-3.121485221183763e-06,-0.00349065847695,0.00174532923847,0.00174532923847,-8.74806836342298e-06,3.248891046599589e-05,-6.474288054025822e-05
28,1.644540936484878e+18,,,,gyr,1.6406912351675513e-06,-3.1215139246877956e-06,-0.00174532923847,-0.00349065847695,-0.00174532923847,1.749447168280258e-05,3.248891046599589e-05,-6.474288054025822e-05
29,1.64454093648989e+18,,,,gyr,1.6406912351675513e-06,-3.1215139246877956e-06,0.0,0.0,0.00349065847695,-0.0,3.248891046599589e-05,-6.474288054025822e-05
30,1.644540936494902e+18,,,,gyr,1.6406912351675513e-06,-3.1215139246877956e-06,-0.00523598771542,0.0,0.00174532923847,-0.0,3.248891046599589e-05,-6.474288054025822e-05
31,1.6445409364999142e+18,,,,gyr,1.6407458467466965e-06,-3.12148521982067e-06,-0.00174532923847,0.00349065847695,-0.00349065847695,-1.7495302459520094e-05,3.248891046599589e-05,-6.474288054025822e-05
32,1.64454093718673e+18,0.362846046686,-9.61051654816,0.764918684959,acc,0.19299527451832557,-0.4068548987543778,,,,,3.412965631274258e-05,-6.78643657600789e-05
33,1.64454093718875e+18,0.38245934248,-9.58109664917,0.735498726368,acc,1.5607354376115246e-06,-3.0014142656763776e-06,,,,,0.19302940417463832,-0.40692276312013786
34,1.64454093719076e+18,0.362846046686,-9.57129001617,0.725692093372,acc,1.4657242764205787e-06,-2.9314485528411574e-06,,,,,0.19303096491007593,-0.40692576453440354
35,1.644540937191549e+18,,,,gyr,1.4586427316266115e-06,-2.9349786462453186e-06,-0.00523598771542,-0.00349065847695,0.0,0.002414260371428139,0.19303096491007593,-0.40692576453440354
36,1.64454093719278e+18,0.38245934248,-9.61051654816,0.696272134781,acc,1.5607354376115246e-06,-2.8413388673619896e-06,,,,,0.19303242355280756,-0.4069286995130498
37,1.6445409371948e+18,0.402072638273,-9.61051654816,0.686465501785,acc,1.640773136766678e-06,-2.801320078590192e-06,,,,,0.19303398428824517,-0.40693154085191713
38,1.6445409371965588e+18,,,,gyr,1.640773136766678e-06,-2.801320078590192e-06,-0.00523598771542,0.0,0.0,-0.0,0.19303398428824517,-0.40693154085191713
39,1.64454093719681e+18,0.402072638273,-9.62032318115,0.686465501785,acc,1.624180922415282e-06,-2.7729919068464536e-06,,,,,0.19303562506138194,-0.4069343421719957
40,1.64454093719882e+18,0.421685934067,-9.62032318115,0.686465501785,acc,1.7038432073886696e-06,-2.773698356600126e-06,,,,,0.19303724924230437,-0.4069371151639026
41,1.64454093720084e+18,0.402072638273,-9.62032318115,0.666852176189,acc,1.6403573037488294e-06,-2.720592583546323e-06,,,,,0.19303895308551175,-0.4069398888622592
42,1.644540937201571e+18,,,,gyr,1.6403573037488294e-06,-2.720592583546323e-06,-0.00174532923847,0.0,0.0,-0.0,0.19303895308551175,-0.4069398888622592
43,1.64454093720285e+18,0.402072638273,-9.61051654816,0.637432217598,acc,1.6245947001150026e-06,-2.575576907795281e-06,,,,,0.1930405934428155,-0.40694260945484273
44,1.64454093720487e+18,0.402072638273,-9.62032318115,0.686465501785,acc,1.6403573037488294e-06,-2.8006101197566777e-06,,,,,0.19304221803751562,-0.40694518503175053
45,1.644540937206583e+18,,,,gyr,1.6404063010188985e-06,-2.800581420780895e-06,-0.00349065847695,0.00349065847695,0.0,-1.7495302459520094e-05,0.19304221803751562,-0.40694518503175053
46,1.64454093720688e+18,0.362846046686,-9.61051654816,0.627625584602,acc,1.4660976855717095e-06,-2.535952714366687e-06,,,,,0.19304385844381663,-0.4069479856131713
47,1.6445409372089e+18,0.343232750893,-9.61051654816,0.637432217598,acc,1.4006600392971364e-06,-2.6012256482727273e-06,,,,,0.1930453245415022,-0.4069505215658857
48,1.64454093721091e+18,0.362846046686,-9.62032318115,0.627625584602,acc,1.4657242764205787e-06,-2.5353068174665696e-06,,,,,0.19304672520154148,-0.40695312279153395
49,1.6445409372115953e+18,,,,gyr,1.4657242764205787e-06,-2.5353068174665696e-06,-0.00349065847695,0.0,0.00523598771542,-0.0,0.19304672520154148,-0.40695312279153395
50,1.64454093721293e+18,0.38245934248,-9.64974308014,0.57859236002,acc,1.5607354376115246e-06,-2.361112672418825e-06,,,,,0.1930481909258179,-0.40695565809835144
51,1.64454093721494e+18,0.38245934248,-9.70858287811,0.57859236002,acc,1.54495259941995e-06,-2.3372360701691245e-06,,,,,0.19304975166125551,-0.40695801921102387
52,1.644540937216607e+18,,,,gyr,1.5449321550057222e-06,-2.3372495841444595e-06,-0.00523598771542,-0.00174532923847,0.0,8.74723584137623e-06,0.19304975166125551,-0.40695801921102387
53,1.64454093721696e+18,0.38245934248,-9.61051654816,0.627625584602,acc,1.5607354376115246e-06,-2.5612068595009303e-06,,,,,0.19305129659341053,-0.406960356460608
54,1.64454093721897e+18,0.402072638273,-9.62032318115,0.666852176189,acc,1.6245947001150026e-06,-2.69444972890998e-06,,,,,0.19305285732884814,-0.4069629176674675
55,1.64454093722099e+18,0.402072638273,-9.64974308014,0.627625584602,acc,1.6403573037488294e-06,-2.5605577542993295e-06,,,,,0.19305448192354827,-0.4069656121171964
56,1.6445409372216192e+18,,,,gyr,1.6403573037488294e-06,-2.5605577542993295e-06,-0.00523598771542,0.0,0.0,-0.0,0.19305448192354827,-0.4069656121171964
57,1.644540937223e+18,0.38245934248,-9.61051654816,0.598205626011,acc,1.5453461928453765e-06,-2.4170798932519884e-06,,,,,0.193056122280852,-0.40696817267495067
58,1.64454093722501e+18,0.38245934248,-9.62032318115,0.627625584602,acc,1.54495259941995e-06,-2.5353068174665696e-06,,,,,0.19305766762704485,-0.4069705897548439
59,1.6445409372266314e+18,,,,gyr,1.54495259941995e-06,-2.5353068174665696e-06,0.0,0.0,0.00174532923847,-0.0,0.19305766762704485,-0.4069705897548439
60,1.64454093722703e+18,0.402072638273,-9.62032318115,0.666852176189,acc,1.640773136766678e-06,-2.7212822578153175e-06,,,,,0.19305921257964426,-0.4069731250616614
61,1.64454093722904e+18,0.402072638273,-9.62032318115,0.637432217598,acc,1.6245947001150026e-06,-2.575576907795281e-06,,,,,0.19306085335278103,-0.4069758463439192
62,1.64454093723106e+18,0.343232750893,-9.62032318115,0.627625584602,acc,1.4003050598803785e-06,-2.5605577542993295e-06,,,,,0.19306247794748116,-0.406978421920827
63,1.6445409372316431e+18,,,,gyr,1.4003050598803785e-06,-2.5605577542993295e-06,0.0,0.0,0.00174532923847,-0.0,0.19306247794748116,-0.406978421920827
64,1.64454093723307e+18,0.402072638273,-9.61051654816,0.598205626011,acc,1.6245947001150026e-06,-2.4170798932519884e-06,,,,,0.19306387825254104,-0.4069809824785813
65,1.64454093723509e+18,0.362846046686,-9.62032318115,0.627625584602,acc,1.4803224745018357e-06,-2.5605577542993295e-06,,,,,0.19306550284724117,-0.4069833995584745
66,1.6445409372366554e+18,,,,gyr,1.4803224745018357e-06,-2.5605577542993295e-06,-0.00523598771542,0.0,0.0,-0.0,0.19306550284724117,-0.4069833995584745
67,1.6445409372371e+18,0.38245934248,-9.62032318115,0.666852176189,acc,1.5453461928453765e-06,-2.69444972890998e-06,,,,,0.19306698316971566,-0.4069859601162288
68,1.64454093723912e+18,0.362846046686,-9.62032318115,0.598205626011,acc,1.4803224745018357e-06,-2.4405315715726955e-06,,,,,0.1930685285159085,-0.4069886545659577
69,1.64454093724113e+18,0.402072638273,-9.66935634613,0.637432217598,acc,1.6245947001150026e-06,-2.575576907795281e-06,,,,,0.193070008838383,-0.40699109509752923
70,1.6445409372416676e+18,,,,gyr,1.6245947001150026e-06,-2.575576907795281e-06,0.0,0.0,0.00349065847695,-0.0,0.193070008838383,-0.40699109509752923
71,1.64454093724315e+18,0.38245934248,-9.61051654816,0.666852176189,acc,1.5607354376115246e-06,-2.7212822578153175e-06,,,,,0.19307163343308312,-0.40699367067443704
72,1.64454093724516e+18,0.362846046686,-9.61051654816,0.686465501785,acc,1.4657242764205787e-06,-2.7729919068464536e-06,,,,,0.19307319416852073,-0.40699639195669485
73,1.6445409372466775e+18,,,,gyr,1.4657242764205787e-06,-2.7729919068464536e-06,0.0,0.0,0.0,-0.0,0.19307319416852073,-0.40699639195669485
74,1.64454093724718e+18,0.38245934248,-9.64974308014,0.637432217598,acc,1.5607354376115246e-06,-2.6012256482727273e-06,,,,,0.19307465989279715,-0.4069991649486017
75,1.64454093724919e+18,0.38245934248,-9.62032318115,0.696272134781,acc,1.54495259941995e-06,-2.812606008153235e-06,,,,,0.19307622062823476,-0.40700176617425
76,1.64454093725121e+18,0.343232750893,-9.64974308014,0.666852176189,acc,1.4006600392971364e-06,-2.7212822578153175e-06,,,,,0.19307776558083417,-0.40700457878025814
77,1.6445409372516915e+18,,,,gyr,1.4006362242229125e-06,-2.7212945154427642e-06,0.0,-0.00174532923847,0.00349065847695,8.751396706280743e-06,0.19307776558083417,-0.40700457878025814
78,1.64454093725322e+18,0.402072638273,-9.66935634613,0.764918684959,acc,1.6245947001150026e-06,-3.0906923856867118e-06,,,,,0.1930791662170584,-0.4070073000747736
79,1.64454093725523e+18,0.362846046686,-9.64974308014,0.725692093372,acc,1.4657242764205787e-06,-2.9314485528411574e-06,,,,,0.19308079081175852,-0.4070103907671593
80,1.6445409372567017e+18,,,,gyr,1.4657242764205787e-06,-2.9314485528411574e-06,0.0,0.0,0.0,-0.0,0.19308079081175852,-0.4070103907671593
81,1.64454093725725e+18,0.38245934248,-9.62032318115,0.725692093372,acc,1.5607354376115246e-06,-2.9613954769045806e-06,,,,,0.19308225653603495,-0.4070133222157121
82,1.64454093725926e+18,0.362846046686,-9.58109664917,0.696272134781,acc,1.4657242764205787e-06,-2.812606008153235e-06,,,,,0.19308381727147256,-0.407016283611189
83,1.64454093726128e+18,0.38245934248,-9.61051654816,0.725692093372,acc,1.5607354376115246e-06,-2.9613954769045806e-06,,,,,0.19308528299574898,-0.4070190962171972
84,1.644540937261714e+18,,,,gyr,1.5606836243924787e-06,-2.9614227832919264e-06,-0.00174532923847,-0.00349065847695,0.00349065847695,1.7496136726896084e-05,0.19308528299574898,-0.4070190962171972
85,1.64454093726329e+18,0.38245934248,-9.61051654816,0.725692093372,acc,1.5453461928453765e-06,-2.932195371143419e-06,,,,,0.19308684367937337,-0.40702205763998045
86,1.64454093726531e+18,0.362846046686,-9.62032318115,0.725692093372,acc,1.4803224745018357e-06,-2.9606449490036714e-06,,,,,0.19308838902556621,-0.40702498983535157
87,1.644540937266726e+18,,,,gyr,1.4803224745018357e-06,-2.9606449490036714e-06,0.0,0.0,0.0,-0.0,0.19308838902556621,-0.40702498983535157
88,1.64454093726732e+18,0.38245934248,-9.62032318115,0.725692093372,acc,1.5453461928453765e-06,-2.932195371143419e-06,,,,,0.1930898693480407,-0.40702795048030055
89,1.64454093726934e+18,0.402072638273,-9.58109664917,0.735498726368,acc,1.6403573037488294e-06,-3.0006535955240307e-06,,,,,0.19309141469423355,-0.40703088267567167
90,1.64454093727135e+18,0.362846046686,-9.58109664917,0.735498726368,acc,1.4660976855717095e-06,-2.971819564572013e-06,,,,,0.1930930550515373,-0.4070338833292672
91,1.644540937271738e+18,,,,gyr,1.4660976855717095e-06,-2.971819564572013e-06,0.0,0.0,0.0,-0.0,0.1930930550515373,-0.4070338833292672
92,1.64454093727336e+18,0.362846046686,-9.58109664917,0.735498726368,acc,1.4657242764205787e-06,-2.971062654147938e-06,,,,,0.19309452114922285,-0.40703685514883176
93,1.64454093727538e+18,0.343232750893,-9.58109664917,0.764918684959,acc,1.4006600392971364e-06,-3.1214708752189678e-06,,,,,0.19309598687349927,-0.4070398262114859
94,1.64454093727675e+18,,,,gyr,1.4006600392971364e-06,-3.1214708752189678e-06,0.0,0.0,0.00523598771542,-0.0,0.19309598687349927,-0.4070398262114859
95,1.64454093727739e+18,0.362846046686,-9.64974308014,0.813951909542,acc,1.4660976855717095e-06,-3.2888135936585997e-06,,,,,0.19309738753353856,-0.4070429476823611
96,1.64454093727941e+18,0.402072638273,-9.62032318115,0.725692093372,acc,1.6403573037488294e-06,-2.9606449490036714e-06,,,,,0.19309885363122412,-0.4070462364959548
97,1.64454093728142e+18,0.38245934248,-9.62032318115,0.735498726368,acc,1.5453461928453765e-06,-2.971819564572013e-06,,,,,0.19310049398852785,-0.40704919714090376
98,1.644540937281762e+18,,,,gyr,1.5452941997267378e-06,-2.9718466004162444e-06,-0.00174532923847,-0.00349065847695,0.0,1.7495302459520094e-05,0.19310049398852785,-0.40704919714090376
99,1.64454093728344e+18,0.343232750893,-9.61051654816,0.725692093372,acc,1.4006600392971364e-06,-2.9613954769045806e-06,,,,,0.1931020392827276,-0.4070521689875042
100,1.64454093728545e+18,0.362846046686,-9.61051654816,0.735498726368,acc,1.4657242764205787e-06,-2.971062654147938e-06,,,,,0.19310343994276688,-0.4070551303829811
101,1.6445409372867743e+18,,,,gyr,1.4657242764205787e-06,-2.971062654147938e-06,-0.00174532923847,0.0,0.0,-0.0,0.19310343994276688,-0.4070551303829811
102,1.64454093728747e+18,0.362846046686,-9.62032318115,0.735498726368,acc,1.4806977384522903e-06,-3.0014142656763776e-06,,,,,0.1931049056670433,-0.4070581014456352
103,1.64454093728948e+18,0.402072638273,-9.66935634613,0.725692093372,acc,1.624180922415282e-06,-2.9314485528411574e-06,,,,,0.19310638636478175,-0.4070611028599009
104,1.6445409372915e+18,0.362846046686,-9.62032318115,0.725692093372,acc,1.4806977384522903e-06,-2.9613954769045806e-06,,,,,0.19310801054570417,-0.4070640343084537
105,1.6445409372917865e+18,,,,gyr,1.4806977384522903e-06,-2.9613954769045806e-06,0.0,0.0,0.0,-0.0,0.19310801054570417,-0.4070640343084537
106,1.64454093729351e+18,0.421685934067,-9.57129001617,0.725692093372,acc,1.7034092454146536e-06,-2.9314485528411574e-06,,,,,0.19310949124344262,-0.4070669957039306
107,1.64454093729552e+18,0.343232750893,-9.61051654816,0.696272134781,acc,1.386849178302083e-06,-2.81332255002872e-06,,,,,0.19311119465268803,-0.40706992715248347
108,1.6445409372967982e+18,,,,gyr,1.386849178302083e-06,-2.81332255002872e-06,-0.00174532923847,0.0,0.00523598771542,-0.0,0.19311119465268803,-0.40706992715248347
109,1.64454093729754e+18,0.362846046686,-9.62032318115,0.725692093372,acc,1.4806977384522903e-06,-2.9613954769045806e-06,,,,,0.19311258150186633,-0.4070727404750335
110,1.64454093729955e+18,0.402072638273,-9.61051654816,0.764918684959,acc,1.624180922415282e-06,-3.0899051988358604e-06,,,,,0.19311406219960478,-0.4070757018705104
111,1.64454093730157e+18,0.38245934248,-9.62032318115,0.696272134781,acc,1.5607354376115246e-06,-2.8413388673619896e-06,,,,,0.1931156863805272,-0.4070787917757092
112,1.6445409373018084e+18,,,,gyr,1.5607105919673683e-06,-2.841352514827968e-06,-0.00349065847695,-0.00174532923847,0.0,8.744322886877223e-06,0.1931156863805272,-0.4070787917757092
113,1.64454093730358e+18,0.362846046686,-9.64974308014,0.686465501785,acc,1.4657242764205787e-06,-2.7729919068464536e-06,,,,,0.19311724709111916,-0.40708163312822404
114,1.6445409373056e+18,0.402072638273,-9.62032318115,0.735498726368,acc,1.640773136766678e-06,-3.0014142656763776e-06,,,,,0.19311871281539558,-0.4070844061201309
115,1.6445409373068206e+18,,,,gyr,1.6407468801267121e-06,-3.0014286191570995e-06,-0.00349065847695,-0.00174532923847,0.0,8.74806836342298e-06,0.19311871281539558,-0.4070844061201309
116,1.64454093730761e+18,0.38245934248,-9.62032318115,0.696272134781,acc,1.5453461928453765e-06,-2.81332255002872e-06,,,,,0.19312035356227572,-0.40708740754875006
117,1.64454093730963e+18,0.38245934248,-9.62032318115,0.666852176189,acc,1.5603398891273724e-06,-2.720592583546323e-06,,,,,0.19312189890846856,-0.4070902208713001
118,1.64454093731164e+18,0.402072638273,-9.58109664917,0.627625584602,acc,1.6245947001150026e-06,-2.535952714366687e-06,,,,,0.1931234592483577,-0.40709294146388364
119,1.6445409373118323e+18,,,,gyr,1.6245947001150026e-06,-2.535952714366687e-06,-0.0069813169539,0.0,0.0,-0.0,0.1931234592483577,-0.40709294146388364
120,1.64454093731366e+18,0.362846046686,-9.62032318115,0.637432217598,acc,1.4803224745018357e-06,-2.6005664008196893e-06,,,,,0.19312508384305782,-0.407095477416598
121,1.64454093731567e+18,0.402072638273,-9.62032318115,0.666852176189,acc,1.6245947001150026e-06,-2.69444972890998e-06,,,,,0.1931265641655323,-0.40709807798299885
122,1.6445409373168448e+18,,,,gyr,1.6245947001150026e-06,-2.69444972890998e-06,-0.00174532923847,0.0,-0.00174532923847,-0.0,0.1931265641655323,-0.40709807798299885
123,1.64454093731768e+18,0.402072638273,-9.62032318115,0.696272134781,acc,1.6245947001150026e-06,-2.81332255002872e-06,,,,,0.19312818876023244,-0.40710077243272774
124,1.6445409373197e+18,0.38245934248,-9.61051654816,0.598205626011,acc,1.5603398891273724e-06,-2.4405315715726955e-06,,,,,0.19312981335493257,-0.4071035857552778
125,1.64454093732172e+18,0.402072638273,-9.64974308014,0.686465501785,acc,1.640773136766678e-06,-2.801320078590192e-06,,,,,0.1931313736948217,-0.40710602628684933
126,1.6445409373218568e+18,,,,gyr,1.640797641674931e-06,-2.8013057255718642e-06,-0.00349065847695,0.00174532923847,0.0,-8.747651229734985e-06,0.1931313736948217,-0.40710602628684933
127,1.64454093732373e+18,0.402072638273,-9.62032318115,0.627625584602,acc,1.624180922415282e-06,-2.5353068174665696e-06,,,,,0.19313301449246337,-0.4071088275925749
128,1.64454093732574e+18,0.402072638273,-9.62032318115,0.686465501785,acc,1.6245947001150026e-06,-2.773698356600126e-06,,,,,0.1931346386733858,-0.40711136289939237
129,1.644540937326869e+18,,,,gyr,1.6245704355499957e-06,-2.773712568559491e-06,-0.00174532923847,-0.00174532923847,0.0,8.74806836342298e-06,0.1931346386733858,-0.40711136289939237
130,1.64454093732776e+18,0.38245934248,-9.61051654816,0.637432217598,acc,1.5603398891273724e-06,-2.6005664008196893e-06,,,,,0.19313626324382133,-0.40711413661196094
131,1.64454093732977e+18,0.38245934248,-9.62032318115,0.637432217598,acc,1.5453461928453765e-06,-2.575576907795281e-06,,,,,0.19313782358371046,-0.4071167371783618
132,1.64454093733179e+18,0.343232750893,-9.62032318115,0.686465501785,acc,1.4006600392971364e-06,-2.801320078590192e-06,,,,,0.1931393689299033,-0.4071193127552696
133,1.6445409373318807e+18,,,,gyr,1.4006600392971364e-06,-2.801320078590192e-06,-0.00174532923847,0.0,0.00523598771542,-0.0,0.1931393689299033,-0.4071193127552696
134,1.6445409373338e+18,0.402072638273,-9.66935634613,0.696272134781,acc,1.624180922415282e-06,-2.812606008153235e-06,,,,,0.19314076958994258,-0.40712211407534815
135,1.64454093733582e+18,0.402072638273,-9.64974308014,0.637432217598,acc,1.640773136766678e-06,-2.6012256482727273e-06,,,,,0.193142393770865,-0.4071249266813563
136,1.6445409373368932e+18,,,,gyr,1.640773136766678e-06,-2.6012256482727273e-06,0.0,0.0,0.00174532923847,-0.0,0.193142393770865,-0.4071249266813563
137,1.64454093733783e+18,0.38245934248,-9.66935634613,0.666852176189,acc,1.54495259941995e-06,-2.693763463461273e-06,,,,,0.19314403454400178,-0.40712752790700457
138,1.64454093733985e+18,0.402072638273,-9.66935634613,0.627625584602,acc,1.640773136766678e-06,-2.5612068595009303e-06,,,,,0.1931455794966012,-0.40713022167046803
139,1.64454093734186e+18,0.402072638273,-9.62032318115,0.686465501785,acc,1.6245947001150026e-06,-2.773698356600126e-06,,,,,0.19314722026973796,-0.4071327828773275
140,1.6445409373419052e+18,,,,gyr,1.6245704367070046e-06,-2.7737125678818284e-06,-0.00174532923847,-0.00174532923847,-0.00174532923847,8.747651229734985e-06,0.19314722026973796,-0.4071327828773275
141,1.64454093734387e+18,0.38245934248,-9.66935634613,0.666852176189,acc,1.54495259941995e-06,-2.693763463461273e-06,,,,,0.19314884484017467,-0.4071355565898954
142,1.64454093734589e+18,0.402072638273,-9.64974308014,0.696272134781,acc,1.640773136766678e-06,-2.8413388673619896e-06,,,,,0.19315038979277407,-0.4071382503533589
143,1.644540937346917e+18,,,,gyr,1.640773136766678e-06,-2.8413388673619896e-06,-0.00174532923847,0.0,0.0,-0.0,0.19315038979277407,-0.4071382503533589
144,1.6445409373479e+18,0.402072638273,-9.66935634613,0.598205626011,acc,1.624180922415282e-06,-2.416464272778648e-06,,,,,0.19315203056591085,-0.40714109169222623
145,1.64454093734992e+18,0.402072638273,-9.64974308014,0.637432217598,acc,1.640773136766678e-06,-2.6012256482727273e-06,,,,,0.19315365474683327,-0.407143508156499
146,1.644540937351929e+18,,,,gyr,1.6407503820846203e-06,-2.601240001087214e-06,0.0,-0.00174532923847,0.0,8.747652975064225e-06,0.19315365474683327,-0.407143508156499
147,1.64454093735194e+18,0.402072638273,-9.64974308014,0.637432217598,acc,1.640773136766678e-06,-2.6012256482727273e-06,,,,,0.19315529549721536,-0.4071461093965001
148,1.64454093735395e+18,0.402072638273,-9.58109664917,0.686465501785,acc,1.624180922415282e-06,-2.7729919068464536e-06,,,,,0.19315693627035213,-0.40714871062214836
149,1.64454093735596e+18,0.362846046686,-9.62032318115,0.637432217598,acc,1.4660976855717095e-06,-2.575576907795281e-06,,,,,0.19315856045127455,-0.40715148361405523
150,1.6445409373569393e+18,,,,gyr,1.4660976855717095e-06,-2.575576907795281e-06,0.0,0.0,0.0,-0.0,0.19315856045127455,-0.40715148361405523
151,1.64454093735798e+18,0.421685934067,-9.66935634613,0.686465501785,acc,1.720374718374366e-06,-2.8006101197566777e-06,,,,,0.1931600265489601,-0.40715405919096304
152,1.64454093735999e+18,0.38245934248,-9.62032318115,0.686465501785,acc,1.5453461928453765e-06,-2.773698356600126e-06,,,,,0.1931617469236785,-0.4071568598010828
153,1.6445409373619512e+18,,,,gyr,1.5453461928453765e-06,-2.773698356600126e-06,0.0,0.0,0.0,-0.0,0.1931617469236785,-0.4071568598010828
154,1.64454093736201e+18,0.362846046686,-9.61051654816,0.725692093372,acc,1.4806977384522903e-06,-2.9613954769045806e-06,,,,,0.19316329226987133,-0.4071596334994394
155,1.64454093736402e+18,0.362846046686,-9.64974308014,0.686465501785,acc,1.4657242764205787e-06,-2.7729919068464536e-06,,,,,0.19316477296760978,-0.4071625948949163
156,1.64454093736604e+18,0.362846046686,-9.61051654816,0.735498726368,acc,1.4806977384522903e-06,-3.0014142656763776e-06,,,,,0.1931662386918862,-0.40716536788682317
157,1.6445409373669635e+18,,,,gyr,1.4806977384522903e-06,-3.0014142656763776e-06,0.0,0.0,0.0,-0.0,0.1931662386918862,-0.40716536788682317
158,1.64454093736805e+18,0.402072638273,-9.62032318115,0.696272134781,acc,1.624180922415282e-06,-2.812606008153235e-06,,,,,0.19316771938962465,-0.40716836930108885
159,1.64454093737007e+18,0.38245934248,-9.64974308014,0.686465501785,acc,1.5607354376115246e-06,-2.801320078590192e-06,,,,,0.19316934357054708,-0.407171181907097
160,1.6445409373719757e+18,,,,gyr,1.5607354376115246e-06,-2.801320078590192e-06,-0.00174532923847,0.0,0.00523598771542,-0.0,0.19316934357054708,-0.407171181907097
161,1.64454093737208e+18,0.38245934248,-9.66935634613,0.696272134781,acc,1.5453461928453765e-06,-2.81332255002872e-06,,,,,0.1931709043059847,-0.4071739832271756
162,1.64454093737409e+18,0.343232750893,-9.58109664917,0.686465501785,acc,1.3864959534252466e-06,-2.7729919068464536e-06,,,,,0.19317244965217753,-0.4071767965497256
163,1.64454093737611e+18,0.402072638273,-9.61051654816,0.735498726368,acc,1.640773136766678e-06,-3.0014142656763776e-06,,,,,0.19317383614813097,-0.4071795695416325
164,1.6445409373769874e+18,,,,gyr,1.6407206283587169e-06,-3.0014429696762543e-06,0.0,-0.00349065847695,0.0,1.749447168280258e-05,0.19317383614813097,-0.4071795695416325
165,1.64454093737812e+18,0.38245934248,-9.61051654816,0.725692093372,acc,1.54495259941995e-06,-2.9314485528411574e-06,,,,,0.19317547686875933,-0.40718257098460214
166,1.64454093738014e+18,0.402072638273,-9.62032318115,0.735498726368,acc,1.640773136766678e-06,-3.0014142656763776e-06,,,,,0.19317702182135874,-0.407185502433155
167,1.6445409373819996e+18,,,,gyr,1.6407993932810778e-06,-3.0013999119659614e-06,-0.00174532923847,0.00174532923847,-0.00174532923847,-8.74806836342298e-06,0.19317702182135874,-0.407185502433155
168,1.64454093738215e+18,0.362846046686,-9.64974308014,0.735498726368,acc,1.4657242764205787e-06,-2.971062654147938e-06,,,,,0.193178662620752,-0.40718850383306693
169,1.64454093738417e+18,0.38245934248,-9.57129001617,0.725692093372,acc,1.5607354376115246e-06,-2.9613954769045806e-06,,,,,0.19318012834502843,-0.40719147489572105
170,1.64454093738618e+18,0.362846046686,-9.61051654816,0.725692093372,acc,1.4660976855717095e-06,-2.932195371143419e-06,,,,,0.19318168908046604,-0.40719443629119795
171,1.6445409373870118e+18,,,,gyr,1.466046385702448e-06,-2.9322210205171107e-06,-0.00174532923847,-0.00349065847695,-0.00174532923847,1.7495302459520094e-05,0.19318168908046604,-0.40719443629119795
172,1.6445409373882e+18,0.343232750893,-9.64974308014,0.696272134781,acc,1.4003050598803785e-06,-2.8406187662770374e-06,,,,,0.19318315512685175,-0.40719736851221844
173,1.64454093739021e+18,0.362846046686,-9.64974308014,0.725692093372,acc,1.4660976855717095e-06,-2.932195371143419e-06,,,,,0.19318455543191163,-0.4072002091309847
174,1.644540937392024e+18,,,,gyr,1.465995080491895e-06,-2.9322466714393556e-06,0.0,-0.0069813169539,0.00349065847695,3.499227345379217e-05,0.19318455543191163,-0.4072002091309847
175,1.64454093739223e+18,0.38245934248,-9.61051654816,0.725692093372,acc,1.5603398891273724e-06,-2.9606449490036714e-06,,,,,0.19318602142699212,-0.4072031413776561
176,1.64454093739424e+18,0.362846046686,-9.61051654816,0.696272134781,acc,1.4660976855717095e-06,-2.81332255002872e-06,,,,,0.19318758176688125,-0.4072061020226051
177,1.64454093739626e+18,0.362846046686,-9.64974308014,0.764918684959,acc,1.4806977384522903e-06,-3.1214708752189678e-06,,,,,0.1931890478645668,-0.40720891534515513
178,1.6445409373970358e+18,,,,gyr,1.4806977384522903e-06,-3.1214708752189678e-06,0.0,0.0,0.0,-0.0,0.1931890478645668,-0.40720891534515513
179,1.64454093739827e+18,0.38245934248,-9.61051654816,0.696272134781,acc,1.54495259941995e-06,-2.812606008153235e-06,,,,,0.19319052856230526,-0.40721203681603035
180,1.64454093740029e+18,0.38245934248,-9.64974308014,0.696272134781,acc,1.5607354376115246e-06,-2.8413388673619896e-06,,,,,0.19319207351490467,-0.4072148494220385
181,1.6445409374020477e+18,,,,gyr,1.5607354376115246e-06,-2.8413388673619896e-06,-0.00349065847695,0.0,0.00349065847695,-0.0,0.19319207351490467,-0.4072148494220385
182,1.6445409374023e+18,0.362846046686,-9.61051654816,0.735498726368,acc,1.4657242764205787e-06,-2.971062654147938e-06,,,,,0.19319363425034228,-0.40721769076090586
183,1.64454093740431e+18,0.421685934067,-9.58109664917,0.725692093372,acc,1.7038432073886696e-06,-2.932195371143419e-06,,,,,0.1931950999746187,-0.40722066182356
184,1.64454093740633e+18,0.38245934248,-9.64974308014,0.696272134781,acc,1.5607354376115246e-06,-2.8413388673619896e-06,,,,,0.19319680381782608,-0.4072235940189311
185,1.6445409374070574e+18,,,,gyr,1.5607354376115246e-06,-2.8413388673619896e-06,-0.00174532923847,0.0,0.0,-0.0,0.19319680381782608,-0.4072235940189311
186,1.64454093740834e+18,0.38245934248,-9.62032318115,0.686465501785,acc,1.54495259941995e-06,-2.7729919068464536e-06,,,,,0.1931983645532637,-0.40722643535779846
187,1.64454093741036e+18,0.402072638273,-9.61051654816,0.735498726368,acc,1.640773136766678e-06,-3.0014142656763776e-06,,,,,0.1931999095058631,-0.40722920834970533
188,1.644540937412069e+18,,,,gyr,1.640773136766678e-06,-3.0014142656763776e-06,-0.00174532923847,0.0,0.0,-0.0,0.1931999095058631,-0.40722920834970533
189,1.64454093741237e+18,0.38245934248,-9.62032318115,0.725692093372,acc,1.54495259941995e-06,-2.9314485528411574e-06,,,,,0.19320155027899988,-0.407232209763971
190,1.64454093741439e+18,0.38245934248,-9.58109664917,0.686465501785,acc,1.5607354376115246e-06,-2.801320078590192e-06,,,,,0.1932030952315993,-0.40723514121252385
191,1.6445409374164e+18,0.38245934248,-9.58109664917,0.725692093372,acc,1.54495259941995e-06,-2.9314485528411574e-06,,,,,0.1932046559670369,-0.4072379425326024
192,1.6445409374170808e+18,,,,gyr,1.54495259941995e-06,-2.9314485528411574e-06,-0.00174532923847,0.0,-0.00523598771542,-0.0,0.1932046559670369,-0.4072379425326024
193,1.64454093741841e+18,0.362846046686,-9.58109664917,0.696272134781,acc,1.4660976855717095e-06,-2.81332255002872e-06,,,,,0.1932062009196363,-0.40724087398115527
194,1.64454093742043e+18,0.38245934248,-9.57129001617,0.637432217598,acc,1.5607354376115246e-06,-2.6012256482727273e-06,,,,,0.19320766701732187,-0.4072436873037053
195,1.6445409374220925e+18,,,,gyr,1.5607354376115246e-06,-2.6012256482727273e-06,-0.00174532923847,0.0,0.0,-0.0,0.19320766701732187,-0.4072436873037053
196,1.64454093742244e+18,0.38245934248,-9.61051654816,0.696272134781,acc,1.54495259941995e-06,-2.812606008153235e-06,,,,,0.19320922775275948,-0.4072462885293536
197,1.64454093742446e+18,0.38245934248,-9.67916297913,0.725692093372,acc,1.5607354376115246e-06,-2.9613954769045806e-06,,,,,0.19321077270535889,-0.4072491011353617
198,1.64454093742647e+18,0.38245934248,-9.62032318115,0.686465501785,acc,1.54495259941995e-06,-2.7729919068464536e-06,,,,,0.1932123334407965,-0.4072520625308386
199,1.6445409374271043e+18,,,,gyr,1.5449768553750398e-06,-2.7729783926756163e-06,0.0,0.00174532923847,0.0,-8.74723584137623e-06,0.1932123334407965,-0.4072520625308386
200,1.64454093742849e+18,0.362846046686,-9.61051654816,0.666852176189,acc,1.4806977384522903e-06,-2.7212822578153175e-06,,,,,0.19321387841765186,-0.4072548355092313
201,1.6445409374305e+18,0.38245934248,-9.58109664917,0.696272134781,acc,1.5453461928453765e-06,-2.81332255002872e-06,,,,,0.1932153591153903,-0.4072575567914891
202,1.644540937432116e+18,,,,gyr,1.5453215839904135e-06,-2.8133360674286955e-06,-0.00174532923847,-0.00174532923847,0.0,8.74723584137623e-06,0.1932153591153903,-0.4072575567914891
203,1.64454093743252e+18,0.38245934248,-9.62032318115,0.598205626011,acc,1.5603398891273724e-06,-2.4405315715726955e-06,,,,,0.1932169044369743,-0.40726037012755656
204,1.64454093743453e+18,0.402072638273,-9.62032318115,0.666852176189,acc,1.6245947001150026e-06,-2.69444972890998e-06,,,,,0.19321846477686344,-0.4072628106591281
205,1.64454093743655e+18,0.362846046686,-9.64974308014,0.686465501785,acc,1.4803224745018357e-06,-2.8006101197566777e-06,,,,,0.19322008937156357,-0.407265505108857
206,1.6445409374371277e+18,,,,gyr,1.4803469708741964e-06,-2.800597171537232e-06,-0.00523598771542,0.00174532923847,0.0,-8.746818707688236e-06,0.19322008937156357,-0.407265505108857
207,1.64454093743856e+18,0.362846046686,-9.61051654816,0.666852176189,acc,1.4660976855717095e-06,-2.69444972890998e-06,,,,,0.19322156971853444,-0.40726830570602857
208,1.64454093744057e+18,0.402072638273,-9.62032318115,0.735498726368,acc,1.6245947001150026e-06,-2.971819564572013e-06,,,,,0.19322303581622,-0.40727100015575746
209,1.6445409374421394e+18,,,,gyr,1.6245947001150026e-06,-2.971819564572013e-06,0.0,0.0,0.00174532923847,-0.0,0.19322303581622,-0.40727100015575746
210,1.64454093744259e+18,0.402072638273,-9.61051654816,0.637432217598,acc,1.6403573037488294e-06,-2.6005664008196893e-06,,,,,0.19322466041092012,-0.407273971975322
211,1.6445409374446e+18,0.362846046686,-9.57129001617,0.637432217598,acc,1.4660976855717095e-06,-2.575576907795281e-06,,,,,0.19322630076822386,-0.40727657254172284
212,1.64454093744662e+18,0.402072638273,-9.64974308014,0.686465501785,acc,1.6403573037488294e-06,-2.8006101197566777e-06,,,,,0.19322776686590942,-0.40727914811863064
213,1.644540937447151e+18,,,,gyr,1.6403818012832912e-06,-2.8005957710573347e-06,-0.00174532923847,0.00174532923847,0.0,-8.74723584137623e-06,0.19322776686590942,-0.40727914811863064
214,1.64454093744863e+18,0.402072638273,-9.64974308014,0.686465501785,acc,1.6245947001150026e-06,-2.773698356600126e-06,,,,,0.1932294072477107,-0.4072819487144017
215,1.64454093745065e+18,0.402072638273,-9.64974308014,0.666852176189,acc,1.640773136766678e-06,-2.7212822578153175e-06,,,,,0.19323103184241083,-0.4072847224127583
216,1.6445409374521608e+18,,,,gyr,1.640773136766678e-06,-2.7212822578153175e-06,0.0,0.0,0.0,-0.0,0.19323103184241083,-0.4072847224127583
217,1.64454093745266e+18,0.402072638273,-9.64974308014,0.686465501785,acc,1.624180922415282e-06,-2.7729919068464536e-06,,,,,0.1932326726155476,-0.4072874436950161
218,1.64454093745468e+18,0.402072638273,-9.62032318115,0.57859236002,acc,1.640773136766678e-06,-2.361112672418825e-06,,,,,0.19323429679647003,-0.407290216686923
219,1.64454093745669e+18,0.38245934248,-9.66935634613,0.666852176189,acc,1.54495259941995e-06,-2.693763463461273e-06,,,,,0.1932359375696068,-0.40729257779959543
220,1.644540937457173e+18,,,,gyr,1.54495259941995e-06,-2.693763463461273e-06,0.0,0.0,0.0,-0.0,0.1932359375696068,-0.40729257779959543
221,1.64454093745871e+18,0.362846046686,-9.64974308014,0.686465501785,acc,1.4806977384522903e-06,-2.801320078590192e-06,,,,,0.1932374825222062,-0.4072952715630589
222,1.64454093746072e+18,0.402072638273,-9.64974308014,0.637432217598,acc,1.6245947001150026e-06,-2.575576907795281e-06,,,,,0.19323896321994466,-0.40729807288313746
223,1.644540937462185e+18,,,,gyr,1.62457216980434e-06,-2.575591119084564e-06,-0.00349065847695,-0.00174532923847,0.00523598771542,8.747651229734985e-06,0.19323896321994466,-0.40729807288313746
224,1.64454093746274e+18,0.402072638273,-9.64974308014,0.686465501785,acc,1.6403573037488294e-06,-2.8006101197566777e-06,,,,,0.19324058779211448,-0.40730064847425657
225,1.64454093746475e+18,0.402072638273,-9.66935634613,0.686465501785,acc,1.6245947001150026e-06,-2.773698356600126e-06,,,,,0.19324222814941822,-0.4073034490843763
226,1.64454093746677e+18,0.402072638273,-9.64974308014,0.666852176189,acc,1.6403573037488294e-06,-2.720592583546323e-06,,,,,0.19324385274411834,-0.40730622278273293
227,1.6445409374671967e+18,,,,gyr,1.6403573037488294e-06,-2.720592583546323e-06,-0.00349065847695,0.0,0.00174532923847,-0.0,0.19324385274411834,-0.40730622278273293
228,1.64454093746878e+18,0.421685934067,-9.58109664917,0.686465501785,acc,1.7038432073886696e-06,-2.773698356600126e-06,,,,,0.19324549310142208,-0.4073089433753165
229,1.64454093747079e+18,0.402072638273,-9.62032318115,0.627625584602,acc,1.624180922415282e-06,-2.5353068174665696e-06,,,,,0.19324719694462947,-0.4073117170736731
230,1.6445409374722084e+18,,,,gyr,1.6241587454264832e-06,-2.5353210244631535e-06,0.0,-0.00174532923847,0.0,8.74723584137623e-06,0.19324719694462947,-0.4073117170736731
231,1.64454093747281e+18,0.421685934067,-9.66935634613,0.666852176189,acc,1.7208108359259126e-06,-2.7212822578153175e-06,,,,,0.1932488211033749,-0.40731425239469754
232,1.64454093747482e+18,0.402072638273,-9.62032318115,0.696272134781,acc,1.6245947001150026e-06,-2.81332255002872e-06,,,,,0.19325054191421084,-0.40731697367695535
233,1.64454093747684e+18,0.402072638273,-9.62032318115,0.696272134781,acc,1.6403573037488294e-06,-2.8406187662770374e-06,,,,,0.19325216650891097,-0.4073197869995054
234,1.6445409374772206e+18,,,,gyr,1.6403573037488294e-06,-2.8406187662770374e-06,-0.00523598771542,0.0,0.0,-0.0,0.19325216650891097,-0.4073197869995054
235,1.64454093747885e+18,0.38245934248,-9.62032318115,0.686465501785,acc,1.5453461928453765e-06,-2.773698356600126e-06,,,,,0.1932538068662147,-0.40732262761827165
236,1.64454093748087e+18,0.402072638273,-9.66935634613,0.696272134781,acc,1.6403573037488294e-06,-2.8406187662770374e-06,,,,,0.19325535221240756,-0.40732540131662825
237,1.6445409374822323e+18,,,,gyr,1.6403573037488294e-06,-2.8406187662770374e-06,0.0,0.0,0.00349065847695,-0.0,0.19325535221240756,-0.40732540131662825
238,1.64454093748288e+18,0.362846046686,-9.66935634613,0.725692093372,acc,1.4660976855717095e-06,-2.932195371143419e-06,,,,,0.1932569925697113,-0.4073282419353945
239,1.6445409374849e+18,0.362846046686,-9.62032318115,0.686465501785,acc,1.4806977384522903e-06,-2.801320078590192e-06,,,,,0.19325845866739685,-0.40733117413076564
240,1.64454093748691e+18,0.402072638273,-9.61051654816,0.735498726368,acc,1.624180922415282e-06,-2.971062654147938e-06,,,,,0.1932599393651353,-0.4073339754508442
241,1.6445409374872443e+18,,,,gyr,1.6242069121782049e-06,-2.971048446263185e-06,0.0,0.00174532923847,0.0,-8.747652975064225e-06,0.1932599393651353,-0.4073339754508442
242,1.64454093748893e+18,0.402072638273,-9.64974308014,0.696272134781,acc,1.640773136766678e-06,-2.8413388673619896e-06,,,,,0.1932615635720475,-0.4073369464992905
243,1.64454093749094e+18,0.362846046686,-9.64974308014,0.696272134781,acc,1.4657242764205787e-06,-2.812606008153235e-06,,,,,0.19326320434518426,-0.40733978783815783
244,1.6445409374922565e+18,,,,gyr,1.4657242764205787e-06,-2.812606008153235e-06,0.0,0.0,0.00523598771542,-0.0,0.19326320434518426,-0.40733978783815783
245,1.64454093749296e+18,0.402072638273,-9.62032318115,0.725692093372,acc,1.640773136766678e-06,-2.9613954769045806e-06,,,,,0.1932646700694607,-0.407342600444166
246,1.64454093749497e+18,0.402072638273,-9.61051654816,0.725692093372,acc,1.6245947001150026e-06,-2.932195371143419e-06,,,,,0.19326631084259746,-0.4073455618396429
247,1.64454093749698e+18,0.38245934248,-9.64974308014,0.735498726368,acc,1.54495259941995e-06,-2.971062654147938e-06,,,,,0.1932679354372976,-0.407348494035014
248,1.6445409374972682e+18,,,,gyr,1.54495259941995e-06,-2.971062654147938e-06,-0.00349065847695,0.0,0.0,-0.0,0.1932679354372976,-0.407348494035014
249,1.644540937499e+18,0.402072638273,-9.62032318115,0.686465501785,acc,1.640773136766678e-06,-2.801320078590192e-06,,,,,0.193269480389897,-0.4073514650976681
250,1.64454093750101e+18,0.38245934248,-9.62032318115,0.725692093372,acc,1.54495259941995e-06,-2.9314485528411574e-06,,,,,0.19327112116303377,-0.4073542664177467
251,1.64454093750228e+18,,,,gyr,1.54495259941995e-06,-2.9314485528411574e-06,0.0,0.0,0.00174532923847,-0.0,0.19327112116303377,-0.4073542664177467
252,1.64454093750303e+18,0.362846046686,-9.64974308014,0.686465501785,acc,1.4806977384522903e-06,-2.801320078590192e-06,,,,,0.19327266611563318,-0.40735719786629954
253,1.64454093750504e+18,0.38245934248,-9.61051654816,0.764918684959,acc,1.54495259941995e-06,-3.0899051988358604e-06,,,,,0.19327414681337163,-0.4073599991863781
254,1.64454093750706e+18,0.402072638273,-9.62032318115,0.725692093372,acc,1.640773136766678e-06,-2.9613954769045806e-06,,,,,0.19327569176597104,-0.4073630890915769
255,1.64454093750729e+18,,,,gyr,1.6407472413057033e-06,-2.9614098242414533e-06,-0.00174532923847,-0.00174532923847,0.0,8.744322886877223e-06,0.19327569176597104,-0.4073630890915769
256,1.64454093750907e+18,0.38245934248,-9.62032318115,0.696272134781,acc,1.5453461928453765e-06,-2.81332255002872e-06,,,,,0.19327733251321233,-0.4073660505014012
257,1.64454093751109e+18,0.402072638273,-9.58109664917,0.666852176189,acc,1.6403573037488294e-06,-2.720592583546323e-06,,,,,0.19327887785940517,-0.4073688638239512
258,1.6445409375123018e+18,,,,gyr,1.6403811013510305e-06,-2.7205782348500415e-06,0.00174532923847,0.00174532923847,0.0,-8.74723584137623e-06,0.19327887785940517,-0.4073688638239512
259,1.6445409375131e+18,0.402072638273,-9.62032318115,0.696272134781,acc,1.6245947001150026e-06,-2.81332255002872e-06,,,,,0.19328051824050652,-0.40737158440218607
260,1.64454093751512e+18,0.38245934248,-9.64974308014,0.764918684959,acc,1.5607354376115246e-06,-3.1214708752189678e-06,,,,,0.19328214283520664,-0.4073743977247361
261,1.64454093751713e+18,0.402072638273,-9.62032318115,0.735498726368,acc,1.624180922415282e-06,-2.971062654147938e-06,,,,,0.19328370357064426,-0.4073775191956113
262,1.644540937517314e+18,,,,gyr,1.6241549325332598e-06,-2.971076861802506e-06,-0.00523598771542,-0.00174532923847,0.00523598771542,8.747651229734985e-06,0.19328370357064426,-0.4073775191956113
263,1.64454093751915e+18,0.362846046686,-9.58109664917,0.764918684959,acc,1.4806977384522903e-06,-3.1214708752189678e-06,,,,,0.1932853277255768,-0.40738049027247314
264,1.64454093752116e+18,0.402072638273,-9.58109664917,0.666852176189,acc,1.624180922415282e-06,-2.693763463461273e-06,,,,,0.19328680842331525,-0.40738361174334836
265,1.644540937522326e+18,,,,gyr,1.6241573582451645e-06,-2.6937776711292855e-06,-0.00174532923847,-0.00174532923847,0.00174532923847,8.747652975064225e-06,0.19328680842331525,-0.40738361174334836
266,1.64454093752318e+18,0.38245934248,-9.62032318115,0.725692093372,acc,1.5607354376115246e-06,-2.9613954769045806e-06,,,,,0.1932884325806735,-0.4073863055210195
267,1.64454093752519e+18,0.343232750893,-9.62032318115,0.725692093372,acc,1.3864959534252466e-06,-2.9314485528411574e-06,,,,,0.1932899933161111,-0.4073892669164964
268,1.6445409375272e+18,0.362846046686,-9.62032318115,0.686465501785,acc,1.4660976855717095e-06,-2.773698356600126e-06,,,,,0.19329137981206454,-0.40739219836504925
269,1.6445409375273375e+18,,,,gyr,1.4660976855717095e-06,-2.773698356600126e-06,-0.00349065847695,0.0,0.0,-0.0,0.19329137981206454,-0.40739219836504925
270,1.64454093752922e+18,0.38245934248,-9.58109664917,0.666852176189,acc,1.5607354376115246e-06,-2.7212822578153175e-06,,,,,0.1932928459097501,-0.40739497206340586
271,1.64454093753123e+18,0.38245934248,-9.61051654816,0.686465501785,acc,1.54495259941995e-06,-2.7729919068464536e-06,,,,,0.1932944066451877,-0.40739769334566367
272,1.6445409375323497e+18,,,,gyr,1.5449768565269025e-06,-2.7729783920338508e-06,0.0,0.00174532923847,0.0,-8.747651229734985e-06,0.1932944066451877,-0.40739769334566367
273,1.64454093753325e+18,0.343232750893,-9.66935634613,0.696272134781,acc,1.4006600392971364e-06,-2.8413388673619896e-06,,,,,0.19329595162204424,-0.4074004663240557
274,1.64454093753526e+18,0.313812792301,-9.62032318115,0.764918684959,acc,1.2676534087332848e-06,-3.0899051988358604e-06,,,,,0.19329735228208353,-0.40740330766292304
275,1.64454093753728e+18,0.38245934248,-9.64974308014,0.666852176189,acc,1.5607354376115246e-06,-2.7212822578153175e-06,,,,,0.19329861993549227,-0.40740639756812186
276,1.6445409375373617e+18,,,,gyr,1.5607354376115246e-06,-2.7212822578153175e-06,-0.00174532923847,0.0,0.00174532923847,-0.0,0.19329861993549227,-0.40740639756812186
277,1.64454093753929e+18,0.38245934248,-9.64974308014,0.666852176189,acc,1.5453461928453765e-06,-2.69444972890998e-06,,,,,0.19330018067092988,-0.40740911885037967
278,1.64454093754131e+18,0.38245934248,-9.61051654816,0.696272134781,acc,1.5603398891273724e-06,-2.8406187662770374e-06,,,,,0.19330172601712273,-0.40741181330010856
279,1.6445409375423734e+18,,,,gyr,1.5603150415053946e-06,-2.8406324148293664e-06,-0.00174532923847,-0.00174532923847,-0.00174532923847,8.74723584137623e-06,0.19330172601712273,-0.40741181330010856
280,1.64454093754332e+18,0.362846046686,-9.64974308014,0.686465501785,acc,1.4660976855717095e-06,-2.773698356600126e-06,,,,,0.19330328633216423,-0.4074146539325234
281,1.64454093754534e+18,0.402072638273,-9.61051654816,0.696272134781,acc,1.6403573037488294e-06,-2.8406187662770374e-06,,,,,0.1933047524298498,-0.40741742763088
282,1.64454093754735e+18,0.38245934248,-9.62032318115,0.735498726368,acc,1.5453461928453765e-06,-2.971819564572013e-06,,,,,0.19330639278715353,-0.4074202682496463
283,1.6445409375473853e+18,,,,gyr,1.5453461928453765e-06,-2.971819564572013e-06,-0.00349065847695,0.0,0.0,-0.0,0.19330639278715353,-0.4074202682496463
284,1.64454093754937e+18,0.362846046686,-9.61051654816,0.686465501785,acc,1.4806977384522903e-06,-2.801320078590192e-06,,,,,0.19330793813334637,-0.4074232400692108
285,1.64454093755138e+18,0.38245934248,-9.58109664917,0.686465501785,acc,1.54495259941995e-06,-2.7729919068464536e-06,,,,,0.19330941883108482,-0.4074260413892894
286,1.6445409375523976e+18,,,,gyr,1.54495259941995e-06,-2.7729919068464536e-06,0.0,0.0,0.00174532923847,-0.0,0.19330941883108482,-0.4074260413892894
287,1.6445409375534e+18,0.38245934248,-9.61051654816,0.637432217598,acc,1.5607354376115246e-06,-2.6012256482727273e-06,,,,,0.19331096378368423,-0.40742881438119627
288,1.64454093755541e+18,0.38245934248,-9.64974308014,0.666852176189,acc,1.54495259941995e-06,-2.693763463461273e-06,,,,,0.19331252451912184,-0.40743141560684454
289,1.6445409375574072e+18,,,,gyr,1.54495259941995e-06,-2.693763463461273e-06,0.0,0.0,0.0,-0.0,0.19331252451912184,-0.40743141560684454
290,1.64454093755742e+18,0.402072638273,-9.64974308014,0.637432217598,acc,1.6245947001150026e-06,-2.575576907795281e-06,,,,,0.19331406947172125,-0.407434109370308
291,1.64454093755944e+18,0.38245934248,-9.57129001617,0.666852176189,acc,1.5603398891273724e-06,-2.720592583546323e-06,,,,,0.19331569406642138,-0.4074366849472158
292,1.64454093756145e+18,0.362846046686,-9.62032318115,0.666852176189,acc,1.4660976855717095e-06,-2.69444972890998e-06,,,,,0.1933172544063105,-0.40743940553979935
293,1.6445409375624192e+18,,,,gyr,1.4661212556221e-06,-2.6944369038956667e-06,0.00174532923847,0.00174532923847,0.0,-8.747651229734985e-06,0.1933172544063105,-0.40743940553979935
294,1.64454093756347e+18,0.402072638273,-9.62032318115,0.696272134781,acc,1.640773136766678e-06,-2.8413388673619896e-06,,,,,0.19331872052756613,-0.4074420999767032
295,1.64454093756548e+18,0.343232750893,-9.62032318115,0.696272134781,acc,1.3864959534252466e-06,-2.812606008153235e-06,,,,,0.1933203613007029,-0.4074449413155706
296,1.6445409375674312e+18,,,,gyr,1.3864959534252466e-06,-2.812606008153235e-06,-0.00174532923847,0.0,-0.00174532923847,-0.0,0.1933203613007029,-0.4074449413155706
297,1.6445409375675e+18,0.343232750893,-9.61051654816,0.686465501785,acc,1.4006600392971364e-06,-2.801320078590192e-06,,,,,0.19332174779665634,-0.4074477539215787
298,1.64454093756951e+18,0.38245934248,-9.61051654816,0.725692093372,acc,1.54495259941995e-06,-2.9314485528411574e-06,,,,,0.19332314845669563,-0.4074505552416573
299,1.64454093757153e+18,0.38245934248,-9.62032318115,0.696272134781,acc,1.5607354376115246e-06,-2.8413388673619896e-06,,,,,0.19332469340929503,-0.40745348669021014
300,1.6445409375724431e+18,,,,gyr,1.5607354376115246e-06,-2.8413388673619896e-06,-0.00174532923847,0.0,0.0,-0.0,0.19332469340929503,-0.40745348669021014
301,1.64454093757354e+18,0.362846046686,-9.61051654816,0.666852176189,acc,1.4660976855717095e-06,-2.69444972890998e-06,,,,,0.19332625414473265,-0.4074563280290775
302,1.64454093757556e+18,0.38245934248,-9.62032318115,0.735498726368,acc,1.5603398891273724e-06,-3.0006535955240307e-06,,,,,0.1933277202424182,-0.4074590224788064
303,1.644540937577455e+18,,,,gyr,1.5602611425610278e-06,-3.0006945424263814e-06,-0.00349065847695,-0.00523598771542,0.00174532923847,2.6242958925242797e-05,0.1933277202424182,-0.4074590224788064
304,1.64454093757757e+18,0.38245934248,-9.62032318115,0.686465501785,acc,1.5453461928453765e-06,-2.773698356600126e-06,,,,,0.19332928050356077,-0.4074620231733488
305,1.64454093757959e+18,0.402072638273,-9.58109664917,0.735498726368,acc,1.6403573037488294e-06,-3.0006535955240307e-06,,,,,0.1933308258497536,-0.4074647968717054
306,1.6445409375816e+18,0.362846046686,-9.64974308014,0.735498726368,acc,1.4660976855717095e-06,-2.971819564572013e-06,,,,,0.19333246620705735,-0.40746779752530093
307,1.644540937582467e+18,,,,gyr,1.4660976855717095e-06,-2.971819564572013e-06,0.0,0.0,0.0,-0.0,0.19333246620705735,-0.40746779752530093
308,1.64454093758362e+18,0.402072638273,-9.62032318115,0.725692093372,acc,1.640773136766678e-06,-2.9613954769045806e-06,,,,,0.1933339323047429,-0.4074707693448655
309,1.64454093758563e+18,0.38245934248,-9.61051654816,0.725692093372,acc,1.54495259941995e-06,-2.9314485528411574e-06,,,,,0.19333557307787969,-0.4074737307403424
310,1.6445409375874788e+18,,,,gyr,1.5448500301868906e-06,-2.931502607305772e-06,-0.00174532923847,-0.0069813169539,0.0,3.498894336560516e-05,0.19333557307787969,-0.4074737307403424
311,1.64454093758765e+18,0.38245934248,-9.58109664917,0.696272134781,acc,1.5607354376115246e-06,-2.8413388673619896e-06,,,,,0.19333711792790986,-0.4074766622429497
312,1.64454093758966e+18,0.38245934248,-9.64974308014,0.686465501785,acc,1.54495259941995e-06,-2.7729919068464536e-06,,,,,0.19333867866334747,-0.40747950358181706
313,1.64454093759168e+18,0.402072638273,-9.58109664917,0.637432217598,acc,1.640773136766678e-06,-2.6012256482727273e-06,,,,,0.19334022361594688,-0.40748227657372393
314,1.6445409375924908e+18,,,,gyr,1.6407503831696852e-06,-2.6012400004028015e-06,-0.00523598771542,-0.00174532923847,0.0,8.74723584137623e-06,0.19334022361594688,-0.40748227657372393
315,1.64454093759369e+18,0.402072638273,-9.61051654816,0.696272134781,acc,1.6245947001150026e-06,-2.81332255002872e-06,,,,,0.19334186436633005,-0.40748487781372433
316,1.6445409375957e+18,0.421685934067,-9.61051654816,0.696272134781,acc,1.7034092454146536e-06,-2.812606008153235e-06,,,,,0.19334348896103018,-0.40748769113627437
317,1.6445409375975027e+18,,,,gyr,1.7033846416530742e-06,-2.8126209088756034e-06,-0.00174532923847,-0.00174532923847,0.0,8.747651229734985e-06,0.19334348896103018,-0.40748769113627437
318,1.64454093759772e+18,0.38245934248,-9.62032318115,0.725692093372,acc,1.5607354376115246e-06,-2.9613954769045806e-06,,,,,0.19334519234567182,-0.40749050375718326
319,1.64454093759973e+18,0.362846046686,-9.64974308014,0.696272134781,acc,1.4657242764205787e-06,-2.812606008153235e-06,,,,,0.19334675308110943,-0.40749346515266016
320,1.64454093760175e+18,0.402072638273,-9.57129001617,0.666852176189,acc,1.640773136766678e-06,-2.7212822578153175e-06,,,,,0.19334821880538586,-0.4074962777586683
321,1.6445409376025147e+18,,,,gyr,1.640773136766678e-06,-2.7212822578153175e-06,-0.00174532923847,0.0,0.00349065847695,-0.0,0.19334821880538586,-0.4074962777586683
322,1.64454093760376e+18,0.402072638273,-9.58109664917,0.686465501785,acc,1.6245947001150026e-06,-2.773698356600126e-06,,,,,0.19334985957852263,-0.4074989990409261
323,1.64454093760578e+18,0.402072638273,-9.62032318115,0.686465501785,acc,1.6403573037488294e-06,-2.8006101197566777e-06,,,,,0.19335148417322276,-0.40750177273928273
324,1.6445409376075267e+18,,,,gyr,1.6403573037488294e-06,-2.8006101197566777e-06,0.0,0.0,0.0,-0.0,0.19335148417322276,-0.40750177273928273
325,1.64454093760779e+18,0.402072638273,-9.64974308014,0.696272134781,acc,1.6245947001150026e-06,-2.81332255002872e-06,,,,,0.1933531245305265,-0.4075045733494025
326,1.64454093760981e+18,0.38245934248,-9.61051654816,0.735498726368,acc,1.5603398891273724e-06,-3.0006535955240307e-06,,,,,0.19335474912522663,-0.4075073866719525
327,1.64454093761182e+18,0.402072638273,-9.62032318115,0.735498726368,acc,1.6245947001150026e-06,-2.971819564572013e-06,,,,,0.19335630946511576,-0.40751038732554806
328,1.6445409376125386e+18,,,,gyr,1.624568703611776e-06,-2.9718337758461354e-06,-0.00174532923847,-0.00174532923847,0.00349065847695,8.747651229734985e-06,0.19335630946511576,-0.40751038732554806
329,1.64454093761384e+18,0.38245934248,-9.64974308014,0.666852176189,acc,1.5603398891273724e-06,-2.720592583546323e-06,,,,,0.19335793403381937,-0.4075133591593239
330,1.64454093761585e+18,0.362846046686,-9.64974308014,0.637432217598,acc,1.4660976855717095e-06,-2.575576907795281e-06,,,,,0.1933594943737085,-0.40751607975190746
331,1.6445409376175483e+18,,,,gyr,1.4660976855717095e-06,-2.575576907795281e-06,0.0,0.0,-0.00174532923847,-0.0,0.1933594943737085,-0.40751607975190746
332,1.64454093761787e+18,0.402072638273,-9.61051654816,0.666852176189,acc,1.640773136766678e-06,-2.7212822578153175e-06,,,,,0.19336096047139406,-0.40751865532881526
333,1.64454093761988e+18,0.402072638273,-9.62032318115,0.696272134781,acc,1.624180922415282e-06,-2.812606008153235e-06,,,,,0.19336260124453084,-0.40752137661107307
334,1.6445409376219e+18,0.38245934248,-9.62032318115,0.686465501785,acc,1.5607354376115246e-06,-2.801320078590192e-06,,,,,0.19336422542545326,-0.4075241892170812
335,1.6445409376225603e+18,,,,gyr,1.5607354376115246e-06,-2.801320078590192e-06,0.0,0.0,0.0,-0.0,0.19336422542545326,-0.4075241892170812
336,1.64454093762391e+18,0.402072638273,-9.64974308014,0.725692093372,acc,1.624180922415282e-06,-2.9314485528411574e-06,,,,,0.19336578616089087,-0.4075269905371598
337,1.64454093762593e+18,0.421685934067,-9.62032318115,0.696272134781,acc,1.7208108359259126e-06,-2.8413388673619896e-06,,,,,0.1933674103418133,-0.40752992198571264
338,1.6445409376275722e+18,,,,gyr,1.7208108359259126e-06,-2.8413388673619896e-06,-0.00349065847695,0.0,0.00174532923847,-0.0,0.1933674103418133,-0.40752992198571264
339,1.64454093762794e+18,0.402072638273,-9.62032318115,0.686465501785,acc,1.6245947001150026e-06,-2.773698356600126e-06,,,,,0.19336913115264923,-0.40753276332458
340,1.64454093762995e+18,0.402072638273,-9.66935634613,0.696272134781,acc,1.624180922415282e-06,-2.812606008153235e-06,,,,,0.19337075574734935,-0.4075355370229366
341,1.64454093763197e+18,0.38245934248,-9.64974308014,0.666852176189,acc,1.5607354376115246e-06,-2.7212822578153175e-06,,,,,0.19337237992827178,-0.40753834962894475
342,1.6445409376325844e+18,,,,gyr,1.5607116327237208e-06,-2.721295910480469e-06,-0.00174532923847,-0.00174532923847,0.0,8.747651229734985e-06,0.19337237992827178,-0.40753834962894475
343,1.64454093763398e+18,0.38245934248,-9.62032318115,0.637432217598,acc,1.54495259941995e-06,-2.574920918773351e-06,,,,,0.1933739406399045,-0.40754107092485525
344,1.644540937636e+18,0.38245934248,-9.61051654816,0.686465501785,acc,1.5607354376115246e-06,-2.801320078590192e-06,,,,,0.19337548559250392,-0.407543645845774
345,1.6445409376375962e+18,,,,gyr,1.5607599413592097e-06,-2.801306426362063e-06,-0.00349065847695,0.00174532923847,0.00349065847695,-8.74723584137623e-06,0.19337548559250392,-0.407543645845774
346,1.64454093763801e+18,0.362846046686,-9.61051654816,0.686465501785,acc,1.4660976855717095e-06,-2.773698356600126e-06,,,,,0.1933770463524453,-0.4075464471522004
347,1.64454093764003e+18,0.402072638273,-9.62032318115,0.686465501785,acc,1.6403573037488294e-06,-2.8006101197566777e-06,,,,,0.19337851245013085,-0.407549220850557
348,1.64454093764204e+18,0.38245934248,-9.61051654816,0.637432217598,acc,1.5453461928453765e-06,-2.575576907795281e-06,,,,,0.1933801528074346,-0.40755202146067676
349,1.644540937642608e+18,,,,gyr,1.54536872303925e-06,-2.5755633895445164e-06,-0.00349065847695,0.00174532923847,0.0,-8.747652975064225e-06,0.1933801528074346,-0.40755202146067676
350,1.64454093764406e+18,0.402072638273,-9.66935634613,0.735498726368,acc,1.6403573037488294e-06,-3.0006535955240307e-06,,,,,0.19338169817615763,-0.4075545970240663
351,1.64454093764607e+18,0.38245934248,-9.61051654816,0.696272134781,acc,1.5453461928453765e-06,-2.81332255002872e-06,,,,,0.19338333853346137,-0.40755759767766186
352,1.64454093764762e+18,,,,gyr,1.5453461928453765e-06,-2.81332255002872e-06,0.0,0.0,0.00174532923847,-0.0,0.19338333853346137,-0.40755759767766186
353,1.64454093764809e+18,0.38245934248,-9.56148338318,0.686465501785,acc,1.5607354376115246e-06,-2.801320078590192e-06,,,,,0.19338488387965422,-0.4075604110002119
354,1.6445409376501e+18,0.402072638273,-9.62032318115,0.735498726368,acc,1.624180922415282e-06,-2.971062654147938e-06,,,,,0.19338644461509183,-0.40756321232029047
355,1.64454093765212e+18,0.38245934248,-9.57129001617,0.725692093372,acc,1.5607354376115246e-06,-2.9613954769045806e-06,,,,,0.19338806879601425,-0.4075661833829446
356,1.644540937652632e+18,,,,gyr,1.5607095335271595e-06,-2.961409128912245e-06,-0.00349065847695,-0.00174532923847,0.0,8.74723584137623e-06,0.19338806879601425,-0.4075661833829446
357,1.64454093765413e+18,0.402072638273,-9.61051654816,0.696272134781,acc,1.624180922415282e-06,-2.812606008153235e-06,,,,,0.19338962950554778,-0.4075691447920735
358,1.64454093765615e+18,0.402072638273,-9.64974308014,0.666852176189,acc,1.640773136766678e-06,-2.7212822578153175e-06,,,,,0.1933912536864702,-0.40757195739808166
359,1.6445409376576438e+18,,,,gyr,1.640773136766678e-06,-2.7212822578153175e-06,-0.00349065847695,0.0,0.0,-0.0,0.1933912536864702,-0.40757195739808166
360,1.64454093765816e+18,0.38245934248,-9.64974308014,0.666852176189,acc,1.5453461928453765e-06,-2.69444972890998e-06,,,,,0.19339289445960697,-0.4075746786803395
361,1.64454093766018e+18,0.402072638273,-9.57129001617,0.686465501785,acc,1.6403573037488294e-06,-2.8006101197566777e-06,,,,,0.19339443980579982,-0.40757737313006837
362,1.64454093766219e+18,0.38245934248,-9.61051654816,0.686465501785,acc,1.5453461928453765e-06,-2.773698356600126e-06,,,,,0.19339608016310356,-0.4075801737401881
363,1.6445409376626557e+18,,,,gyr,1.5452734022757303e-06,-2.7737389100935816e-06,-0.00523598771542,-0.00523598771542,0.0,2.624295368925508e-05,0.19339608016310356,-0.4075801737401881
364,1.64454093766421e+18,0.402072638273,-9.64974308014,0.666852176189,acc,1.6403573037488294e-06,-2.720592583546323e-06,,,,,0.19339762543650582,-0.40758294747909823
365,1.64454093766622e+18,0.402072638273,-9.58109664917,0.696272134781,acc,1.6245947001150026e-06,-2.81332255002872e-06,,,,,0.19339926579380956,-0.4075856680716818
366,1.6445409376676657e+18,,,,gyr,1.624570100620757e-06,-2.8133367552269526e-06,-0.00174532923847,-0.00174532923847,0.00174532923847,8.743907498518468e-06,0.19339926579380956,-0.4075856680716818
367,1.64454093766824e+18,0.362846046686,-9.61051654816,0.666852176189,acc,1.4803224745018357e-06,-2.720592583546323e-06,,,,,0.19340089036391017,-0.407588481408437
368,1.64454093767025e+18,0.362846046686,-9.58109664917,0.696272134781,acc,1.4660976855717095e-06,-2.81332255002872e-06,,,,,0.19340237068638466,-0.40759120200102056
369,1.64454093767227e+18,0.38245934248,-9.61051654816,0.686465501785,acc,1.5607354376115246e-06,-2.801320078590192e-06,,,,,0.19340383678407022,-0.4075940153235706
370,1.6445409376726776e+18,,,,gyr,1.5607354376115246e-06,-2.801320078590192e-06,0.0,0.0,0.00349065847695,-0.0,0.19340383678407022,-0.4075940153235706
371,1.64454093767428e+18,0.362846046686,-9.61051654816,0.686465501785,acc,1.4657242764205787e-06,-2.7729919068464536e-06,,,,,0.19340539751950783,-0.40759681664364916
372,1.64454093767629e+18,0.402072638273,-9.61051654816,0.686465501785,acc,1.6245947001150026e-06,-2.773698356600126e-06,,,,,0.19340686324378425,-0.40759958963555604
373,1.6445409376776899e+18,,,,gyr,1.6245947001150026e-06,-2.773698356600126e-06,-0.00349065847695,0.0,0.0,-0.0,0.19340686324378425,-0.40759958963555604
374,1.64454093767831e+18,0.38245934248,-9.64974308014,0.686465501785,acc,1.5603398891273724e-06,-2.8006101197566777e-06,,,,,0.19340848783848438,-0.40760236333391264
375,1.64454093768032e+18,0.343232750893,-9.61051654816,0.696272134781,acc,1.386849178302083e-06,-2.81332255002872e-06,,,,,0.1934100481783735,-0.4076051639440324
376,1.64454093768234e+18,0.362846046686,-9.64974308014,0.666852176189,acc,1.4806977384522903e-06,-2.7212822578153175e-06,,,,,0.19341143502755181,-0.40760797726658243
377,1.6445409376827016e+18,,,,gyr,1.4806977384522903e-06,-2.7212822578153175e-06,-0.00174532923847,0.0,0.0,-0.0,0.19341143502755181,-0.40760797726658243
378,1.64454093768435e+18,0.362846046686,-9.66935634613,0.696272134781,acc,1.4657242764205787e-06,-2.812606008153235e-06,,,,,0.19341291572529026,-0.40761069854884024
379,1.64454093768637e+18,0.362846046686,-9.61051654816,0.696272134781,acc,1.4806977384522903e-06,-2.8413388673619896e-06,,,,,0.19341438144956669,-0.4076135111548484
380,1.6445409376877135e+18,,,,gyr,1.4806728833542009e-06,-2.8413518198806706e-06,0.0,-0.00174532923847,0.0,8.747651229734985e-06,0.19341438144956669,-0.4076135111548484
381,1.64454093768838e+18,0.38245934248,-9.64974308014,0.725692093372,acc,1.54495259941995e-06,-2.9314485528411574e-06,,,,,0.19341586212245004,-0.4076163525066683
382,1.6445409376904e+18,0.38245934248,-9.58109664917,0.696272134781,acc,1.5607354376115246e-06,-2.8413388673619896e-06,,,,,0.19341740707504945,-0.4076192839552211
383,1.64454093769241e+18,0.343232750893,-9.61051654816,0.686465501785,acc,1.386849178302083e-06,-2.773698356600126e-06,,,,,0.19341896781048706,-0.4076221252940885
384,1.6445409376927255e+18,,,,gyr,1.386849178302083e-06,-2.773698356600126e-06,-0.00523598771542,0.0,0.0,-0.0,0.19341896781048706,-0.4076221252940885
385,1.64454093769443e+18,0.362846046686,-9.61051654816,0.725692093372,acc,1.4803224745018357e-06,-2.9606449490036714e-06,,,,,0.19342035465966537,-0.4076248989924451
386,1.64454093769644e+18,0.38245934248,-9.61051654816,0.725692093372,acc,1.5453461928453765e-06,-2.932195371143419e-06,,,,,0.19342183498213986,-0.40762785963739406
387,1.6445409376977372e+18,,,,gyr,1.545320544181812e-06,-2.932208888538847e-06,-0.00349065847695,-0.00174532923847,0.0,8.74723584137623e-06,0.19342183498213986,-0.40762785963739406
388,1.64454093769846e+18,0.362846046686,-9.58109664917,0.725692093372,acc,1.4803224745018357e-06,-2.9606449490036714e-06,,,,,0.19342338030268405,-0.4076307918462826
389,1.64454093770047e+18,0.38245934248,-9.62032318115,0.764918684959,acc,1.5453461928453765e-06,-3.0906923856867118e-06,,,,,0.19342486062515854,-0.40763375249123157
390,1.64454093770248e+18,0.362846046686,-9.64974308014,0.725692093372,acc,1.4657242764205787e-06,-2.9314485528411574e-06,,,,,0.19342640597135138,-0.40763684318361726
391,1.6445409377027492e+18,,,,gyr,1.4657242764205787e-06,-2.9314485528411574e-06,0.0,0.0,0.0,-0.0,0.19342640597135138,-0.40763684318361726
392,1.6445409377045e+18,0.402072638273,-9.61051654816,0.686465501785,acc,1.640773136766678e-06,-2.801320078590192e-06,,,,,0.1934278716956278,-0.4076397746321701
393,1.64454093770652e+18,0.402072638273,-9.61051654816,0.666852176189,acc,1.640773136766678e-06,-2.7212822578153175e-06,,,,,0.19342951246876458,-0.4076425759522487
394,1.6445409377077614e+18,,,,gyr,1.640773136766678e-06,-2.7212822578153175e-06,0.0,0.0,0.0,-0.0,0.19342951246876458,-0.4076425759522487
395,1.64454093770853e+18,0.38245934248,-9.62032318115,0.735498726368,acc,1.54495259941995e-06,-2.971062654147938e-06,,,,,0.19343115324190135,-0.4076452972345065
396,1.64454093771055e+18,0.362846046686,-9.58109664917,0.696272134781,acc,1.4806977384522903e-06,-2.8413388673619896e-06,,,,,0.19343269819450076,-0.4076482682971606
397,1.64454093771256e+18,0.38245934248,-9.61051654816,0.696272134781,acc,1.5453461928453765e-06,-2.81332255002872e-06,,,,,0.1934341788922392,-0.40765110963602796
398,1.644540937712773e+18,,,,gyr,1.5453708015820987e-06,-2.8133090324134855e-06,0.0,0.00174532923847,0.00174532923847,-8.74723584137623e-06,0.1934341788922392,-0.40765110963602796
399,1.64454093771457e+18,0.402072638273,-9.62032318115,0.725692093372,acc,1.624180922415282e-06,-2.9314485528411574e-06,,,,,0.1934357242630408,-0.40765392294506037
400,1.64454093771659e+18,0.362846046686,-9.64974308014,0.696272134781,acc,1.4806977384522903e-06,-2.8413388673619896e-06,,,,,0.1934373484439632,-0.4076568543936132
401,1.644540937717785e+18,,,,gyr,1.4806977384522903e-06,-2.8413388673619896e-06,-0.00174532923847,0.0,0.0,-0.0,0.1934373484439632,-0.4076568543936132
402,1.6445409377186e+18,0.38245934248,-9.62032318115,0.725692093372,acc,1.54495259941995e-06,-2.9314485528411574e-06,,,,,0.19343882914170166,-0.40765969573248056
403,1.64454093772062e+18,0.38245934248,-9.62032318115,0.764918684959,acc,1.5607354376115246e-06,-3.1214708752189678e-06,,,,,0.19344037409430107,-0.4076626271810334
404,1.64454093772263e+18,0.38245934248,-9.61051654816,0.696272134781,acc,1.54495259941995e-06,-2.812606008153235e-06,,,,,0.19344193482973868,-0.40766574865190863
405,1.6445409377227953e+18,,,,gyr,1.5449280050257952e-06,-2.812619517610079e-06,-0.00523598771542,-0.00174532923847,0.0,8.744322886877223e-06,0.19344193482973868,-0.40766574865190863
406,1.64454093772465e+18,0.362846046686,-9.61051654816,0.725692093372,acc,1.4806977384522903e-06,-2.9613954769045806e-06,,,,,0.1934434797577437,-0.40766856127142626
407,1.64454093772666e+18,0.343232750893,-9.61051654816,0.764918684959,acc,1.386849178302083e-06,-3.0906923856867118e-06,,,,,0.19344496045548215,-0.40767152266690315
408,1.644540937727807e+18,,,,gyr,1.386849178302083e-06,-3.0906923856867118e-06,-0.00174532923847,0.0,0.00349065847695,-0.0,0.19344496045548215,-0.40767152266690315
409,1.64454093772868e+18,0.402072638273,-9.62032318115,0.696272134781,acc,1.6403573037488294e-06,-2.8406187662770374e-06,,,,,0.19344634730466045,-0.40767461335928884
410,1.64454093773069e+18,0.402072638273,-9.62032318115,0.696272134781,acc,1.6245947001150026e-06,-2.81332255002872e-06,,,,,0.1934479876619642,-0.4076774539780551
411,1.64454093773271e+18,0.362846046686,-9.62032318115,0.686465501785,acc,1.4803224745018357e-06,-2.8006101197566777e-06,,,,,0.19344961225666432,-0.40768026730060514
412,1.644540937732819e+18,,,,gyr,1.480297976847986e-06,-2.80062306837934e-06,-0.00523598771542,-0.00174532923847,0.00174532923847,8.74723584137623e-06,0.19344961225666432,-0.40768026730060514
413,1.64454093773472e+18,0.402072638273,-9.61051654816,0.696272134781,acc,1.6245947001150026e-06,-2.81332255002872e-06,,,,,0.19345109255464116,-0.40768306792367354
414,1.64454093773673e+18,0.38245934248,-9.58109664917,0.735498726368,acc,1.5453461928453765e-06,-2.971819564572013e-06,,,,,0.19345271714934129,-0.40768588124622357
415,1.644540937737831e+18,,,,gyr,1.5452941997267378e-06,-2.9718466004162444e-06,-0.00174532923847,-0.00349065847695,0.0,1.7495302459520094e-05,0.19345271714934129,-0.40768588124622357
416,1.64454093773875e+18,0.402072638273,-9.64974308014,0.686465501785,acc,1.6403573037488294e-06,-2.8006101197566777e-06,,,,,0.19345426244354103,-0.407688853092824
417,1.64454093774076e+18,0.402072638273,-9.64974308014,0.666852176189,acc,1.6245947001150026e-06,-2.69444972890998e-06,,,,,0.19345590280084476,-0.40769165370294375
418,1.64454093774278e+18,0.402072638273,-9.62032318115,0.637432217598,acc,1.6403573037488294e-06,-2.6005664008196893e-06,,,,,0.1934575273955449,-0.40769434815267264
419,1.6445409377428426e+18,,,,gyr,1.6403118079625525e-06,-2.6005950976061275e-06,-0.00174532923847,-0.00349065847695,0.00174532923847,1.749447168280258e-05,0.1934575273955449,-0.40769434815267264
420,1.64454093774479e+18,0.402072638273,-9.61051654816,0.725692093372,acc,1.6245947001150026e-06,-2.932195371143419e-06,,,,,0.19345916770735286,-0.40769694874777024
421,1.64454093774681e+18,0.402072638273,-9.57129001617,0.686465501785,acc,1.640773136766678e-06,-2.801320078590192e-06,,,,,0.193460792302053,-0.40769988094314136
422,1.6445409377478546e+18,,,,gyr,1.6407976416798202e-06,-2.8013057255690004e-06,-0.00349065847695,0.00174532923847,0.00174532923847,-8.747652975064225e-06,0.193460792302053,-0.40769988094314136
423,1.64454093774882e+18,0.362846046686,-9.62032318115,0.735498726368,acc,1.4657242764205787e-06,-2.971062654147938e-06,,,,,0.19346243309969466,-0.4077026822488669
424,1.64454093775084e+18,0.402072638273,-9.64974308014,0.686465501785,acc,1.640773136766678e-06,-2.801320078590192e-06,,,,,0.19346389882397108,-0.40770565331152103
425,1.64454093775285e+18,0.402072638273,-9.62032318115,0.637432217598,acc,1.624180922415282e-06,-2.574920918773351e-06,,,,,0.19346553959710786,-0.4077084546315996
426,1.6445409377528668e+18,,,,gyr,1.6241358731464317e-06,-2.5749493339157627e-06,-0.0069813169539,-0.00349065847695,0.00174532923847,1.7495302459520094e-05,0.19346553959710786,-0.4077084546315996
427,1.64454093775487e+18,0.402072638273,-9.64974308014,0.666852176189,acc,1.640773136766678e-06,-2.7212822578153175e-06,,,,,0.193467163732981,-0.4077110295809335
428,1.64454093775688e+18,0.402072638273,-9.64974308014,0.696272134781,acc,1.624180922415282e-06,-2.812606008153235e-06,,,,,0.19346880450611778,-0.40771375086319134
429,1.6445409377578788e+18,,,,gyr,1.6241563186567339e-06,-2.8126202158138662e-06,-0.00174532923847,-0.00174532923847,0.0,8.747651229734985e-06,0.19346880450611778,-0.40771375086319134
430,1.6445409377589e+18,0.38245934248,-9.64974308014,0.696272134781,acc,1.5607354376115246e-06,-2.8413388673619896e-06,,,,,0.19347042866243644,-0.4077165634834071
431,1.64454093776091e+18,0.421685934067,-9.61051654816,0.666852176189,acc,1.7038432073886696e-06,-2.69444972890998e-06,,,,,0.19347198939787405,-0.4077194048222745
432,1.6445409377628905e+18,,,,gyr,1.7038432073886696e-06,-2.69444972890998e-06,-0.00349065847695,0.0,0.0,-0.0,0.19347198939787405,-0.4077194048222745
433,1.64454093776293e+18,0.402072638273,-9.58109664917,0.627625584602,acc,1.6403573037488294e-06,-2.5605577542993295e-06,,,,,0.19347369324108143,-0.40772209927200337
434,1.64454093776494e+18,0.38245934248,-9.64974308014,0.666852176189,acc,1.5453461928453765e-06,-2.69444972890998e-06,,,,,0.19347533359838517,-0.40772465982975764
435,1.64454093776696e+18,0.38245934248,-9.64974308014,0.686465501785,acc,1.5607354376115246e-06,-2.801320078590192e-06,,,,,0.19347687894457802,-0.40772735427948653
436,1.6445409377679007e+18,,,,gyr,1.560686446078296e-06,-2.80134737331101e-06,-0.00523598771542,-0.00349065847695,0.0,1.748864577380455e-05,0.19347687894457802,-0.40772735427948653
437,1.64454093776897e+18,0.38245934248,-9.61051654816,0.666852176189,acc,1.54495259941995e-06,-2.693763463461273e-06,,,,,0.1934784396310241,-0.4077301556268598
438,1.64454093777099e+18,0.362846046686,-9.61051654816,0.637432217598,acc,1.4806977384522903e-06,-2.6012256482727273e-06,,,,,0.1934799845836235,-0.4077328493903233
439,1.6445409377729124e+18,,,,gyr,1.4806749848614212e-06,-2.6012386001855396e-06,-0.00349065847695,-0.00174532923847,0.0,8.74723584137623e-06,0.1934799845836235,-0.4077328493903233
440,1.644540937773e+18,0.402072638273,-9.64974308014,0.637432217598,acc,1.624180922415282e-06,-2.574920918773351e-06,,,,,0.19348146525860838,-0.40773545062892347
441,1.64454093777502e+18,0.402072638273,-9.64974308014,0.637432217598,acc,1.640773136766678e-06,-2.6012256482727273e-06,,,,,0.1934830894395308,-0.40773802554984223
442,1.64454093777703e+18,0.38245934248,-9.62032318115,0.637432217598,acc,1.54495259941995e-06,-2.574920918773351e-06,,,,,0.19348473021266757,-0.4077406267754905
443,1.6445409377779244e+18,,,,gyr,1.5449075523024317e-06,-2.574947946508816e-06,-0.00349065847695,-0.00349065847695,0.00174532923847,1.749447168280258e-05,0.19348473021266757,-0.4077406267754905
444,1.64454093777905e+18,0.402072638273,-9.64974308014,0.666852176189,acc,1.640773136766678e-06,-2.7212822578153175e-06,,,,,0.19348627512021987,-0.40774320172343703
445,1.64454093778106e+18,0.421685934067,-9.58109664917,0.637432217598,acc,1.7038432073886696e-06,-2.575576907795281e-06,,,,,0.19348791589335665,-0.40774592300569484
446,1.6445409377829363e+18,,,,gyr,1.7038206770704797e-06,-2.5755918123258395e-06,0.0,-0.00174532923847,0.0,8.747652975064225e-06,0.19348791589335665,-0.40774592300569484
447,1.64454093778308e+18,0.402072638273,-9.58109664917,0.686465501785,acc,1.6403573037488294e-06,-2.8006101197566777e-06,,,,,0.19348961971403372,-0.40774849859750717
448,1.64454093778509e+18,0.362846046686,-9.58109664917,0.686465501785,acc,1.4660976855717095e-06,-2.773698356600126e-06,,,,,0.19349126007133746,-0.4077512992076269
449,1.64454093778711e+18,0.38245934248,-9.61051654816,0.666852176189,acc,1.5603398891273724e-06,-2.720592583546323e-06,,,,,0.19349272616902302,-0.40775407290598353
450,1.644540937787948e+18,,,,gyr,1.5603398891273724e-06,-2.720592583546323e-06,-0.00174532923847,0.0,0.0,-0.0,0.19349272616902302,-0.40775407290598353
451,1.64454093778912e+18,0.38245934248,-9.62032318115,0.686465501785,acc,1.5453461928453765e-06,-2.773698356600126e-06,,,,,0.19349428650891215,-0.4077567934985671
452,1.64454093779114e+18,0.362846046686,-9.62032318115,0.696272134781,acc,1.4806977384522903e-06,-2.8413388673619896e-06,,,,,0.193495831855105,-0.4077595671969237
453,1.6445409377929603e+18,,,,gyr,1.4806728833542009e-06,-2.8413518198806706e-06,-0.00174532923847,-0.00174532923847,0.0,8.747651229734985e-06,0.193495831855105,-0.4077595671969237
454,1.64454093779315e+18,0.402072638273,-9.62032318115,0.686465501785,acc,1.624180922415282e-06,-2.7729919068464536e-06,,,,,0.19349731252798835,-0.40776240854874357
455,1.64454093779517e+18,0.38245934248,-9.62032318115,0.666852176189,acc,1.5607354376115246e-06,-2.7212822578153175e-06,,,,,0.19349893670891077,-0.40776518154065045
456,1.64454093779718e+18,0.38245934248,-9.58109664917,0.696272134781,acc,1.54495259941995e-06,-2.812606008153235e-06,,,,,0.19350049744434838,-0.40776790282290826
457,1.6445409377979722e+18,,,,gyr,1.54495259941995e-06,-2.812606008153235e-06,-0.00349065847695,0.0,0.00174532923847,-0.0,0.19350049744434838,-0.40776790282290826
458,1.6445409377992e+18,0.362846046686,-9.58109664917,0.666852176189,acc,1.4806977384522903e-06,-2.7212822578153175e-06,,,,,0.1935020423969478,-0.4077707154289164
459,1.64454093780121e+18,0.402072638273,-9.61051654816,0.666852176189,acc,1.6245947001150026e-06,-2.69444972890998e-06,,,,,0.19350352309468624,-0.4077734367111742
460,1.6445409378029842e+18,,,,gyr,1.6245947001150026e-06,-2.69444972890998e-06,0.0,0.0,0.00174532923847,-0.0,0.19350352309468624,-0.4077734367111742
461,1.64454093780323e+18,0.402072638273,-9.64974308014,0.725692093372,acc,1.6403573037488294e-06,-2.9606449490036714e-06,,,,,0.19350514768938637,-0.4077761311609031
462,1.64454093780524e+18,0.38245934248,-9.61051654816,0.725692093372,acc,1.5453461928453765e-06,-2.932195371143419e-06,,,,,0.1935067880466901,-0.4077790918058521
463,1.64454093780726e+18,0.38245934248,-9.64974308014,0.686465501785,acc,1.5603398891273724e-06,-2.8006101197566777e-06,,,,,0.19350833339288295,-0.4077820240012232
464,1.6445409378079962e+18,,,,gyr,1.5603153914704615e-06,-2.8006237683105373e-06,-0.00523598771542,-0.00174532923847,0.00174532923847,8.74723584137623e-06,0.19350833339288295,-0.4077820240012232
465,1.64454093780927e+18,0.38245934248,-9.61051654816,0.686465501785,acc,1.5453461928453765e-06,-2.773698356600126e-06,,,,,0.19350989370827443,-0.4077848246249915
466,1.64454093781129e+18,0.38245934248,-9.58109664917,0.666852176189,acc,1.5607354376115246e-06,-2.7212822578153175e-06,,,,,0.19351143905446727,-0.4077875983233481
467,1.6445409378130081e+18,,,,gyr,1.5607116327237208e-06,-2.721295910480469e-06,0.0,-0.00174532923847,0.0,8.747651229734985e-06,0.19351143905446727,-0.4077875983233481
468,1.6445409378133e+18,0.362846046686,-9.62032318115,0.696272134781,acc,1.4657242764205787e-06,-2.812606008153235e-06,,,,,0.1935129997661,-0.4077903196192586
469,1.64454093781532e+18,0.38245934248,-9.66935634613,0.764918684959,acc,1.5607354376115246e-06,-3.1214708752189678e-06,,,,,0.19351446549037643,-0.40779313222526675
470,1.64454093781733e+18,0.362846046686,-9.56148338318,0.686465501785,acc,1.4657242764205787e-06,-2.7729919068464536e-06,,,,,0.19351602622581404,-0.407796253696142
471,1.64454093781802e+18,,,,gyr,1.4657242764205787e-06,-2.7729919068464536e-06,0.0,0.0,0.0,-0.0,0.19351602622581404,-0.407796253696142
472,1.64454093781935e+18,0.38245934248,-9.56148338318,0.686465501785,acc,1.5607354376115246e-06,-2.801320078590192e-06,,,,,0.19351749195009046,-0.40779902668804885
473,1.64454093782136e+18,0.38245934248,-9.62032318115,0.725692093372,acc,1.5453461928453765e-06,-2.932195371143419e-06,,,,,0.19351905268552808,-0.4078018280081274
474,1.64454093782303e+18,,,,gyr,1.5453205539412086e-06,-2.93220888339549e-06,0.0,-0.00174532923847,0.0,8.743907498518468e-06,0.19351905268552808,-0.4078018280081274
475,1.64454093782338e+18,0.38245934248,-9.61051654816,0.696272134781,acc,1.5603398891273724e-06,-2.8406187662770374e-06,,,,,0.193520598006082,-0.40780476021701084
476,1.64454093782539e+18,0.402072638273,-9.62032318115,0.696272134781,acc,1.6245947001150026e-06,-2.81332255002872e-06,,,,,0.19352215834597114,-0.4078076008357771
477,1.64454093782741e+18,0.38245934248,-9.62032318115,0.725692093372,acc,1.5603398891273724e-06,-2.9606449490036714e-06,,,,,0.19352378294067127,-0.40781041415832714
478,1.644540937828042e+18,,,,gyr,1.5603398891273724e-06,-2.9606449490036714e-06,-0.00174532923847,0.0,0.00523598771542,-0.0,0.19352378294067127,-0.40781041415832714
479,1.64454093782942e+18,0.362846046686,-9.58109664917,0.735498726368,acc,1.4660976855717095e-06,-2.971819564572013e-06,,,,,0.1935253432805604,-0.4078133748032761
480,1.64454093783144e+18,0.362846046686,-9.57129001617,0.725692093372,acc,1.4803224745018357e-06,-2.9606449490036714e-06,,,,,0.19352680937824596,-0.40781634662284066
481,1.644540937833054e+18,,,,gyr,1.4803224745018357e-06,-2.9606449490036714e-06,0.0,0.0,-0.00349065847695,-0.0,0.19352680937824596,-0.40781634662284066
482,1.64454093783345e+18,0.362846046686,-9.58109664917,0.696272134781,acc,1.4660976855717095e-06,-2.81332255002872e-06,,,,,0.19352828970072045,-0.40781930726778964
483,1.64454093783547e+18,0.402072638273,-9.62032318115,0.725692093372,acc,1.640773136766678e-06,-2.9613954769045806e-06,,,,,0.193529755798406,-0.4078221205903397
484,1.64454093783748e+18,0.38245934248,-9.62032318115,0.735498726368,acc,1.54495259941995e-06,-2.971062654147938e-06,,,,,0.19353139657154278,-0.4078250819858166
485,1.6445409378380657e+18,,,,gyr,1.54495259941995e-06,-2.971062654147938e-06,0.0,0.0,0.0,-0.0,0.19353139657154278,-0.4078250819858166
486,1.64454093783949e+18,0.362846046686,-9.62032318115,0.774725317955,acc,1.4660976855717095e-06,-3.130316579115306e-06,,,,,0.1935329415241422,-0.4078280530484707
487,1.64454093784151e+18,0.402072638273,-9.62032318115,0.725692093372,acc,1.6403573037488294e-06,-2.9606449490036714e-06,,,,,0.19353440762182775,-0.4078311833650498
488,1.6445409378430776e+18,,,,gyr,1.6403573037488294e-06,-2.9606449490036714e-06,0.0,0.0,0.0,-0.0,0.19353440762182775,-0.4078311833650498
489,1.64454093784352e+18,0.362846046686,-9.61051654816,0.666852176189,acc,1.4660976855717095e-06,-2.69444972890998e-06,,,,,0.1935360479791315,-0.4078341440099988
490,1.64454093784554e+18,0.38245934248,-9.64974308014,0.735498726368,acc,1.5607354376115246e-06,-3.0014142656763776e-06,,,,,0.19353751407681705,-0.4078368384597277
491,1.64454093784755e+18,0.362846046686,-9.58109664917,0.686465501785,acc,1.4657242764205787e-06,-2.7729919068464536e-06,,,,,0.19353907481225466,-0.40783983987399336
492,1.6445409378480896e+18,,,,gyr,1.4657485335305626e-06,-2.772979085095588e-06,0.0,0.00174532923847,0.0,-8.747651229734985e-06,0.19353907481225466,-0.40783983987399336
493,1.64454093784957e+18,0.362846046686,-9.62032318115,0.696272134781,acc,1.4806977384522903e-06,-2.8413388673619896e-06,,,,,0.19354054056078818,-0.40784261285307843
494,1.64454093785158e+18,0.402072638273,-9.61051654816,0.686465501785,acc,1.624180922415282e-06,-2.7729919068464536e-06,,,,,0.19354202125852663,-0.4078454541919458
495,1.6445409378531016e+18,,,,gyr,1.6241566663389504e-06,-2.773006113833944e-06,0.0,-0.00174532923847,0.00349065847695,8.74723584137623e-06,0.19354202125852663,-0.4078454541919458
496,1.6445409378536e+18,0.38245934248,-9.62032318115,0.696272134781,acc,1.5607354376115246e-06,-2.8413388673619896e-06,,,,,0.19354364541519298,-0.40784822719805963
497,1.64454093785561e+18,0.343232750893,-9.61051654816,0.696272134781,acc,1.386849178302083e-06,-2.81332255002872e-06,,,,,0.1935452061506306,-0.407851068536927
498,1.64454093785763e+18,0.402072638273,-9.64974308014,0.686465501785,acc,1.6403573037488294e-06,-2.8006101197566777e-06,,,,,0.1935465929998089,-0.407853881859477
499,1.6445409378581135e+18,,,,gyr,1.6403573037488294e-06,-2.8006101197566777e-06,-0.00349065847695,0.0,0.0,-0.0,0.1935465929998089,-0.407853881859477
500,1.64454093785964e+18,0.402072638273,-9.62032318115,0.686465501785,acc,1.6245947001150026e-06,-2.773698356600126e-06,,,,,0.19354823335711263,-0.4078566824695968
501,1.64454093786166e+18,0.402072638273,-9.58109664917,0.686465501785,acc,1.6403573037488294e-06,-2.8006101197566777e-06,,,,,0.19354985795181276,-0.4078594561679534
502,1.6445409378631255e+18,,,,gyr,1.6403573037488294e-06,-2.8006101197566777e-06,-0.00174532923847,0.0,0.0,-0.0,0.19354985795181276,-0.4078594561679534
503,1.64454093786367e+18,0.402072638273,-9.64974308014,0.725692093372,acc,1.6245947001150026e-06,-2.932195371143419e-06,,,,,0.1935514983091165,-0.40786225677807314
504,1.64454093786569e+18,0.402072638273,-9.62032318115,0.696272134781,acc,1.640773136766678e-06,-2.8413388673619896e-06,,,,,0.19355312290381663,-0.40786518897344426
505,1.64454093786771e+18,0.402072638273,-9.58109664917,0.666852176189,acc,1.6403573037488294e-06,-2.720592583546323e-06,,,,,0.1935547636769534,-0.4078680303123116
506,1.6445409378681375e+18,,,,gyr,1.6403097081678977e-06,-2.7206212803143936e-06,0.0,-0.00349065847695,0.0,1.749447168280258e-05,0.1935547636769534,-0.4078680303123116
507,1.64454093786972e+18,0.402072638273,-9.61051654816,0.686465501785,acc,1.6245947001150026e-06,-2.773698356600126e-06,,,,,0.19355640398666157,-0.40787075093359193
508,1.64454093787174e+18,0.421685934067,-9.64974308014,0.735498726368,acc,1.720374718374366e-06,-3.0006535955240307e-06,,,,,0.1935580285813617,-0.40787352463194854
509,1.6445409378731474e+18,,,,gyr,1.720374718374366e-06,-3.0006535955240307e-06,-0.00523598771542,0.0,0.0,-0.0,0.1935580285813617,-0.40787352463194854
510,1.64454093787375e+18,0.402072638273,-9.62032318115,0.666852176189,acc,1.6245947001150026e-06,-2.69444972890998e-06,,,,,0.19355974895608008,-0.4078765252855441
511,1.64454093787577e+18,0.38245934248,-9.58109664917,0.666852176189,acc,1.5607354376115246e-06,-2.7212822578153175e-06,,,,,0.1935613735507802,-0.40787921973527297
512,1.64454093787778e+18,0.362846046686,-9.62032318115,0.637432217598,acc,1.4657242764205787e-06,-2.574920918773351e-06,,,,,0.19356293428621782,-0.4078819410175308
513,1.6445409378781596e+18,,,,gyr,1.4657017518543578e-06,-2.5749337403196013e-06,0.0,-0.00174532923847,0.0,8.747651229734985e-06,0.19356293428621782,-0.4078819410175308
514,1.6445409378798e+18,0.38245934248,-9.64974308014,0.666852176189,acc,1.5607354376115246e-06,-2.7212822578153175e-06,,,,,0.19356439998796968,-0.4078845159512711
515,1.64454093788181e+18,0.402072638273,-9.62032318115,0.686465501785,acc,1.624180922415282e-06,-2.7729919068464536e-06,,,,,0.1935659607234073,-0.40788723723352893
516,1.6445409378831713e+18,,,,gyr,1.624180922415282e-06,-2.7729919068464536e-06,-0.00523598771542,0.0,0.00523598771542,-0.0,0.1935659607234073,-0.40788723723352893
517,1.64454093788383e+18,0.402072638273,-9.61051654816,0.666852176189,acc,1.640773136766678e-06,-2.7212822578153175e-06,,,,,0.1935675849043297,-0.4078900102254358
518,1.64454093788584e+18,0.362846046686,-9.61051654816,0.666852176189,acc,1.4657242764205787e-06,-2.693763463461273e-06,,,,,0.19356922567746648,-0.4078927315076936
519,1.64454093788786e+18,0.402072638273,-9.58109664917,0.637432217598,acc,1.640773136766678e-06,-2.6012256482727273e-06,,,,,0.1935706914017429,-0.4078954252711571
520,1.6445409378881833e+18,,,,gyr,1.640773136766678e-06,-2.6012256482727273e-06,-0.00174532923847,0.0,-0.00349065847695,-0.0,0.1935706914017429,-0.4078954252711571
521,1.64454093788987e+18,0.402072638273,-9.62032318115,0.627625584602,acc,1.6245947001150026e-06,-2.535952714366687e-06,,,,,0.19357233217487968,-0.40789802649680534
522,1.64454093789189e+18,0.402072638273,-9.64974308014,0.696272134781,acc,1.6403573037488294e-06,-2.8406187662770374e-06,,,,,0.1935739567695798,-0.4079005624495197
523,1.6445409378931953e+18,,,,gyr,1.6403573037488294e-06,-2.8406187662770374e-06,0.0,0.0,0.00174532923847,-0.0,0.1935739567695798,-0.4079005624495197
524,1.6445409378939e+18,0.421685934067,-9.64974308014,0.686465501785,acc,1.7038432073886696e-06,-2.773698356600126e-06,,,,,0.19357559712688355,-0.407903403068286
525,1.64454093789592e+18,0.402072638273,-9.64974308014,0.666852176189,acc,1.640773136766678e-06,-2.7212822578153175e-06,,,,,0.19357730097009093,-0.4079061767666426
526,1.64454093789793e+18,0.402072638273,-9.57129001617,0.686465501785,acc,1.624180922415282e-06,-2.7729919068464536e-06,,,,,0.1935789417432277,-0.4079088980489004
527,1.6445409378982072e+18,,,,gyr,1.624180922415282e-06,-2.7729919068464536e-06,-0.00174532923847,0.0,0.00174532923847,-0.0,0.1935789417432277,-0.4079088980489004
528,1.64454093789994e+18,0.362846046686,-9.64974308014,0.637432217598,acc,1.4660976855717095e-06,-2.575576907795281e-06,,,,,0.19358056592415013,-0.4079116710408073
529,1.64454093790196e+18,0.402072638273,-9.64974308014,0.666852176189,acc,1.6403573037488294e-06,-2.720592583546323e-06,,,,,0.1935820320218357,-0.4079142466177151
530,1.6445409379032192e+18,,,,gyr,1.6403573037488294e-06,-2.720592583546323e-06,-0.00349065847695,0.0,0.00174532923847,-0.0,0.1935820320218357,-0.4079142466177151
531,1.64454093790398e+18,0.402072638273,-9.62032318115,0.637432217598,acc,1.640773136766678e-06,-2.6012256482727273e-06,,,,,0.19358367237913943,-0.40791696721029863
532,1.64454093790599e+18,0.402072638273,-9.61051654816,0.725692093372,acc,1.624180922415282e-06,-2.9314485528411574e-06,,,,,0.1935853131522762,-0.4079195684359469
533,1.64454093790801e+18,0.402072638273,-9.62032318115,0.666852176189,acc,1.640773136766678e-06,-2.7212822578153175e-06,,,,,0.19358693733319862,-0.40792249988449975
534,1.6445409379082312e+18,,,,gyr,1.640773136766678e-06,-2.7212822578153175e-06,-0.00523598771542,0.0,0.0,-0.0,0.19358693733319862,-0.40792249988449975
535,1.64454093791002e+18,0.402072638273,-9.61051654816,0.627625584602,acc,1.6245947001150026e-06,-2.535952714366687e-06,,,,,0.1935885781063354,-0.40792522116675756
536,1.64454093791204e+18,0.38245934248,-9.64974308014,0.637432217598,acc,1.5603398891273724e-06,-2.6005664008196893e-06,,,,,0.19359020270103552,-0.40792775711947193
537,1.6445409379132431e+18,,,,gyr,1.5603398891273724e-06,-2.6005664008196893e-06,-0.00523598771542,0.0,0.0,-0.0,0.19359020270103552,-0.40792775711947193
538,1.64454093791405e+18,0.402072638273,-9.64974308014,0.696272134781,acc,1.6245947001150026e-06,-2.81332255002872e-06,,,,,0.19359176304092465,-0.40793035768587277
539,1.64454093791607e+18,0.38245934248,-9.62032318115,0.686465501785,acc,1.5603398891273724e-06,-2.8006101197566777e-06,,,,,0.19359338763562478,-0.4079331710084228
540,1.64454093791808e+18,0.362846046686,-9.58109664917,0.696272134781,acc,1.4660976855717095e-06,-2.81332255002872e-06,,,,,0.1935949479755139,-0.40793597161854256
541,1.644540937918255e+18,,,,gyr,1.4660484654085868e-06,-2.8133481994257216e-06,-0.00349065847695,-0.00349065847695,0.00174532923847,1.749530595017857e-05,0.1935949479755139,-0.40793597161854256
542,1.6445409379201e+18,0.402072638273,-9.61051654816,0.696272134781,acc,1.640773136766678e-06,-2.8413388673619896e-06,,,,,0.1935964140239793,-0.40793878496674196
543,1.64454093792211e+18,0.38245934248,-9.61051654816,0.725692093372,acc,1.54495259941995e-06,-2.9314485528411574e-06,,,,,0.1935980547971161,-0.4079416263056093
544,1.644540937923265e+18,,,,gyr,1.5449013345639782e-06,-2.931475570232748e-06,-0.00174532923847,-0.00349065847695,0.00174532923847,1.748781150642856e-05,0.1935980547971161,-0.4079416263056093
545,1.64454093792413e+18,0.402072638273,-9.64974308014,0.725692093372,acc,1.640773136766678e-06,-2.9613954769045806e-06,,,,,0.19359959969845064,-0.40794455778117955
546,1.64454093792614e+18,0.362846046686,-9.61051654816,0.696272134781,acc,1.4657242764205787e-06,-2.812606008153235e-06,,,,,0.19360124047158742,-0.40794751917665645
547,1.64454093792816e+18,0.402072638273,-9.62032318115,0.696272134781,acc,1.640773136766678e-06,-2.8413388673619896e-06,,,,,0.19360270619586384,-0.4079503317826646
548,1.6445409379282767e+18,,,,gyr,1.6408228442379471e-06,-2.8413101624680065e-06,0.0,0.00349065847695,0.0,-1.749447168280258e-05,0.19360270619586384,-0.4079503317826646
549,1.64454093793017e+18,0.38245934248,-9.61051654816,0.735498726368,acc,1.5453461928453765e-06,-2.971819564572013e-06,,,,,0.19360434701870807,-0.4079531730928271
550,1.64454093793219e+18,0.38245934248,-9.58109664917,0.686465501785,acc,1.5603398891273724e-06,-2.8006101197566777e-06,,,,,0.19360589236490092,-0.4079561449123916
551,1.6445409379332887e+18,,,,gyr,1.560315390302227e-06,-2.8006237689613974e-06,-0.00174532923847,-0.00174532923847,0.00349065847695,8.747652975064225e-06,0.19360589236490092,-0.4079561449123916
552,1.6445409379342e+18,0.402072638273,-9.62032318115,0.725692093372,acc,1.6245947001150026e-06,-2.932195371143419e-06,,,,,0.19360745268029123,-0.4079589455361606
553,1.64454093793622e+18,0.402072638273,-9.58109664917,0.725692093372,acc,1.6403573037488294e-06,-2.9606449490036714e-06,,,,,0.19360907727499135,-0.4079618777315317
554,1.64454093793823e+18,0.38245934248,-9.64974308014,0.735498726368,acc,1.5453461928453765e-06,-2.971819564572013e-06,,,,,0.1936107176322951,-0.4079648383764807
555,1.644540937938301e+18,,,,gyr,1.545320196345182e-06,-2.971833082607833e-06,-0.00349065847695,-0.00174532923847,0.0,8.747651229734985e-06,0.1936107176322951,-0.4079648383764807
556,1.64454093794025e+18,0.402072638273,-9.62032318115,0.725692093372,acc,1.640773136766678e-06,-2.9613954769045806e-06,,,,,0.19361226295249143,-0.4079678102095633
557,1.64454093794226e+18,0.343232750893,-9.61051654816,0.725692093372,acc,1.3864959534252466e-06,-2.9314485528411574e-06,,,,,0.1936139037256282,-0.4079707716050402
558,1.6445409379433126e+18,,,,gyr,1.3864959534252466e-06,-2.9314485528411574e-06,-0.00349065847695,0.0,0.00523598771542,-0.0,0.1936139037256282,-0.4079707716050402
559,1.64454093794428e+18,0.402072638273,-9.57129001617,0.696272134781,acc,1.640773136766678e-06,-2.8413388673619896e-06,,,,,0.19361529022158164,-0.40797370305359304
560,1.64454093794629e+18,0.38245934248,-9.61051654816,0.764918684959,acc,1.54495259941995e-06,-3.0899051988358604e-06,,,,,0.1936169309947184,-0.4079765443924604
561,1.64454093794831e+18,0.38245934248,-9.62032318115,0.696272134781,acc,1.5607354376115246e-06,-2.8413388673619896e-06,,,,,0.19361847594731782,-0.4079796342976592
562,1.6445409379483246e+18,,,,gyr,1.5607602925932465e-06,-2.841325214484008e-06,-0.00349065847695,0.00174532923847,0.0,-8.747651229734985e-06,0.19361847594731782,-0.4079796342976592
563,1.64454093795032e+18,0.38245934248,-9.62032318115,0.686465501785,acc,1.5453461928453765e-06,-2.773698356600126e-06,,,,,0.1936200367076104,-0.4079824756228737
564,1.64454093795234e+18,0.362846046686,-9.58109664917,0.686465501785,acc,1.4803224745018357e-06,-2.8006101197566777e-06,,,,,0.19362158205380325,-0.4079852493212303
565,1.6445409379533368e+18,,,,gyr,1.480273476744393e-06,-2.8006360180226593e-06,-0.00523598771542,-0.00349065847695,0.0,1.749530595017857e-05,0.19362158205380325,-0.4079852493212303
566,1.64454093795436e+18,0.38245934248,-9.61051654816,0.696272134781,acc,1.5607354376115246e-06,-2.8413388673619896e-06,,,,,0.19362306232728,-0.40798804995724836
567,1.64454093795637e+18,0.402072638273,-9.61051654816,0.696272134781,acc,1.624180922415282e-06,-2.812606008153235e-06,,,,,0.1936246230627176,-0.4079908912961157
568,1.6445409379583488e+18,,,,gyr,1.6242055260495453e-06,-2.81259180027738e-06,-0.00174532923847,0.00174532923847,0.0,-8.747651229734985e-06,0.1936246230627176,-0.4079908912961157
569,1.64454093795838e+18,0.402072638273,-9.61051654816,0.725692093372,acc,1.6245947001150026e-06,-2.932195371143419e-06,,,,,0.19362624726824365,-0.407993703887916
570,1.6445409379604e+18,0.362846046686,-9.64974308014,0.686465501785,acc,1.4803224745018357e-06,-2.8006101197566777e-06,,,,,0.19362787186294378,-0.4079966360832871
571,1.64454093796241e+18,0.38245934248,-9.58109664917,0.686465501785,acc,1.5453461928453765e-06,-2.773698356600126e-06,,,,,0.19362935218541827,-0.4079994366934069
572,1.6445409379633605e+18,,,,gyr,1.5453461928453765e-06,-2.773698356600126e-06,-0.00349065847695,0.0,0.00349065847695,-0.0,0.19362935218541827,-0.4079994366934069
573,1.64454093796443e+18,0.362846046686,-9.61051654816,0.686465501785,acc,1.4806977384522903e-06,-2.801320078590192e-06,,,,,0.1936308975316111,-0.4080022103917635
574,1.64454093796644e+18,0.402072638273,-9.62032318115,0.725692093372,acc,1.624180922415282e-06,-2.9314485528411574e-06,,,,,0.19363237822934956,-0.40800501171184206
575,1.6445409379683725e+18,,,,gyr,1.6241552790636017e-06,-2.931462760497241e-06,0.0,-0.00174532923847,0.00349065847695,8.747651229734985e-06,0.19363237822934956,-0.40800501171184206
576,1.64454093796846e+18,0.362846046686,-9.64974308014,0.686465501785,acc,1.4806977384522903e-06,-2.801320078590192e-06,,,,,0.19363400238462863,-0.40800794317460254
577,1.64454093797048e+18,0.38245934248,-9.62032318115,0.686465501785,acc,1.5607354376115246e-06,-2.801320078590192e-06,,,,,0.19363548308236708,-0.4080107444946811
578,1.64454093797249e+18,0.362846046686,-9.64974308014,0.627625584602,acc,1.4657242764205787e-06,-2.5353068174665696e-06,,,,,0.1936370438178047,-0.4080135458147597
579,1.6445409379733824e+18,,,,gyr,1.465702107876255e-06,-2.5353196335271413e-06,-0.00174532923847,-0.00174532923847,0.0,8.743907498518468e-06,0.1936370438178047,-0.4080135458147597
580,1.64454093797451e+18,0.402072638273,-9.62032318115,0.686465501785,acc,1.640773136766678e-06,-2.801320078590192e-06,,,,,0.19363850951991257,-0.4080160811343932
581,1.64454093797652e+18,0.38245934248,-9.64974308014,0.696272134781,acc,1.54495259941995e-06,-2.812606008153235e-06,,,,,0.19364015029304935,-0.40801888245447177
582,1.6445409379783946e+18,,,,gyr,1.5449279956644332e-06,-2.812619522752129e-06,-0.00523598771542,-0.00174532923847,0.0,8.747651229734985e-06,0.19364015029304935,-0.40801888245447177
583,1.64454093797854e+18,0.402072638273,-9.58109664917,0.627625584602,acc,1.640773136766678e-06,-2.5612068595009303e-06,,,,,0.19364169522104502,-0.4080216950739945
584,1.64454093798055e+18,0.402072638273,-9.62032318115,0.686465501785,acc,1.624180922415282e-06,-2.7729919068464536e-06,,,,,0.1936433359941818,-0.408024256280854
585,1.64454093798257e+18,0.362846046686,-9.64974308014,0.637432217598,acc,1.4806977384522903e-06,-2.6012256482727273e-06,,,,,0.1936449601751042,-0.40802702927276085
586,1.6445409379834066e+18,,,,gyr,1.4806749837763572e-06,-2.6012386008031795e-06,-0.00349065847695,-0.00174532923847,0.0,8.747652975064225e-06,0.1936449601751042,-0.40802702927276085
587,1.64454093798458e+18,0.402072638273,-9.62032318115,0.637432217598,acc,1.6245947001150026e-06,-2.575576907795281e-06,,,,,0.193646440850088,-0.40802963051136165
588,1.6445409379866e+18,0.402072638273,-9.64974308014,0.627625584602,acc,1.6403573037488294e-06,-2.5605577542993295e-06,,,,,0.19364806544478813,-0.40803220608826946
589,1.6445409379884183e+18,,,,gyr,1.6403349058835122e-06,-2.56057210279357e-06,-0.00349065847695,-0.00174532923847,0.0,8.74723584137623e-06,0.19364806544478813,-0.40803220608826946
590,1.64454093798861e+18,0.362846046686,-9.64974308014,0.696272134781,acc,1.4660976855717095e-06,-2.81332255002872e-06,,,,,0.193649705779694,-0.40803476666037225
591,1.64454093799063e+18,0.402072638273,-9.64974308014,0.666852176189,acc,1.6403573037488294e-06,-2.720592583546323e-06,,,,,0.19365117187737957,-0.4080375799829223
592,1.64454093799264e+18,0.38245934248,-9.62032318115,0.686465501785,acc,1.5453461928453765e-06,-2.773698356600126e-06,,,,,0.1936528122346833,-0.40804030057550583
593,1.6445409379934303e+18,,,,gyr,1.5453461928453765e-06,-2.773698356600126e-06,0.0,0.0,0.00174532923847,-0.0,0.1936528122346833,-0.40804030057550583
594,1.64454093799466e+18,0.402072638273,-9.64974308014,0.637432217598,acc,1.640773136766678e-06,-2.6012256482727273e-06,,,,,0.19365435758087615,-0.40804307427386244
595,1.64454093799667e+18,0.402072638273,-9.62032318115,0.666852176189,acc,1.624180922415282e-06,-2.693763463461273e-06,,,,,0.19365599835401293,-0.4080456754995107
596,1.6445409379984425e+18,,,,gyr,1.624180922415282e-06,-2.693763463461273e-06,-0.00174532923847,0.0,0.00174532923847,-0.0,0.19365599835401293,-0.4080456754995107
597,1.64454093799869e+18,0.402072638273,-9.64974308014,0.666852176189,acc,1.640773136766678e-06,-2.7212822578153175e-06,,,,,0.19365762253493535,-0.40804836926297416
598,1.6445409380007e+18,0.38245934248,-9.62032318115,0.686465501785,acc,1.54495259941995e-06,-2.7729919068464536e-06,,,,,0.19365926330807212,-0.408051090545232
599,1.64454093800272e+18,0.38245934248,-9.61051654816,0.598205626011,acc,1.5607354376115246e-06,-2.4411502499583393e-06,,,,,0.19366080826067153,-0.40805386353713885
600,1.6445409380034545e+18,,,,gyr,1.5606927287021738e-06,-2.4411775551287253e-06,-0.00349065847695,-0.00349065847695,0.00349065847695,1.749530595017857e-05,0.19366080826067153,-0.40805386353713885
601,1.64454093800473e+18,0.402072638273,-9.64974308014,0.686465501785,acc,1.6245947001150026e-06,-2.773698356600126e-06,,,,,0.19366236895340022,-0.40805630471469395
602,1.64454093800675e+18,0.362846046686,-9.64974308014,0.637432217598,acc,1.4803224745018357e-06,-2.6005664008196893e-06,,,,,0.19366399354810035,-0.40805907841305056
603,1.6445409380084662e+18,,,,gyr,1.4803224745018357e-06,-2.6005664008196893e-06,-0.00174532923847,0.0,0.0,-0.0,0.19366399354810035,-0.40805907841305056
604,1.64454093800876e+18,0.38245934248,-9.64974308014,0.686465501785,acc,1.5453461928453765e-06,-2.773698356600126e-06,,,,,0.19366547387057484,-0.4080616789794514
605,1.64454093801078e+18,0.402072638273,-9.62032318115,0.686465501785,acc,1.6403573037488294e-06,-2.8006101197566777e-06,,,,,0.19366701921676768,-0.408064452677808
606,1.64454093801279e+18,0.38245934248,-9.66935634613,0.696272134781,acc,1.5453461928453765e-06,-2.81332255002872e-06,,,,,0.19366865957407142,-0.40806725328792776
607,1.6445409380134784e+18,,,,gyr,1.5453461928453765e-06,-2.81332255002872e-06,-0.00174532923847,0.0,-0.00174532923847,-0.0,0.19366865957407142,-0.40806725328792776
608,1.64454093801481e+18,0.402072638273,-9.62032318115,0.637432217598,acc,1.640773136766678e-06,-2.6012256482727273e-06,,,,,0.19367020492026427,-0.4080700666104778
609,1.64454093801682e+18,0.421685934067,-9.66935634613,0.686465501785,acc,1.7034092454146536e-06,-2.7729919068464536e-06,,,,,0.19367184569340104,-0.40807266783612606
610,1.6445409380184904e+18,,,,gyr,1.7034092454146536e-06,-2.7729919068464536e-06,0.0,0.0,0.0,-0.0,0.19367184569340104,-0.40807266783612606
611,1.64454093801884e+18,0.38245934248,-9.62032318115,0.686465501785,acc,1.5607354376115246e-06,-2.801320078590192e-06,,,,,0.19367354910264645,-0.40807544082803293
612,1.64454093802085e+18,0.402072638273,-9.62032318115,0.666852176189,acc,1.624180922415282e-06,-2.693763463461273e-06,,,,,0.19367510983808406,-0.4080782421481115
613,1.64454093802287e+18,0.38245934248,-9.62032318115,0.725692093372,acc,1.5607354376115246e-06,-2.9613954769045806e-06,,,,,0.19367673401900648,-0.40808093591157496
614,1.644540938023502e+18,,,,gyr,1.5607354376115246e-06,-2.9613954769045806e-06,0.0,0.0,0.0,-0.0,0.19367673401900648,-0.40808093591157496
615,1.64454093802488e+18,0.38245934248,-9.62032318115,0.637432217598,acc,1.5453461928453765e-06,-2.575576907795281e-06,,,,,0.1936782947544441,-0.40808389730705186
616,1.6445409380269e+18,0.402072638273,-9.61051654816,0.686465501785,acc,1.6403573037488294e-06,-2.8006101197566777e-06,,,,,0.19367984010063694,-0.40808647288395966
617,1.6445409380285123e+18,,,,gyr,1.6403573037488294e-06,-2.8006101197566777e-06,0.0,0.0,0.0,-0.0,0.19367984010063694,-0.40808647288395966
618,1.64454093802891e+18,0.402072638273,-9.64974308014,0.735498726368,acc,1.6245947001150026e-06,-2.971819564572013e-06,,,,,0.19368148045794067,-0.4080892734940794
619,1.64454093803093e+18,0.402072638273,-9.64974308014,0.696272134781,acc,1.6403573037488294e-06,-2.8406187662770374e-06,,,,,0.1936831050526408,-0.40809224531364396
620,1.64454093803294e+18,0.402072638273,-9.61051654816,0.696272134781,acc,1.6245947001150026e-06,-2.81332255002872e-06,,,,,0.19368474540994454,-0.40809508593241023
621,1.6445409380335242e+18,,,,gyr,1.6245947001150026e-06,-2.81332255002872e-06,0.0,0.0,0.0,-0.0,0.19368474540994454,-0.40809508593241023
622,1.64454093803496e+18,0.402072638273,-9.62032318115,0.686465501785,acc,1.6403573037488294e-06,-2.8006101197566777e-06,,,,,0.19368637000464467,-0.40809789925496026
623,1.64454093803697e+18,0.421685934067,-9.62032318115,0.696272134781,acc,1.7038432073886696e-06,-2.81332255002872e-06,,,,,0.1936880103619484,-0.40810069986508
624,1.6445409380385362e+18,,,,gyr,1.7037939895362498e-06,-2.813352357434944e-06,-0.00174532923847,-0.00349065847695,0.0,1.749447168280258e-05,0.1936880103619484,-0.40810069986508
625,1.64454093803899e+18,0.402072638273,-9.61051654816,0.696272134781,acc,1.640773136766678e-06,-2.8413388673619896e-06,,,,,0.19368971415593794,-0.40810351321743743
626,1.644540938041e+18,0.402072638273,-9.58109664917,0.774725317955,acc,1.624180922415282e-06,-3.1295193001426416e-06,,,,,0.19369135492907472,-0.4081063545563048
627,1.64454093804302e+18,0.362846046686,-9.62032318115,0.735498726368,acc,1.4806977384522903e-06,-3.0014142656763776e-06,,,,,0.19369297910999714,-0.40810948407560493
628,1.6445409380435482e+18,,,,gyr,1.4806977384522903e-06,-3.0014142656763776e-06,-0.00174532923847,0.0,0.00174532923847,-0.0,0.19369297910999714,-0.40810948407560493
629,1.64454093804503e+18,0.38245934248,-9.57129001617,0.735498726368,acc,1.54495259941995e-06,-2.971062654147938e-06,,,,,0.1936944598077356,-0.4081124854898706
630,1.64454093804705e+18,0.402072638273,-9.58109664917,0.735498726368,acc,1.640773136766678e-06,-3.0014142656763776e-06,,,,,0.193696004760335,-0.40811545655252474
631,1.64454093804856e+18,,,,gyr,1.640773136766678e-06,-3.0014142656763776e-06,-0.00349065847695,0.0,0.00174532923847,-0.0,0.193696004760335,-0.40811545655252474
632,1.64454093804906e+18,0.421685934067,-9.61051654816,0.735498726368,acc,1.7038432073886696e-06,-2.971819564572013e-06,,,,,0.19369764553347177,-0.4081184579667904
633,1.64454093805108e+18,0.402072638273,-9.64974308014,0.686465501785,acc,1.6403573037488294e-06,-2.8006101197566777e-06,,,,,0.19369934937667915,-0.40812142978635496
634,1.64454093805309e+18,0.402072638273,-9.66935634613,0.735498726368,acc,1.6245947001150026e-06,-2.971819564572013e-06,,,,,0.1937009897339829,-0.4081242303964747
635,1.6445409380535718e+18,,,,gyr,1.6245947001150026e-06,-2.971819564572013e-06,0.0,0.0,0.0,-0.0,0.1937009897339829,-0.4081242303964747
636,1.64454093805511e+18,0.402072638273,-9.61051654816,0.696272134781,acc,1.6403573037488294e-06,-2.8406187662770374e-06,,,,,0.19370261432868302,-0.40812720221603926
637,1.64454093805712e+18,0.402072638273,-9.62032318115,0.686465501785,acc,1.6245947001150026e-06,-2.773698356600126e-06,,,,,0.19370425468598676,-0.40813004283480553
638,1.644540938058584e+18,,,,gyr,1.6245704367021636e-06,-2.773712567884664e-06,0.0,-0.00174532923847,0.00349065847695,8.747652975064225e-06,0.19370425468598676,-0.40813004283480553
639,1.64454093805914e+18,0.38245934248,-9.62032318115,0.725692093372,acc,1.5607354376115246e-06,-2.9613954769045806e-06,,,,,0.19370587925642346,-0.40813281654737343
640,1.64454093806115e+18,0.38245934248,-9.64974308014,0.735498726368,acc,1.54495259941995e-06,-2.971062654147938e-06,,,,,0.19370743999186107,-0.40813577794285033
641,1.64454093806317e+18,0.38245934248,-9.62032318115,0.696272134781,acc,1.5607354376115246e-06,-2.8413388673619896e-06,,,,,0.19370898494446048,-0.40813874900550445
642,1.644540938063596e+18,,,,gyr,1.5607354376115246e-06,-2.8413388673619896e-06,0.0,0.0,0.0,-0.0,0.19370898494446048,-0.40813874900550445
643,1.64454093806518e+18,0.402072638273,-9.62032318115,0.725692093372,acc,1.624180922415282e-06,-2.9314485528411574e-06,,,,,0.1937105456798981,-0.4081415903443718
644,1.6445409380672e+18,0.343232750893,-9.62032318115,0.735498726368,acc,1.4006600392971364e-06,-3.0014142656763776e-06,,,,,0.19371216986082052,-0.40814452179292465
645,1.6445409380686077e+18,,,,gyr,1.4006600392971364e-06,-3.0014142656763776e-06,-0.00349065847695,0.0,0.00349065847695,-0.0,0.19371216986082052,-0.40814452179292465
646,1.64454093806921e+18,0.38245934248,-9.62032318115,0.725692093372,acc,1.5453461928453765e-06,-2.932195371143419e-06,,,,,0.1937135705208598,-0.40814752320719033
647,1.64454093807123e+18,0.38245934248,-9.61051654816,0.696272134781,acc,1.5603398891273724e-06,-2.8406187662770374e-06,,,,,0.19371511586705265,-0.40815045540256145
648,1.64454093807324e+18,0.343232750893,-9.62032318115,0.637432217598,acc,1.386849178302083e-06,-2.575576907795281e-06,,,,,0.19371667620694177,-0.4081532960213277
649,1.64454093807362e+18,,,,gyr,1.3868041175838378e-06,-2.575601170751787e-06,-0.00349065847695,-0.00349065847695,-0.00174532923847,1.749530595017857e-05,0.19371667620694177,-0.4081532960213277
650,1.64454093807526e+18,0.402072638273,-9.61051654816,0.696272134781,acc,1.6403573037488294e-06,-2.8406187662770374e-06,,,,,0.19371806301105934,-0.40815587162249845
651,1.64454093807727e+18,0.402072638273,-9.64974308014,0.666852176189,acc,1.6245947001150026e-06,-2.69444972890998e-06,,,,,0.19371970336836308,-0.4081587122412647
652,1.644540938078632e+18,,,,gyr,1.6246182701593287e-06,-2.6944355174190623e-06,0.0,0.00174532923847,0.00349065847695,-8.747651229734985e-06,0.19371970336836308,-0.4081587122412647
653,1.64454093807929e+18,0.402072638273,-9.62032318115,0.735498726368,acc,1.640773136766678e-06,-3.0014142656763776e-06,,,,,0.19372132798663325,-0.40816140667678213
654,1.6445409380813e+18,0.402072638273,-9.64974308014,0.666852176189,acc,1.624180922415282e-06,-2.693763463461273e-06,,,,,0.19372296875977002,-0.4081644080910478
655,1.64454093808332e+18,0.38245934248,-9.62032318115,0.686465501785,acc,1.5607354376115246e-06,-2.801320078590192e-06,,,,,0.19372459294069244,-0.40816710185451127
656,1.6445409380836419e+18,,,,gyr,1.5607354376115246e-06,-2.801320078590192e-06,-0.00349065847695,0.0,-0.00174532923847,-0.0,0.19372459294069244,-0.40816710185451127
657,1.64454093808533e+18,0.38245934248,-9.61051654816,0.637432217598,acc,1.54495259941995e-06,-2.574920918773351e-06,,,,,0.19372615367613005,-0.40816990317458984
658,1.64454093808735e+18,0.38245934248,-9.62032318115,0.637432217598,acc,1.5607354376115246e-06,-2.6012256482727273e-06,,,,,0.19372769862872946,-0.4081724780955086
659,1.6445409380886538e+18,,,,gyr,1.560712682937069e-06,-2.6012393009424724e-06,0.0,-0.00174532923847,0.0,8.747651229734985e-06,0.19372769862872946,-0.4081724780955086
660,1.64454093808936e+18,0.362846046686,-9.62032318115,0.686465501785,acc,1.4657242764205787e-06,-2.7729919068464536e-06,,,,,0.19372925934141239,-0.40817507933480957
661,1.64454093809138e+18,0.421685934067,-9.61051654816,0.696272134781,acc,1.7208108359259126e-06,-2.8413388673619896e-06,,,,,0.1937307250656888,-0.40817785232671644
662,1.64454093809339e+18,0.402072638273,-9.61051654816,0.696272134781,acc,1.6245947001150026e-06,-2.81332255002872e-06,,,,,0.19373244587652474,-0.4081806936655838
663,1.6445409380936658e+18,,,,gyr,1.6246193100173085e-06,-2.813308338533254e-06,-0.00174532923847,0.00174532923847,0.00174532923847,-8.747651229734985e-06,0.19373244587652474,-0.4081806936655838
664,1.64454093809541e+18,0.402072638273,-9.66935634613,0.696272134781,acc,1.6403573037488294e-06,-2.8406187662770374e-06,,,,,0.19373407049583477,-0.4081835069739223
665,1.64454093809742e+18,0.402072638273,-9.64974308014,0.686465501785,acc,1.6245947001150026e-06,-2.773698356600126e-06,,,,,0.1937357108531385,-0.40818634759268857
666,1.6445409380986778e+18,,,,gyr,1.6245947001150026e-06,-2.773698356600126e-06,-0.00174532923847,0.0,0.0,-0.0,0.1937357108531385,-0.40818634759268857
667,1.64454093809944e+18,0.362846046686,-9.62032318115,0.686465501785,acc,1.4806977384522903e-06,-2.801320078590192e-06,,,,,0.19373733544783864,-0.4081891212910452
668,1.64454093810145e+18,0.402072638273,-9.58109664917,0.696272134781,acc,1.624180922415282e-06,-2.812606008153235e-06,,,,,0.1937388161455771,-0.40819192261112375
669,1.64454093810347e+18,0.343232750893,-9.62032318115,0.637432217598,acc,1.4006600392971364e-06,-2.6012256482727273e-06,,,,,0.1937404403264995,-0.4081947352171319
670,1.6445409381036897e+18,,,,gyr,1.4006600392971364e-06,-2.6012256482727273e-06,0.0,0.0,0.00174532923847,-0.0,0.1937404403264995,-0.4081947352171319
671,1.64454093810548e+18,0.362846046686,-9.64974308014,0.696272134781,acc,1.4657242764205787e-06,-2.812606008153235e-06,,,,,0.1937418409865388,-0.40819733644278017
672,1.6445409381075e+18,0.38245934248,-9.61051654816,0.637432217598,acc,1.5607354376115246e-06,-2.6012256482727273e-06,,,,,0.19374330671081522,-0.4082001490487883
673,1.6445409381087017e+18,,,,gyr,1.5606899281431857e-06,-2.6012529534131673e-06,-0.00523598771542,-0.00349065847695,0.0,1.7495302459520094e-05,0.19374330671081522,-0.4082001490487883
674,1.64454093810951e+18,0.343232750893,-9.64974308014,0.627625584602,acc,1.3864959534252466e-06,-2.5353068174665696e-06,,,,,0.19374486740074337,-0.40820275030174175
675,1.64454093811153e+18,0.362846046686,-9.61051654816,0.637432217598,acc,1.4806977384522903e-06,-2.6012256482727273e-06,,,,,0.1937462538966968,-0.40820528560855923
676,1.64454093811354e+18,0.402072638273,-9.66935634613,0.686465501785,acc,1.6245947001150026e-06,-2.773698356600126e-06,,,,,0.19374773459443526,-0.4082078868342075
677,1.6445409381137137e+18,,,,gyr,1.6245947001150026e-06,-2.773698356600126e-06,0.00349065847695,0.0,0.0,-0.0,0.19374773459443526,-0.4082078868342075
678,1.64454093811556e+18,0.402072638273,-9.61051654816,0.637432217598,acc,1.6403573037488294e-06,-2.6005664008196893e-06,,,,,0.19374935918913538,-0.4082106605325641
679,1.64454093811757e+18,0.362846046686,-9.62032318115,0.686465501785,acc,1.4660976855717095e-06,-2.773698356600126e-06,,,,,0.19375099954643912,-0.40821326109896494
680,1.6445409381187256e+18,,,,gyr,1.4661219477092987e-06,-2.77368553219179e-06,-0.00174532923847,0.00174532923847,-0.00174532923847,-8.74723584137623e-06,0.19375099954643912,-0.40821326109896494
681,1.64454093811959e+18,0.402072638273,-9.61051654816,0.666852176189,acc,1.6403573037488294e-06,-2.720592583546323e-06,,,,,0.19375246566838683,-0.40821603478449714
682,1.6445409381216e+18,0.362846046686,-9.64974308014,0.725692093372,acc,1.4660976855717095e-06,-2.932195371143419e-06,,,,,0.19375410602569057,-0.4082187553770807
683,1.64454093812362e+18,0.362846046686,-9.58109664917,0.696272134781,acc,1.4806977384522903e-06,-2.8413388673619896e-06,,,,,0.19375557212337613,-0.4082216875724518
684,1.6445409381237376e+18,,,,gyr,1.4806977384522903e-06,-2.8413388673619896e-06,-0.00174532923847,0.0,0.0,-0.0,0.19375557212337613,-0.4082216875724518
685,1.64454093812563e+18,0.38245934248,-9.57129001617,0.696272134781,acc,1.54495259941995e-06,-2.812606008153235e-06,,,,,0.19375705282111458,-0.40822452891131916
686,1.64454093812765e+18,0.402072638273,-9.62032318115,0.725692093372,acc,1.640773136766678e-06,-2.9613954769045806e-06,,,,,0.193758597773714,-0.4082273415173273
687,1.6445409381287475e+18,,,,gyr,1.640773136766678e-06,-2.9613954769045806e-06,0.0,0.0,0.0,-0.0,0.193758597773714,-0.4082273415173273
688,1.64454093812966e+18,0.402072638273,-9.66935634613,0.686465501785,acc,1.624180922415282e-06,-2.7729919068464536e-06,,,,,0.19376023854685076,-0.4082303029128042
689,1.64454093813168e+18,0.402072638273,-9.58109664917,0.696272134781,acc,1.640773136766678e-06,-2.8413388673619896e-06,,,,,0.19376186272777318,-0.4082330759047111
690,1.64454093813369e+18,0.402072638273,-9.61051654816,0.735498726368,acc,1.6245947001150026e-06,-2.971819564572013e-06,,,,,0.19376350350090996,-0.40823591724357844
691,1.6445409381337613e+18,,,,gyr,1.6245686937153078e-06,-2.9718337812560925e-06,0.0,-0.00174532923847,0.00349065847695,8.750981317921987e-06,0.19376350350090996,-0.40823591724357844
692,1.64454093813571e+18,0.402072638273,-9.61051654816,0.696272134781,acc,1.6403573037488294e-06,-2.8406187662770374e-06,,,,,0.19376512806960366,-0.40823888907735967
693,1.64454093813772e+18,0.402072638273,-9.57129001617,0.696272134781,acc,1.6245947001150026e-06,-2.81332255002872e-06,,,,,0.1937667684269074,-0.40824172969612593
694,1.6445409381387715e+18,,,,gyr,1.6245947001150026e-06,-2.81332255002872e-06,0.0,0.0,0.0,-0.0,0.1937667684269074,-0.40824172969612593
695,1.64454093813974e+18,0.402072638273,-9.57129001617,0.735498726368,acc,1.6403573037488294e-06,-3.0006535955240307e-06,,,,,0.19376839302160753,-0.40824454301867596
696,1.64454093814175e+18,0.402072638273,-9.62032318115,0.696272134781,acc,1.6245947001150026e-06,-2.81332255002872e-06,,,,,0.19377003337891127,-0.4082475436722715
697,1.64454093814377e+18,0.402072638273,-9.58109664917,0.696272134781,acc,1.640773136766678e-06,-2.8413388673619896e-06,,,,,0.1937716579736114,-0.40825035699482154
698,1.6445409381437834e+18,,,,gyr,1.6408228442379471e-06,-2.8413101624680065e-06,0.00349065847695,0.00349065847695,0.0,-1.749447168280258e-05,0.1937716579736114,-0.40825035699482154
699,1.64454093814578e+18,0.38245934248,-9.61051654816,0.696272134781,acc,1.54495259941995e-06,-2.812606008153235e-06,,,,,0.19377329879645563,-0.408253198304984
700,1.6445409381478e+18,0.362846046686,-9.61051654816,0.735498726368,acc,1.4806977384522903e-06,-3.0014142656763776e-06,,,,,0.19377484374905504,-0.4082560109109922
701,1.6445409381487954e+18,,,,gyr,1.4806977384522903e-06,-3.0014142656763776e-06,-0.00349065847695,0.0,0.00349065847695,-0.0,0.19377484374905504,-0.4082560109109922
702,1.64454093814981e+18,0.402072638273,-9.62032318115,0.696272134781,acc,1.624180922415282e-06,-2.812606008153235e-06,,,,,0.1937763244467935,-0.40825901232525785
703,1.64454093815183e+18,0.38245934248,-9.62032318115,0.725692093372,acc,1.5607354376115246e-06,-2.9613954769045806e-06,,,,,0.1937779486277159,-0.408261824931266
704,1.6445409381538074e+18,,,,gyr,1.5607354376115246e-06,-2.9613954769045806e-06,-0.00174532923847,0.0,0.0,-0.0,0.1937779486277159,-0.408261824931266
705,1.64454093815384e+18,0.343232750893,-9.61051654816,0.696272134781,acc,1.386849178302083e-06,-2.81332255002872e-06,,,,,0.19377950936315352,-0.4082647863267429
706,1.64454093815586e+18,0.38245934248,-9.61051654816,0.696272134781,acc,1.5603398891273724e-06,-2.8406187662770374e-06,,,,,0.19378089621233183,-0.40826759964929293
707,1.64454093815787e+18,0.362846046686,-9.58109664917,0.696272134781,acc,1.4660976855717095e-06,-2.81332255002872e-06,,,,,0.19378245655222096,-0.4082704402680592
708,1.6445409381588193e+18,,,,gyr,1.4660976855717095e-06,-2.81332255002872e-06,-0.00349065847695,0.0,0.0,-0.0,0.19378245655222096,-0.4082704402680592
709,1.64454093815989e+18,0.421685934067,-9.58109664917,0.725692093372,acc,1.720374718374366e-06,-2.9606449490036714e-06,,,,,0.19378392264990651,-0.40827325359060923
710,1.6445409381619e+18,0.402072638273,-9.64974308014,0.735498726368,acc,1.6245947001150026e-06,-2.971819564572013e-06,,,,,0.1937856430246249,-0.4082762142355582
711,1.6445409381638313e+18,,,,gyr,1.6245947001150026e-06,-2.971819564572013e-06,0.0,0.0,0.0,-0.0,0.1937856430246249,-0.4082762142355582
712,1.64454093816392e+18,0.38245934248,-9.62032318115,0.735498726368,acc,1.5603398891273724e-06,-3.0006535955240307e-06,,,,,0.19378726761932502,-0.40827918605512276
713,1.64454093816593e+18,0.402072638273,-9.61051654816,0.764918684959,acc,1.6245947001150026e-06,-3.0906923856867118e-06,,,,,0.19378882795921415,-0.4082821867087183
714,1.64454093816795e+18,0.402072638273,-9.61051654816,0.774725317955,acc,1.640773136766678e-06,-3.1614896639907656e-06,,,,,0.19379045255391428,-0.408285277401104
715,1.6445409381688433e+18,,,,gyr,1.6406901693748521e-06,-3.161532721635556e-06,-0.00523598771542,-0.00523598771542,0.0,2.624295368925508e-05,0.19379045255391428,-0.408285277401104
716,1.64454093816996e+18,0.402072638273,-9.62032318115,0.696272134781,acc,1.624180922415282e-06,-2.812606008153235e-06,,,,,0.19379209324408364,-0.4082884389338256
717,1.64454093817198e+18,0.38245934248,-9.64974308014,0.686465501785,acc,1.5607354376115246e-06,-2.801320078590192e-06,,,,,0.19379371742500606,-0.40829125153983375
718,1.6445409381738552e+18,,,,gyr,1.560759942527729e-06,-2.8013064257110178e-06,0.0,0.00174532923847,0.0,-8.747652975064225e-06,0.19379371742500606,-0.40829125153983375
719,1.64454093817399e+18,0.38245934248,-9.64974308014,0.735498726368,acc,1.54495259941995e-06,-2.971062654147938e-06,,,,,0.1937952781849486,-0.40829405284625947
720,1.64454093817601e+18,0.362846046686,-9.62032318115,0.696272134781,acc,1.4806977384522903e-06,-2.8413388673619896e-06,,,,,0.193796823137548,-0.4082970239089136
721,1.64454093817802e+18,0.402072638273,-9.61051654816,0.686465501785,acc,1.6245947001150026e-06,-2.773698356600126e-06,,,,,0.19379830383528646,-0.40829986524778095
722,1.6445409381788672e+18,,,,gyr,1.6245947001150026e-06,-2.773698356600126e-06,0.0,0.0,0.0,-0.0,0.19379830383528646,-0.40829986524778095
723,1.64454093818004e+18,0.38245934248,-9.62032318115,0.696272134781,acc,1.5603398891273724e-06,-2.8406187662770374e-06,,,,,0.19379992842998658,-0.40830263894613755
724,1.64454093818205e+18,0.38245934248,-9.61051654816,0.666852176189,acc,1.5453461928453765e-06,-2.69444972890998e-06,,,,,0.1938014887698757,-0.4083054795649038
725,1.644540938183877e+18,,,,gyr,1.5453226316478636e-06,-2.694463241813049e-06,-0.00349065847695,-0.00174532923847,0.00174532923847,8.744322886877223e-06,0.1938014887698757,-0.4083054795649038
726,1.64454093818407e+18,0.402072638273,-9.64974308014,0.696272134781,acc,1.6403573037488294e-06,-2.8406187662770374e-06,,,,,0.19380303409250735,-0.4083081740281456
727,1.64454093818608e+18,0.402072638273,-9.62032318115,0.725692093372,acc,1.6245947001150026e-06,-2.932195371143419e-06,,,,,0.1938046744498111,-0.4083110146469119
728,1.6445409381881e+18,0.402072638273,-9.62032318115,0.686465501785,acc,1.640773136766678e-06,-2.801320078590192e-06,,,,,0.19380629904451122,-0.408313946842283
