,field.header.stamp,field.linear_acceleration.x,field.linear_acceleration.y,field.linear_acceleration.z,type,field.angular_velocity.x,field.angular_velocity.y,field.angular_velocity.z
0,1644543030455422163,,,,gyr,0.0296705961227,-0.0471238903701,-0.00523598771542
1,1644543030455924749,,,,gyr,0.0837758034468,-0.00349065847695,0.0261799395084
2,1644543030456295490,0.176519691944,-9.58109664917,-0.470719188452,acc,,,
3,1644543030456473589,,,,gyr,-0.0942477807403,0.0104719754308,0.00523598771542
4,1644543030456928253,,,,gyr,0.0506145469844,-0.0104719754308,0.0558505356312
5,1644543030457428694,,,,gyr,-0.0558505356312,-0.0261799395084,-0.069813169539
6,1644543030457931280,,,,gyr,0.0523598790169,0.0261799395084,0.0226892791688
7,1644543030458312035,0.225552946329,-9.57129001617,-0.470719188452,acc,,,
8,1644543030458434105,,,,gyr,0.0104719754308,-0.0471238903701,0.0174532923847
9,1644543030458982944,,,,gyr,-0.0436332300305,0.0558505356312,0.0349065847695
10,1644543030459437609,,,,gyr,-0.0680678412318,0.0,-0.0139626339078
11,1644543030459938288,,,,gyr,0.0802851468325,-0.0785398185253,-0.0383972451091
12,1644543030460328579,0.245166242123,-9.58109664917,-0.470719188452,acc,,,
13,1644543030460440636,,,,gyr,-0.0645771846175,0.0645771846175,-0.0209439508617
14,1644543030460943460,,,,gyr,0.0785398185253,-0.0471238903701,0.0610865242779
15,1644543030461492300,,,,gyr,-0.106465086341,0.0174532923847,0.0610865242779
16,1644543030461946726,,,,gyr,0.0226892791688,-0.0767944902182,-0.0942477807403
17,1644543030462345123,0.176519691944,-9.58109664917,-0.470719188452,acc,,,
18,1644543030462447405,,,,gyr,0.0069813169539,0.122173048556,-0.0558505356312
19,1644543030464362144,0.196132987738,-9.57129001617,-0.509945809841,acc,,,
20,1644543030466378689,0.264779537916,-9.57129001617,-0.402072638273,acc,,,
21,1644543030468395233,0.176519691944,-9.64974308014,-0.470719188452,acc,,,
22,1644543030470411777,0.166713044047,-9.64974308014,-0.451105892658,acc,,,
23,1644543030472428799,0.225552946329,-9.58109664917,-0.470719188452,acc,,,
24,1644543030474445343,0.245166242123,-9.61051654816,-0.490332484245,acc,,,
25,1644543030476459980,0.245166242123,-9.61051654816,-0.470719188452,acc,,,
26,1644543030478476524,0.196132987738,-9.58109664917,-0.402072638273,acc,,,
27,1644543030480493069,0.225552946329,-9.61051654816,-0.451105892658,acc,,,
28,1644543030482510090,0.264779537916,-9.62032318115,-0.470719188452,acc,,,
29,1644543030482522011,,,,gyr,0.0314159244299,0.00523598771542,0.0523598790169
30,1644543030484526634,0.245166242123,-9.61051654816,-0.421685934067,acc,,,
31,1644543030486543179,0.196132987738,-9.56148338318,-0.470719188452,acc,,,
32,1644543031295015335,,,,gyr,-0.122173048556,-0.0802851468325,-0.0558505356312
33,1644543031295518160,,,,gyr,-0.0680678412318,0.0191986225545,0.0872664600611
34,1644543031297220230,0.245166242123,-9.5222568512,-0.402072638273,acc,,,
35,1644543031297524691,,,,gyr,-0.23212878406,0.0349065847695,0.0069813169539
36,1644543031298527718,,,,gyr,-0.179768905044,-0.0506145469844,-0.00523598771542
37,1644543031299030542,,,,gyr,-0.0837758034468,0.0,0.0593411922455
38,1644543031299579144,,,,gyr,-0.0506145469844,-0.0506145469844,0.0383972451091
39,1644543031300536394,,,,gyr,-0.0925024524331,-0.0349065847695,0.0349065847695
40,1644543031301037073,,,,gyr,-0.0610865242779,0.0349065847695,0.0436332300305
41,1644543031301253319,0.245166242123,-9.66935634613,-0.402072638273,acc,,,
42,1644543031301539660,,,,gyr,-0.111701071262,-0.0942477807403,0.0785398185253
43,1644543031303045750,,,,gyr,-0.193731546402,-0.0104719754308,0.069813169539
44,1644543031303269863,0.402072638273,-9.67916297913,-0.274586200714,acc,,,
45,1644543031303546190,,,,gyr,-0.0872664600611,-0.0314159244299,0.228638127446
46,1644543031304048777,,,,gyr,-0.0977384373546,-0.0139626339078,-0.00349065847695
47,1644543031304597616,,,,gyr,-0.11344639957,-0.104719758034,0.0506145469844
48,1644543031305554628,,,,gyr,-0.165806278586,-0.0104719754308,0.167551606894
49,1644543031307106733,,,,gyr,-0.197222203016,0.0471238903701,0.0383972451091
50,1644543031307302952,0.196132987738,-9.58109664917,-0.549172401428,acc,,,
51,1644543031309319496,0.00980664975941,-9.35554409027,-0.764918684959,acc,,,
52,1644543031311333895,-0.313812792301,-8.99269771576,-1.20621788502,acc,,,
53,1644543031313350677,-0.176519691944,-9.45361042023,-0.735498726368,acc,,,
54,1644543031314634323,,,,gyr,-0.0715584978461,0.0802851468325,-0.104719758034
55,1644543031315369129,0.176519691944,-9.75761604309,-0.402072638273,acc,,,
56,1644543031316092014,,,,gyr,0.0314159244299,-0.0471238903701,0.0471238903701
57,1644543031316594839,,,,gyr,0.0610865242779,0.0593411922455,-0.0383972451091
58,1644543031317385674,0.421685934067,-9.48303031921,-0.402072638273,acc,,,
59,1644543031318100691,,,,gyr,0.0436332300305,-0.00174532923847,0.0610865242779
60,1644543031319103956,,,,gyr,0.0296705961227,0.00523598771542,0.0209439508617
61,1644543031319402456,0.402072638273,-9.61051654816,-0.470719188452,acc,,,
62,1644543031319652557,,,,gyr,-0.0383972451091,-0.0139626339078,-0.111701071262
63,1644543031320609808,,,,gyr,0.00349065847695,0.0802851468325,-0.0471238903701
64,1644543031321419001,0.0784531980753,-9.70858287811,-0.402072638273,acc,,,
65,1644543031321613073,,,,gyr,0.0,0.0383972451091,0.00523598771542
66,1644543031323119164,,,,gyr,0.0191986225545,-0.0785398185253,-0.00523598771542
67,1644543031323435545,0.0392265990376,-9.5222568512,-0.57859236002,acc,,,
68,1644543031323619604,,,,gyr,-0.0296705961227,0.0226892791688,-0.0104719754308
69,1644543031324122429,,,,gyr,0.069813169539,-0.0471238903701,-0.0209439508617
70,1644543031325453997,0.274586200714,-9.56148338318,-0.549172401428,acc,,,
71,1644543031326631546,,,,gyr,-0.0383972451091,-0.0296705961227,0.0174532923847
72,1644543031327180147,,,,gyr,0.0610865242779,0.0,-0.00349065847695
73,1644543031327468395,0.313812792301,-9.66935634613,-0.362846046686,acc,,,
74,1644543031328137398,,,,gyr,0.0645771846175,0.0,0.0349065847695
75,1644543031329140663,,,,gyr,-0.0226892791688,0.104719758034,-0.0296705961227
76,1644543031329487085,0.137293100357,-9.66935634613,-0.402072638273,acc,,,
77,1644543031329689503,,,,gyr,-0.0383972451091,0.0209439508617,0.0296705961227
78,1644543031331503630,0.166713044047,-9.5222568512,-0.558979034424,acc,,,
79,1644543031332653046,,,,gyr,0.069813169539,0.0226892791688,0.0645771846175
80,1644543031333520174,0.294199496508,-9.58109664917,-0.490332484245,acc,,,
81,1644543031333656549,,,,gyr,0.0680678412318,-0.0349065847695,0.0
82,1644543031334707737,,,,gyr,0.0261799395084,-0.0471238903701,0.0174532923847
83,1644543031335536957,0.274586200714,-9.66935634613,-0.421685934067,acc,,,
84,1644543031337216854,,,,gyr,0.0349065847695,-0.162315621972,-0.0104719754308
85,1644543031337553501,0.166713044047,-9.58109664917,-0.490332484245,acc,,,
86,1644543031337671280,,,,gyr,-0.0750491544604,0.104719758034,-0.0523598790169
87,1644543031338172197,,,,gyr,0.0296705961227,0.0139626339078,0.069813169539
88,1644543031338674784,,,,gyr,0.0279252678156,-0.120427720249,-0.0523598790169
89,1644543031339569807,0.176519691944,-9.58109664917,-0.490332484245,acc,,,
90,1644543031339725971,,,,gyr,-0.00872664619237,-0.0837758034468,-0.0349065847695
91,1644543031341183901,,,,gyr,0.0226892791688,-0.0383972451091,-0.0139626339078
92,1644543031341586351,0.245166242123,-9.61051654816,-0.57859236002,acc,,,
93,1644543031341686487,,,,gyr,0.0314159244299,-0.0104719754308,0.0610865242779
94,1644543031342235327,,,,gyr,0.0296705961227,0.069813169539,0.00174532923847
95,1644543031343190432,,,,gyr,-0.0226892791688,0.0296705961227,-0.0942477807403
96,1644543031343603134,0.196132987738,-9.64974308014,-0.470719188452,acc,,,
97,1644543031343693018,,,,gyr,0.0296705961227,0.0139626339078,0.11344639957
98,1644543031344744444,,,,gyr,-0.0471238903701,-0.0209439508617,0.0104719754308
99,1644543031345619678,0.245166242123,-9.64974308014,-0.362846046686,acc,,,
100,1644543031347636223,0.196132987738,-9.56148338318,-0.598205626011,acc,,,
101,1644543031347708225,,,,gyr,0.0680678412318,-0.104719758034,0.0942477807403
102,1644543031348711491,,,,gyr,0.0314159244299,-0.0523598790169,0.183259576559
103,1644543031349652529,0.176519691944,-9.61051654816,-0.509945809841,acc,,,
104,1644543031350718021,,,,gyr,0.0680678412318,-0.0139626339078,-0.0139626339078
105,1644543031351671219,0.245166242123,-9.64974308014,-0.451105892658,acc,,,
106,1644543031352726460,,,,gyr,-0.00872664619237,0.0139626339078,-0.130899697542
107,1644543031353227377,,,,gyr,0.0104719754308,-0.0104719754308,0.171042263508
108,1644543031353687763,0.294199496508,-9.61051654816,-0.421685934067,acc,,,
109,1644543031353729963,,,,gyr,0.0523598790169,-0.0383972451091,-0.0872664600611
110,1644543031354230404,,,,gyr,-0.0139626339078,-0.0296705961227,-0.00174532923847
111,1644543031354781151,,,,gyr,-0.0383972451091,0.102974422276,-0.0209439508617
112,1644543031355235815,,,,gyr,-0.0436332300305,0.0069813169539,-0.00523598771542
113,1644543031355704308,0.264779537916,-9.58109664917,-0.451105892658,acc,,,
114,1644543031355736256,,,,gyr,0.0349065847695,-0.0890117883682,0.0383972451091
115,1644543031356739759,,,,gyr,0.0349065847695,-0.0209439508617,0.137881010771
116,1644543031357720852,0.225552946329,-9.57129001617,-0.451105892658,acc,,,
117,1644543031358245611,,,,gyr,-0.0506145469844,-0.0977384373546,0.0383972451091
118,1644543031358748198,,,,gyr,-0.0139626339078,0.0104719754308,-0.0209439508617
119,1644543031359248877,,,,gyr,-0.0139626339078,0.0349065847695,-0.0383972451091
120,1644543031359737635,0.245166242123,-9.62032318115,-0.490332484245,acc,,,
121,1644543031361257315,,,,gyr,0.0471238903701,-0.0925024524331,0.00523598771542
122,1644543031361754179,0.294199496508,-9.58109664917,-0.451105892658,acc,,,
123,1644543031363263845,,,,gyr,0.0383972451091,-0.0296705961227,-0.0680678412318
124,1644543031363770485,0.245166242123,-9.61051654816,-0.490332484245,acc,,,
125,1644543031364817858,,,,gyr,0.0645771846175,-0.0645771846175,-0.0139626339078
126,1644543031365773201,,,,gyr,0.0349065847695,0.00349065847695,0.0069813169539
127,1644543031365787029,0.166713044047,-9.53206348419,-0.57859236002,acc,,,
128,1644543031367327213,,,,gyr,-0.0174532923847,-0.0139626339078,0.0069813169539
129,1644543031367779732,,,,gyr,-0.0296705961227,-0.00523598771542,-0.0593411922455
130,1644543031367803812,0.196132987738,-9.58109664917,-0.558979034424,acc,,,
131,1644543031368282318,,,,gyr,-0.00174532923847,-0.0226892791688,0.0506145469844
132,1644543031368784904,,,,gyr,0.0174532923847,0.0296705961227,0.0139626339078
133,1644543031369285583,,,,gyr,-0.0174532923847,-0.0279252678156,0.0383972451091
134,1644543031369820356,0.264779537916,-9.56148338318,-0.470719188452,acc,,,
135,1644543031369836092,,,,gyr,0.0174532923847,-0.0139626339078,-0.0069813169539
136,1644543031370288849,,,,gyr,-0.0436332300305,0.0104719754308,-0.0471238903701
137,1644543031370791435,,,,gyr,0.0349065847695,0.00349065847695,0.0645771846175
138,1644543031371294260,,,,gyr,-0.0261799395084,-0.00174532923847,-0.120427720249
139,1644543031371836901,0.245166242123,-9.58109664917,-0.490332484245,acc,,,
140,1644543031372345448,,,,gyr,-0.0959931090474,-0.0506145469844,-0.0610865242779
141,1644543031373300791,,,,gyr,0.0872664600611,-0.00349065847695,0.111701071262
142,1644543031373853207,0.245166242123,-9.62032318115,-0.549172401428,acc,,,
143,1644543031374854803,,,,gyr,0.0349065847695,0.0139626339078,0.0069813169539
144,1644543031375869989,0.264779537916,-9.64974308014,-0.549172401428,acc,,,
145,1644543031376312494,,,,gyr,-0.0104719754308,0.00523598771542,-0.0069813169539
146,1644543031377816439,,,,gyr,-0.0436332300305,0.127409040928,-0.144862323999
147,1644543031377886534,0.274586200714,-9.64974308014,-0.451105892658,acc,,,
148,1644543031379873037,,,,gyr,0.0261799395084,0.0349065847695,0.0680678412318
149,1644543031379903078,0.264779537916,-9.61051654816,-0.470719188452,acc,,,
150,1644543031380325794,,,,gyr,-0.0523598790169,-0.0069813169539,-0.0785398185253
151,1644543031381330729,,,,gyr,-0.0645771846175,-0.00523598771542,0.111701071262
152,1644543031381919622,0.245166242123,-9.61051654816,-0.549172401428,acc,,,
153,1644543031382834673,,,,gyr,-0.0610865242779,0.0296705961227,-0.0523598790169
154,1644543031383337498,,,,gyr,0.0226892791688,-0.069813169539,0.0209439508617
155,1644543031383838177,,,,gyr,0.0261799395084,0.0104719754308,-0.0349065847695
156,1644543031383936167,0.166713044047,-9.58109664917,-0.509945809841,acc,,,
157,1644543031384340525,,,,gyr,-0.0349065847695,0.0,0.0261799395084
158,1644543031384889364,,,,gyr,0.0069813169539,-0.0383972451091,-0.069813169539
159,1644543031385344028,,,,gyr,0.0,-0.0279252678156,0.102974422276
160,1644543031385846615,,,,gyr,0.00523598771542,-0.0471238903701,-0.0436332300305
161,1644543031385952711,0.264779537916,-9.61051654816,-0.509945809841,acc,,,
162,1644543031386349201,,,,gyr,0.0523598790169,0.0610865242779,0.0279252678156
163,1644543031387400627,,,,gyr,0.0418879017234,-0.0349065847695,0.0261799395084
164,1644543031387969255,0.245166242123,-9.61051654816,-0.470719188452,acc,,,
165,1644543031388355732,,,,gyr,0.00174532923847,0.0,0.174532920122
166,1644543031389907598,,,,gyr,-0.0209439508617,-0.0645771846175,-0.0261799395084
167,1644543031389985800,0.225552946329,-9.61051654816,-0.470719188452,acc,,,
168,1644543031391868114,,,,gyr,0.0,0.00523598771542,0.0209439508617
169,1644543031392004490,0.274586200714,-9.61051654816,-0.490332484245,acc,,,
170,1644543031393373966,,,,gyr,-0.0296705961227,0.0209439508617,-0.237364768982
171,1644543031394019127,0.274586200714,-9.58109664917,-0.509945809841,acc,,,
172,1644543031394377470,,,,gyr,0.0436332300305,-0.00872664619237,-0.205948844552
173,1644543031395883322,,,,gyr,0.0104719754308,0.0785398185253,0.00872664619237
174,1644543031396035433,0.274586200714,-9.58109664917,-0.421685934067,acc,,,
175,1644543031396886587,,,,gyr,0.00523598771542,0.0610865242779,0.0925024524331
176,1644543031397435188,,,,gyr,0.0680678412318,-0.115191727877,-0.129154369235
177,1644543031397889853,,,,gyr,-0.0593411922455,0.0645771846175,0.130899697542
178,1644543031398051977,0.245166242123,-9.64974308014,-0.490332484245,acc,,,
179,1644543031398392677,,,,gyr,0.00174532923847,-0.0506145469844,-0.0593411922455
180,1644543031398893118,,,,gyr,0.0104719754308,-0.0279252678156,-0.00174532923847
181,1644543031399395704,,,,gyr,-0.0349065847695,-0.0261799395084,0.0209439508617
182,1644543031399944544,,,,gyr,0.0383972451091,0.0,0.0261799395084
183,1644543031400068521,0.264779537916,-9.66935634613,-0.402072638273,acc,,,
184,1644543031400398970,,,,gyr,-0.0418879017234,-0.0383972451091,-0.0610865242779
185,1644543031401905060,,,,gyr,-0.0593411922455,0.0558505356312,-0.104719758034
186,1644543031402085304,0.225552946329,-9.66935634613,-0.38245934248,acc,,,
187,1644543031402453661,,,,gyr,0.0139626339078,-0.0471238903701,0.0977384373546
188,1644543031403410912,,,,gyr,0.0104719754308,0.0872664600611,0.0750491544604
189,1644543031404101849,0.264779537916,-9.64974308014,-0.421685934067,acc,,,
190,1644543031404962778,,,,gyr,-0.0383972451091,-0.0925024524331,-0.0872664600611
191,1644543031405920029,,,,gyr,0.0349065847695,0.0069813169539,0.130899697542
192,1644543031406118393,0.225552946329,-9.57129001617,-0.470719188452,acc,,,
193,1644543031407926559,,,,gyr,0.0471238903701,-0.0296705961227,0.0785398185253
194,1644543031408134699,0.225552946329,-9.58109664917,-0.470719188452,acc,,,
195,1644543031408929825,,,,gyr,0.0,-0.00174532923847,0.167551606894
196,1644543031409432411,,,,gyr,-0.00174532923847,0.0296705961227,-0.0942477807403
197,1644543031410151482,0.225552946329,-9.61051654816,-0.451105892658,acc,,,
198,1644543031411438942,,,,gyr,0.0139626339078,-0.00523598771542,0.0314159244299
199,1644543031412168026,0.225552946329,-9.58109664917,-0.529559075832,acc,,,
200,1644543031412944794,,,,gyr,0.0,-0.069813169539,0.0069813169539
201,1644543031413447618,,,,gyr,0.0314159244299,0.0209439508617,0.111701071262
202,1644543031413948298,,,,gyr,-0.0558505356312,0.0191986225545,-0.0977384373546
203,1644543031414184570,0.225552946329,-9.62032318115,-0.509945809841,acc,,,
204,1644543031414450884,,,,gyr,0.0610865242779,-0.0436332300305,0.0261799395084
205,1644543031414999485,,,,gyr,-0.141371667385,-0.0436332300305,-0.0104719754308
206,1644543031415454149,,,,gyr,0.0855211317539,-0.101229093969,0.127409040928
207,1644543031415956736,,,,gyr,-0.0209439508617,0.0296705961227,-0.130899697542
208,1644543031416201115,0.245166242123,-9.62032318115,-0.549172401428,acc,,,
209,1644543031416457176,,,,gyr,-0.0383972451091,0.0104719754308,0.109955742955
210,1644543031417508841,,,,gyr,0.0279252678156,0.00872664619237,-0.0558505356312
211,1644543031418217421,0.225552946329,-9.57129001617,-0.686465501785,acc,,,
212,1644543031418466091,,,,gyr,0.0802851468325,-0.123918376863,0.0872664600611
213,1644543031420017719,,,,gyr,-0.0174532923847,0.0436332300305,0.0593411922455
214,1644543031420234203,0.245166242123,-9.58109664917,-0.764918684959,acc,,,
215,1644543031421978474,,,,gyr,-0.0471238903701,-0.0471238903701,0.0383972451091
216,1644543031422250748,0.196132987738,-9.56148338318,-0.686465501785,acc,,,
217,1644543031423484325,,,,gyr,-0.00349065847695,-0.0558505356312,0.226892799139
218,1644543031424267292,0.176519691944,-9.56148338318,-0.57859236002,acc,,,
219,1644543031425490856,,,,gyr,0.0139626339078,0.0471238903701,-0.0785398185253
220,1644543031426283836,0.137293100357,-9.56148338318,-0.470719188452,acc,,,
221,1644543031426494122,,,,gyr,0.0,-0.0645771846175,0.0837758034468
222,1644543031426996708,,,,gyr,-0.0349065847695,0.0506145469844,-0.0750491544604
223,1644543031427999973,,,,gyr,-0.0610865242779,0.11344639957,-0.0209439508617
224,1644543031428300381,0.0784531980753,-9.57129001617,-0.225552946329,acc,,,
225,1644543031428502798,,,,gyr,0.0349065847695,-0.0558505356312,0.0506145469844
226,1644543031429003477,,,,gyr,0.00349065847695,-0.0174532923847,-0.00523598771542
227,1644543031429505825,,,,gyr,-0.0226892791688,0.00523598771542,-0.00174532923847
228,1644543031430054665,,,,gyr,0.0104719754308,0.0523598790169,0.00174532923847
229,1644543031430316925,0.166713044047,-9.56148338318,-0.225552946329,acc,,,
230,1644543031430509329,,,,gyr,-0.0314159244299,0.0104719754308,0.0436332300305
231,1644543031431009769,,,,gyr,-0.0139626339078,0.0925024524331,0.0610865242779
232,1644543031432015181,,,,gyr,-0.0436332300305,0.0610865242779,-0.130899697542
233,1644543031432333469,0.176519691944,-9.57129001617,-0.38245934248,acc,,,
234,1644543031432563782,,,,gyr,-0.0104719754308,-0.0436332300305,0.0959931090474
235,1644543031434350014,0.176519691944,-9.58109664917,-0.57859236002,acc,,,
236,1644543031434524298,,,,gyr,0.0209439508617,0.0383972451091,0.0506145469844
237,1644543031436028242,,,,gyr,0.0104719754308,0.0296705961227,0.0523598790169
238,1644543031436366796,0.166713044047,-9.57129001617,-0.696272134781,acc,,,
239,1644543031437033415,,,,gyr,-0.0296705961227,0.0558505356312,0.00872664619237
240,1644543031438383341,0.12748645246,-9.56148338318,-0.666852176189,acc,,,
241,1644543031439039946,,,,gyr,-0.0610865242779,0.0139626339078,0.0610865242779
242,1644543031439542770,,,,gyr,-0.0139626339078,-0.0226892791688,-0.115191727877
243,1644543031440399647,0.137293100357,-9.56148338318,-0.470719188452,acc,,,
244,1644543031441549301,,,,gyr,-0.0139626339078,0.0645771846175,-0.0750491544604
245,1644543031442051649,,,,gyr,-0.0191986225545,0.0139626339078,0.0349065847695
246,1644543031442416191,0.274586200714,-9.66935634613,-0.402072638273,acc,,,
247,1644543031444432974,0.294199496508,-9.62032318115,-0.362846046686,acc,,,
248,1644543031444561005,,,,gyr,0.0523598790169,-0.0226892791688,-0.00523598771542
249,1644543031446449518,0.225552946329,-9.61051654816,-0.362846046686,acc,,,
250,1644543031446567535,,,,gyr,-0.0890117883682,0.0226892791688,0.0226892791688
251,1644543031448466063,0.196132987738,-9.61051654816,-0.313812792301,acc,,,
252,1644543031448574305,,,,gyr,-0.0191986225545,0.0279252678156,0.0296705961227
253,1644543031450482368,0.274586200714,-9.57129001617,-0.313812792301,acc,,,
254,1644543031451586008,,,,gyr,-0.0069813169539,0.104719758034,-0.0174532923847
255,1644543031452498913,0.196132987738,-9.58109664917,-0.57859236002,acc,,,
256,1644543031452637196,,,,gyr,0.0174532923847,0.0209439508617,-0.00174532923847
257,1644543031454095125,,,,gyr,-0.0471238903701,0.0174532923847,-0.0959931090474
258,1644543031454515696,0.176519691944,-9.56148338318,-0.549172401428,acc,,,
259,1644543031455146551,,,,gyr,-0.0349065847695,-0.0209439508617,0.0104719754308
260,1644543031456534147,0.166713044047,-9.57129001617,-0.362846046686,acc,,,
261,1644543031458110094,,,,gyr,0.0558505356312,-0.00872664619237,-0.0471238903701
262,1644543031458550692,0.137293100357,-9.58109664917,-0.264779537916,acc,,,
263,1644543031459113598,,,,gyr,-0.0104719754308,0.0680678412318,-0.069813169539
264,1644543031459614038,,,,gyr,0.0279252678156,-0.0785398185253,0.0139626339078
265,1644543031460164785,,,,gyr,0.0383972451091,-0.0139626339078,0.0349065847695
266,1644543031460567474,0.137293100357,-9.56148338318,-0.274586200714,acc,,,
267,1644543031460619450,,,,gyr,-0.0349065847695,0.0349065847695,-0.0174532923847
268,1644543031461120129,,,,gyr,-0.0174532923847,0.0069813169539,0.00174532923847
269,1644543031461622477,,,,gyr,-0.0104719754308,-0.0558505356312,0.0558505356312
270,1644543031462123394,,,,gyr,-0.0104719754308,-0.0174532923847,-0.0558505356312
271,1644543031462583780,0.225552946329,-9.61051654816,-0.402072638273,acc,,,
272,1644543031462674141,,,,gyr,0.0436332300305,0.0471238903701,-0.0436332300305
273,1644543031463128567,,,,gyr,-0.0471238903701,-0.0104719754308,-0.0069813169539
274,1644543031463629246,,,,gyr,0.0645771846175,0.0558505356312,-0.0069813169539
275,1644543031464600325,0.176519691944,-9.56148338318,-0.38245934248,acc,,,
276,1644543031464632511,,,,gyr,0.0680678412318,0.0383972451091,0.00349065847695
277,1644543031466138363,,,,gyr,-0.0680678412318,0.144862323999,-0.0296705961227
278,1644543031466616869,0.176519691944,-9.56148338318,-0.362846046686,acc,,,
279,1644543031467692375,,,,gyr,-0.0383972451091,0.00174532923847,0.0349065847695
280,1644543031468633652,0.225552946329,-9.58109664917,-0.402072638273,acc,,,
281,1644543031469650984,,,,gyr,0.0785398185253,-0.00523598771542,-0.0645771846175
282,1644543031470650196,0.137293100357,-9.62032318115,-0.451105892658,acc,,,
283,1644543031471659422,,,,gyr,0.0471238903701,-0.0279252678156,0.0785398185253
284,1644543031472159863,,,,gyr,-0.0523598790169,0.0261799395084,-0.00174532923847
285,1644543031472666740,0.176519691944,-9.64974308014,-0.451105892658,acc,,,
286,1644543031472710609,,,,gyr,0.0261799395084,-0.0349065847695,-0.0610865242779
287,1644543031473665953,,,,gyr,-0.0209439508617,0.0610865242779,0.0226892791688
288,1644543031474683046,0.166713044047,-9.62032318115,-0.421685934067,acc,,,
289,1644543031475219965,,,,gyr,0.0383972451091,-0.0209439508617,0.141371667385
290,1644543031476699591,0.176519691944,-9.64974308014,-0.402072638273,acc,,,
291,1644543031478714466,0.176519691944,-9.62032318115,-0.451105892658,acc,,,
292,1644543031479187012,,,,gyr,-0.0593411922455,-0.0349065847695,0.0610865242779
293,1644543031480732918,0.225552946329,-9.62032318115,-0.421685934067,acc,,,
294,1644543031481193304,,,,gyr,0.0261799395084,-0.0226892791688,-0.0645771846175
295,1644543031482747316,0.166713044047,-9.62032318115,-0.470719188452,acc,,,
296,1644543031484203339,,,,gyr,-0.0471238903701,0.0069813169539,-0.102974422276
297,1644543031484763861,0.225552946329,-9.57129001617,-0.490332484245,acc,,,
298,1644543031485254526,,,,gyr,-0.0279252678156,-0.00174532923847,-0.127409040928
299,1644543031486780405,0.196132987738,-9.61051654816,-0.470719188452,acc,,,
300,1644543031487215042,,,,gyr,0.102974422276,0.0209439508617,-0.115191727877
301,1644543031488218307,,,,gyr,0.0174532923847,-0.167551606894,-0.0593411922455
302,1644543031488797188,0.225552946329,-9.58109664917,-0.421685934067,acc,,,
303,1644543031489724398,,,,gyr,-0.0645771846175,-0.00174532923847,0.129154369235
304,1644543031490272999,,,,gyr,0.0802851468325,0.0209439508617,0.0296705961227
305,1644543031490727425,,,,gyr,-0.00174532923847,0.0383972451091,-0.136135682464
306,1644543031490813732,0.176519691944,-9.58109664917,-0.451105892658,acc,,,
307,1644543031491230249,,,,gyr,-0.0191986225545,-0.0296705961227,0.0680678412318
308,1644543031491730690,,,,gyr,-0.0471238903701,0.0296705961227,-0.0209439508617
309,1644543031492233515,,,,gyr,0.0349065847695,-0.0261799395084,-0.00523598771542
310,1644543031492782116,,,,gyr,0.0296705961227,0.0383972451091,-0.0069813169539
311,1644543031492830038,0.225552946329,-9.61051654816,-0.490332484245,acc,,,
312,1644543031493236780,,,,gyr,-0.0610865242779,-0.0750491544604,-0.0418879017234
313,1644543031493739367,,,,gyr,0.0506145469844,0.0855211317539,0.0418879017234
314,1644543031494240046,,,,gyr,-0.0506145469844,-0.0523598790169,0.0436332300305
315,1644543031494742632,,,,gyr,0.0104719754308,0.0471238903701,-0.0471238903701
316,1644543031494846582,0.225552946329,-9.58109664917,-0.470719188452,acc,,,
317,1644543031496863365,0.225552946329,-9.62032318115,-0.402072638273,acc,,,
318,1644543031497800589,,,,gyr,0.00523598771542,0.0139626339078,-0.0174532923847
319,1644543031498879910,0.264779537916,-9.58109664917,-0.451105892658,acc,,,
320,1644543031500764132,,,,gyr,-0.0610865242779,-0.0715584978461,0.0104719754308
321,1644543031500896454,0.245166242123,-9.58109664917,-0.421685934067,acc,,,
322,1644543031502912760,0.225552946329,-9.58109664917,-0.490332484245,acc,,,
323,1644543031503273487,,,,gyr,0.0069813169539,0.0558505356312,0.0209439508617
324,1644543031503776073,,,,gyr,-0.0471238903701,-0.0296705961227,-0.0942477807403
325,1644543031504929543,0.225552946329,-9.61051654816,-0.421685934067,acc,,,
326,1644543031505782604,,,,gyr,0.0069813169539,-0.0104719754308,-0.0436332300305
327,1644543031506285191,,,,gyr,0.0680678412318,-0.00523598771542,0.0610865242779
328,1644543031506785870,,,,gyr,-0.0872664600611,0.0296705961227,-0.0471238903701
329,1644543031506946087,0.225552946329,-9.62032318115,-0.421685934067,acc,,,
330,1644543031508964539,0.196132987738,-9.58109664917,-0.451105892658,acc,,,
331,1644543031510981083,0.245166242123,-9.62032318115,-0.402072638273,acc,,,
332,1644543031512855530,,,,gyr,0.0,-0.0139626339078,-0.0925024524331
333,1644543031512997866,0.245166242123,-9.64974308014,-0.490332484245,acc,,,
334,1644543031513309956,,,,gyr,-0.0785398185253,0.0436332300305,0.0680678412318
335,1644543031515014410,0.264779537916,-9.62032318115,-0.490332484245,acc,,,
336,1644543031515819311,,,,gyr,0.0226892791688,0.0174532923847,0.162315621972
337,1644543031516822577,,,,gyr,0.0296705961227,0.0139626339078,0.00523598771542
338,1644543031517030716,0.264779537916,-9.62032318115,-0.470719188452,acc,,,
339,1644543031518831015,,,,gyr,-0.0349065847695,0.0872664600611,-0.0558505356312
340,1644543031519047260,0.294199496508,-9.62032318115,-0.421685934067,acc,,,
341,1644543031519331694,,,,gyr,0.0436332300305,-0.0837758034468,0.0645771846175
342,1644543031520837545,,,,gyr,0.0523598790169,0.0104719754308,0.0925024524331
343,1644543031521064043,0.274586200714,-9.58109664917,-0.402072638273,acc,,,
344,1644543031521340370,,,,gyr,-0.0279252678156,0.00523598771542,0.0
345,1644543031521840811,,,,gyr,0.0261799395084,-0.0296705961227,-0.0471238903701
346,1644543031522343397,,,,gyr,-0.0383972451091,0.0785398185253,0.0174532923847
347,1644543031522892237,,,,gyr,0.0436332300305,-0.0383972451091,0.0593411922455
348,1644543031523080587,0.264779537916,-9.61051654816,-0.549172401428,acc,,,
349,1644543031523346901,,,,gyr,-0.0471238903701,0.0872664600611,-0.120427720249
350,1644543031523849249,,,,gyr,-0.0750491544604,-0.0314159244299,0.158824965358
351,1644543031524350166,,,,gyr,0.0296705961227,-0.0523598790169,-0.0785398185253
352,1644543031524852753,,,,gyr,0.0069813169539,0.0471238903701,0.00872664619237
353,1644543031525097132,0.264779537916,-9.62032318115,-0.490332484245,acc,,,
354,1644543031525401354,,,,gyr,0.106465086341,0.0715584978461,0.0785398185253
355,1644543031525856018,,,,gyr,-0.0855211317539,-0.0785398185253,-0.130899697542
356,1644543031527113438,0.245166242123,-9.61051654816,-0.490332484245,acc,,,
357,1644543031527361870,,,,gyr,0.0471238903701,-0.0436332300305,0.0296705961227
358,1644543031529130220,0.225552946329,-9.64974308014,-0.509945809841,acc,,,
359,1644543031529368401,,,,gyr,0.0767944902182,-0.0139626339078,-0.0226892791688
360,1644543031531146765,0.294199496508,-9.58109664917,-0.509945809841,acc,,,
361,1644543031531877756,,,,gyr,-0.0279252678156,0.0523598790169,0.0383972451091
362,1644543031532380342,,,,gyr,0.0349065847695,0.0,0.0209439508617
363,1644543031533163309,0.274586200714,-9.61051654816,-0.529559075832,acc,,,
364,1644543031533383608,,,,gyr,-0.0139626339078,0.0261799395084,-0.0837758034468
365,1644543031534386635,,,,gyr,-0.0191986225545,0.0209439508617,-0.130899697542
366,1644543031535179853,0.274586200714,-9.64974308014,-0.470719188452,acc,,,
367,1644543031535438299,,,,gyr,-0.0506145469844,-0.00523598771542,0.0837758034468
368,1644543031536393404,,,,gyr,-0.0471238903701,0.0855211317539,-0.0261799395084
369,1644543031537198544,0.225552946329,-9.61051654816,-0.451105892658,acc,,,
370,1644543031539214849,0.264779537916,-9.61051654816,-0.509945809841,acc,,,
371,1644543031539405346,,,,gyr,0.0314159244299,-0.0593411922455,0.0942477807403
372,1644543031540911198,,,,gyr,-0.0209439508617,0.0610865242779,-0.0139626339078
373,1644543031541231394,0.245166242123,-9.61051654816,-0.451105892658,acc,,,
374,1644543031542965889,,,,gyr,-0.0610865242779,0.00523598771542,-0.122173048556
375,1644543031543247938,0.264779537916,-9.61051654816,-0.509945809841,acc,,,
376,1644543031544926167,,,,gyr,0.0139626339078,0.00523598771542,-0.150098308921
377,1644543031545264721,0.225552946329,-9.58109664917,-0.490332484245,acc,,,
378,1644543031545474768,,,,gyr,0.0506145469844,0.0436332300305,0.167551606894
379,1644543031546932697,,,,gyr,0.0471238903701,0.0104719754308,-0.00523598771542
380,1644543031547281265,0.225552946329,-9.58109664917,-0.490332484245,acc,,,
381,1644543031547433376,,,,gyr,-0.0349065847695,0.0767944902182,0.0296705961227
382,1644543031549299717,0.225552946329,-9.61051654816,-0.529559075832,acc,,,
383,1644543031549441814,,,,gyr,-0.0680678412318,0.0471238903701,-0.0418879017234
384,1644543031549942732,,,,gyr,0.0139626339078,0.0471238903701,-0.0872664600611
385,1644543031550947666,,,,gyr,0.0174532923847,-0.0104719754308,-0.137881010771
386,1644543031551316261,0.176519691944,-9.58109664917,-0.509945809841,acc,,,
387,1644543031551448584,,,,gyr,-0.00523598771542,0.0610865242779,0.115191727877
388,1644543031551951170,,,,gyr,-0.0383972451091,0.0174532923847,-0.0349065847695
389,1644543031552451611,,,,gyr,0.0139626339078,0.0104719754308,0.0977384373546
390,1644543031553002357,,,,gyr,0.0383972451091,0.0715584978461,-0.0925024524331
391,1644543031553332806,0.225552946329,-9.58109664917,-0.490332484245,acc,,,
392,1644543031553457022,,,,gyr,-0.0523598790169,-0.0139626339078,0.0174532923847
393,1644543031553957462,,,,gyr,0.0837758034468,-0.0139626339078,0.0471238903701
394,1644543031554460287,,,,gyr,-0.0855211317539,0.0104719754308,-0.0558505356312
395,1644543031554960966,,,,gyr,-0.0610865242779,0.130899697542,-0.0104719754308
396,1644543031555349350,0.225552946329,-9.56148338318,-0.529559075832,acc,,,
397,1644543031555511475,,,,gyr,0.0785398185253,-0.0645771846175,0.0593411922455
398,1644543031555966139,,,,gyr,-0.0174532923847,0.0872664600611,-0.104719758034
399,1644543031556466818,,,,gyr,-0.00523598771542,-0.0506145469844,0.0925024524331
400,1644543031557365894,0.196132987738,-9.58109664917,-0.451105892658,acc,,,
401,1644543031557470083,,,,gyr,0.0436332300305,0.0069813169539,0.0
402,1644543031558020830,,,,gyr,-0.0925024524331,0.0593411922455,-0.00349065847695
403,1644543031558976173,,,,gyr,0.0139626339078,-0.0296705961227,-0.0471238903701
404,1644543031559382677,0.176519691944,-9.61051654816,-0.451105892658,acc,,,
405,1644543031560529947,,,,gyr,-0.0436332300305,0.069813169539,0.0104719754308
406,1644543031560984612,,,,gyr,0.111701071262,-0.0296705961227,-0.0139626339078
407,1644543031561398983,0.176519691944,-9.58109664917,-0.451105892658,acc,,,
408,1644543031561485052,,,,gyr,-0.0296705961227,-0.0104719754308,0.0104719754308
409,1644543031563039064,,,,gyr,-0.0296705961227,0.0209439508617,0.0436332300305
410,1644543031563415527,0.176519691944,-9.58109664917,-0.490332484245,acc,,,
411,1644543031563491583,,,,gyr,-0.0191986225545,0.102974422276,-0.0715584978461
412,1644543031564997673,,,,gyr,-0.0645771846175,0.0471238903701,0.0436332300305
413,1644543031565432072,0.176519691944,-9.58109664917,-0.470719188452,acc,,,
414,1644543031566000938,,,,gyr,-0.0349065847695,0.148352980614,-0.0436332300305
415,1644543031567448616,0.196132987738,-9.57129001617,-0.451105892658,acc,,,
416,1644543031567506790,,,,gyr,-0.0279252678156,0.0471238903701,0.111701071262
417,1644543031568057299,,,,gyr,0.0383972451091,-0.00872664619237,-0.0506145469844
418,1644543031568510056,,,,gyr,-0.0436332300305,0.0523598790169,0.00872664619237
419,1644543031569012642,,,,gyr,0.0715584978461,0.00349065847695,0.0349065847695
420,1644543031569465399,0.176519691944,-9.61051654816,-0.421685934067,acc,,,
421,1644543031569515467,,,,gyr,-0.0279252678156,0.0872664600611,-0.11344639957
422,1644543031570015907,,,,gyr,-0.0349065847695,-0.0296705961227,-0.00872664619237
423,1644543031570566654,,,,gyr,0.0785398185253,0.101229093969,0.0523598790169
424,1644543031571019173,,,,gyr,-0.0296705961227,-0.00174532923847,0.0872664600611
425,1644543031571481943,0.166713044047,-9.57129001617,-0.490332484245,acc,,,
426,1644543031571521997,,,,gyr,-0.0471238903701,0.104719758034,0.0296705961227
427,1644543031572024345,,,,gyr,0.0174532923847,0.0436332300305,-0.104719758034
428,1644543031572525263,,,,gyr,0.0349065847695,-0.0209439508617,0.0349065847695
429,1644543031573076010,,,,gyr,0.00349065847695,0.00174532923847,0.0
430,1644543031573498249,0.176519691944,-9.57129001617,-0.490332484245,acc,,,
431,1644543031574533701,,,,gyr,0.00872664619237,0.0349065847695,0.0436332300305
432,1644543031575034380,,,,gyr,-0.0436332300305,0.0942477807403,-0.0436332300305
433,1644543031575514793,0.196132987738,-9.56148338318,-0.490332484245,acc,,,
434,1644543031577043056,,,,gyr,-0.0139626339078,0.0226892791688,-0.0209439508617
435,1644543031577531576,0.196132987738,-9.58109664917,-0.451105892658,acc,,,
436,1644543031578546762,,,,gyr,-0.0296705961227,0.120427720249,-0.0209439508617
437,1644543031579049349,,,,gyr,0.0104719754308,0.00872664619237,0.0349065847695
438,1644543031579548120,0.196132987738,-9.61051654816,-0.421685934067,acc,,,
439,1644543031581558704,,,,gyr,-0.0506145469844,0.0,0.0314159244299
440,1644543031581564665,0.166713044047,-9.58109664917,-0.470719188452,acc,,,
441,1644543031582061291,,,,gyr,0.00523598771542,0.120427720249,-0.0226892791688
442,1644543031582561731,,,,gyr,0.0802851468325,0.00174532923847,0.0523598790169
443,1644543031583110571,,,,gyr,-0.127409040928,0.0506145469844,-0.0104719754308
444,1644543031583565235,,,,gyr,0.0785398185253,0.0191986225545,0.0349065847695
445,1644543031583583355,0.137293100357,-9.57129001617,-0.509945809841,acc,,,
446,1644543031584067822,,,,gyr,-0.0523598790169,0.150098308921,-0.0226892791688
447,1644543031584570408,,,,gyr,0.00174532923847,-0.00872664619237,-0.0174532923847
448,1644543031585071087,,,,gyr,0.0349065847695,0.0383972451091,-0.0209439508617
449,1644543031585599661,0.196132987738,-9.56148338318,-0.451105892658,acc,,,
450,1644543031585619688,,,,gyr,-0.0261799395084,0.0680678412318,0.0349065847695
451,1644543031586576939,,,,gyr,-0.102974422276,0.0785398185253,0.0069813169539
452,1644543031587077618,,,,gyr,0.0593411922455,0.0296705961227,0.0349065847695
453,1644543031587616205,0.176519691944,-9.53206348419,-0.470719188452,acc,,,
454,1644543031588583469,,,,gyr,-0.0977384373546,0.150098308921,-0.158824965358
455,1644543031589632750,0.166713044047,-9.56148338318,-0.451105892658,acc,,,
456,1644543031590089321,,,,gyr,-0.0209439508617,0.0959931090474,-0.0471238903701
457,1644543031591595173,,,,gyr,-0.102974422276,0.0785398185253,-0.0104719754308
458,1644543031591649532,0.176519691944,-9.58109664917,-0.421685934067,acc,,,
459,1644543031593666077,0.176519691944,-9.58109664917,-0.421685934067,acc,,,
460,1644543031594104528,,,,gyr,-0.0925024524331,0.176278248429,-0.0837758034468
461,1644543031594604969,,,,gyr,0.0645771846175,0.0104719754308,0.0349065847695
462,1644543031595107555,,,,gyr,-0.0383972451091,0.0645771846175,0.0139626339078
463,1644543031595682383,0.176519691944,-9.57129001617,-0.490332484245,acc,,,
464,1644543031597114325,,,,gyr,0.0139626339078,0.00523598771542,-0.0174532923847
465,1644543031597616911,,,,gyr,-0.0715584978461,0.0296705961227,0.0523598790169
466,1644543031597698927,0.196132987738,-9.58109664917,-0.402072638273,acc,,,
467,1644543031598165512,,,,gyr,0.0314159244299,0.0471238903701,-0.0069813169539
468,1644543031598620176,,,,gyr,0.0261799395084,0.0436332300305,0.0593411922455
469,1644543031599122763,,,,gyr,-0.00523598771542,0.0785398185253,-0.102974422276
470,1644543031599623442,,,,gyr,-0.0191986225545,0.0,0.0296705961227
471,1644543031599715471,0.245166242123,-9.61051654816,-0.490332484245,acc,,,
472,1644543031600126028,,,,gyr,-0.0139626339078,0.130899697542,-0.0209439508617
473,1644543031600674868,,,,gyr,0.0715584978461,-0.144862323999,0.00872664619237
474,1644543031601129293,,,,gyr,-0.0349065847695,0.197222203016,-0.0418879017234
475,1644543031601632118,,,,gyr,-0.0436332300305,0.00872664619237,0.0593411922455
476,1644543031601732254,0.225552946329,-9.62032318115,-0.470719188452,acc,,,
477,1644543031603183746,,,,gyr,-0.0471238903701,0.0209439508617,0.200712859631
478,1644543031603750706,0.225552946329,-9.58109664917,-0.509945809841,acc,,,
479,1644543031604641914,,,,gyr,0.0279252678156,0.0261799395084,0.11344639957
480,1644543031605767250,0.196132987738,-9.62032318115,-0.451105892658,acc,,,
481,1644543031607150793,,,,gyr,-0.0383972451091,0.0558505356312,-0.0226892791688
482,1644543031607653618,,,,gyr,-0.00872664619237,-0.00872664619237,0.0139626339078
483,1644543031607783794,0.196132987738,-9.61051654816,-0.470719188452,acc,,,
484,1644543031608656883,,,,gyr,0.0436332300305,0.0872664600611,-0.0209439508617
485,1644543031609800339,0.245166242123,-9.61051654816,-0.509945809841,acc,,,
486,1644543031611166000,,,,gyr,-0.0279252678156,-0.0942477807403,-0.0785398185253
487,1644543031611668587,,,,gyr,-0.0139626339078,0.0471238903701,0.118682384491
488,1644543031611816883,0.245166242123,-9.61051654816,-0.509945809841,acc,,,
489,1644543031612169504,,,,gyr,0.0139626339078,-0.00349065847695,0.0104719754308
490,1644543031612671852,,,,gyr,-0.0436332300305,0.0139626339078,-0.0506145469844
491,1644543031613675356,,,,gyr,0.0261799395084,0.0139626339078,-0.115191727877
492,1644543031613833427,0.196132987738,-9.64974308014,-0.529559075832,acc,,,
493,1644543031614678383,,,,gyr,0.0558505356312,-0.0296705961227,0.0715584978461
494,1644543031615729809,,,,gyr,0.0139626339078,0.0069813169539,-0.0279252678156
495,1644543031615850210,0.264779537916,-9.57129001617,-0.470719188452,acc,,,
496,1644543031617690325,,,,gyr,-0.0890117883682,0.0610865242779,0.0436332300305
497,1644543031617868662,0.264779537916,-9.64974308014,-0.421685934067,acc,,,
498,1644543031618693590,,,,gyr,-0.00174532923847,-0.0226892791688,0.0314159244299
499,1644543031619696856,,,,gyr,-0.00523598771542,0.0471238903701,0.0558505356312
500,1644543031619884968,0.264779537916,-9.61051654816,-0.490332484245,acc,,,
501,1644543031620199442,,,,gyr,-0.0069813169539,-0.0785398185253,-0.0209439508617
502,1644543031621901512,0.245166242123,-9.58109664917,-0.490332484245,acc,,,
503,1644543031622708797,,,,gyr,-0.0104719754308,-0.0523598790169,-0.0296705961227
504,1644543031623918295,0.274586200714,-9.64974308014,-0.421685934067,acc,,,
505,1644543031624715328,,,,gyr,-0.0104719754308,-0.0925024524331,-0.0610865242779
506,1644543031625766516,,,,gyr,-0.0383972451091,-0.0785398185253,-0.0139626339078
507,1644543031625934839,0.264779537916,-9.58109664917,-0.421685934067,acc,,,
508,1644543031627727032,,,,gyr,-0.0680678412318,-0.0506145469844,0.0436332300305
509,1644543031627951384,0.264779537916,-9.61051654816,-0.451105892658,acc,,,
510,1644543031629733562,,,,gyr,0.0069813169539,-0.0069813169539,-0.0139626339078
511,1644543031629967690,0.264779537916,-9.61051654816,-0.470719188452,acc,,,
512,1644543031631984472,0.274586200714,-9.58109664917,-0.362846046686,acc,,,
513,1644543031633748531,,,,gyr,0.0,0.0139626339078,0.00174532923847
514,1644543031634001017,0.225552946329,-9.61051654816,-0.421685934067,acc,,,
515,1644543031635254622,,,,gyr,-0.0471238903701,0.0383972451091,0.122173048556
516,1644543031636017561,0.245166242123,-9.62032318115,-0.421685934067,acc,,,
517,1644543031636758566,,,,gyr,-0.0593411922455,0.0261799395084,-0.137881010771
518,1644543031637763739,,,,gyr,-0.0767944902182,-0.0279252678156,-0.00174532923847
519,1644543031638036251,0.225552946329,-9.62032318115,-0.490332484245,acc,,,
520,1644543031638312578,,,,gyr,-0.0104719754308,-0.0226892791688,-0.0174532923847
521,1644543031639770269,,,,gyr,-0.0715584978461,0.101229093969,0.137881010771
522,1644543031640052795,0.225552946329,-9.61051654816,-0.421685934067,acc,,,
523,1644543031640821457,,,,gyr,-0.0383972451091,0.0261799395084,0.0872664600611
524,1644543031642069101,0.196132987738,-9.58109664917,-0.451105892658,acc,,,
525,1644543031642279625,,,,gyr,0.0104719754308,0.0436332300305,0.106465086341
526,1644543031642781973,,,,gyr,0.0558505356312,-0.0418879017234,-0.0296705961227
527,1644543031643330812,,,,gyr,-0.136135682464,0.0872664600611,0.123918376863
528,1644543031643785477,,,,gyr,0.0785398185253,-0.0645771846175,-0.130899697542
529,1644543031644085646,0.166713044047,-9.62032318115,-0.402072638273,acc,,,
530,1644543031644285917,,,,gyr,-0.0872664600611,-0.0104719754308,0.0523598790169
531,1644543031644788504,,,,gyr,0.00523598771542,-0.0471238903701,0.0139626339078
532,1644543031645289421,,,,gyr,-0.00872664619237,0.0680678412318,0.101229093969
533,1644543031645839930,,,,gyr,-0.0139626339078,0.00349065847695,0.0139626339078
534,1644543031646102190,0.176519691944,-9.57129001617,-0.451105892658,acc,,,
535,1644543031646294355,,,,gyr,0.0226892791688,-0.0959931090474,0.0226892791688
536,1644543031646795273,,,,gyr,0.0261799395084,0.0383972451091,-0.00174532923847
537,1644543031647297859,,,,gyr,-0.0645771846175,0.0349065847695,0.0261799395084
538,1644543031647798300,,,,gyr,-0.0523598790169,-0.0523598790169,-0.0296705961227
539,1644543031648118973,0.176519691944,-9.58109664917,-0.470719188452,acc,,,
540,1644543031648349047,,,,gyr,0.0558505356312,0.0593411922455,0.0314159244299
541,1644543031648803711,,,,gyr,-0.0506145469844,-0.0767944902182,0.0959931090474
542,1644543031649806976,,,,gyr,-0.0558505356312,-0.0191986225545,0.127409040928
543,1644543031650135517,0.176519691944,-9.58109664917,-0.490332484245,acc,,,
544,1644543031650307655,,,,gyr,-0.0296705961227,-0.0104719754308,-0.111701071262
545,1644543031650858402,,,,gyr,-0.0209439508617,-0.0104719754308,0.0645771846175
546,1644543031652151823,0.176519691944,-9.57129001617,-0.421685934067,acc,,,
547,1644543031652316093,,,,gyr,-0.00349065847695,0.0645771846175,0.0296705961227
548,1644543031652817011,,,,gyr,-0.00349065847695,0.0104719754308,-0.0523598790169
549,1644543031653821945,,,,gyr,0.00174532923847,-0.00174532923847,0.0750491544604
550,1644543031654170513,0.166713044047,-9.58109664917,-0.470719188452,acc,,,
551,1644543031655325890,,,,gyr,0.0139626339078,0.0,0.0872664600611
552,1644543031655876637,,,,gyr,0.0,-0.0959931090474,0.0785398185253
553,1644543031656187057,0.176519691944,-9.61051654816,-0.509945809841,acc,,,
554,1644543031656831741,,,,gyr,0.0104719754308,0.0436332300305,-0.0506145469844
555,1644543031657835245,,,,gyr,0.0104719754308,-0.00523598771542,0.0418879017234
556,1644543031658203602,0.196132987738,-9.61051654816,-0.451105892658,acc,,,
557,1644543031658385754,,,,gyr,-0.0837758034468,0.0139626339078,0.0349065847695
558,1644543031658840418,,,,gyr,0.0680678412318,0.0383972451091,-0.0069813169539
559,1644543031659341097,,,,gyr,0.00523598771542,-0.0750491544604,-0.0715584978461
560,1644543031659843683,,,,gyr,-0.0209439508617,0.0925024524331,0.0523598790169
561,1644543031660220146,0.196132987738,-9.62032318115,-0.421685934067,acc,,,
562,1644543031660344124,,,,gyr,-0.00174532923847,-0.0610865242779,-0.0558505356312
563,1644543031660895109,,,,gyr,-0.0855211317539,0.0506145469844,-0.0349065847695
564,1644543031661347628,,,,gyr,0.0523598790169,0.069813169539,0.0
565,1644543031661850214,,,,gyr,-0.0174532923847,-0.104719758034,0.0925024524331
566,1644543031662236929,0.176519691944,-9.58109664917,-0.402072638273,acc,,,
567,1644543031662352800,,,,gyr,0.0383972451091,0.0349065847695,0.0383972451091
568,1644543031664253235,0.196132987738,-9.58109664917,-0.490332484245,acc,,,
569,1644543031664359331,,,,gyr,-0.0506145469844,0.0,-0.104719758034
570,1644543031665913343,,,,gyr,0.0069813169539,0.0471238903701,-0.0069813169539
571,1644543031666269779,0.264779537916,-9.61051654816,-0.470719188452,acc,,,
572,1644543031666868687,,,,gyr,-0.0174532923847,0.00872664619237,-0.0349065847695
573,1644543031668286324,0.176519691944,-9.61051654816,-0.451105892658,acc,,,
574,1644543031668420315,,,,gyr,-0.00174532923847,0.0349065847695,0.0
575,1644543031669880390,,,,gyr,-0.00174532923847,0.0645771846175,0.0558505356312
576,1644543031670305014,0.166713044047,-9.58109664917,-0.470719188452,acc,,,
577,1644543031670381069,,,,gyr,0.0,-0.0209439508617,0.0349065847695
578,1644543031670931578,,,,gyr,-0.00174532923847,-0.0925024524331,0.0506145469844
579,1644543031672321558,0.196132987738,-9.58109664917,-0.490332484245,acc,,,
580,1644543031672389746,,,,gyr,0.0471238903701,-0.0261799395084,0.0471238903701
581,1644543031673440933,,,,gyr,0.0471238903701,-0.0436332300305,0.109955742955
582,1644543031673893452,,,,gyr,0.0436332300305,-0.0436332300305,-0.0349065847695
583,1644543031674338102,0.176519691944,-9.56148338318,-0.470719188452,acc,,,
584,1644543031674396038,,,,gyr,-0.0837758034468,0.0471238903701,0.0436332300305
585,1644543031674898624,,,,gyr,-0.0767944902182,0.0174532923847,-0.0349065847695
586,1644543031675399303,,,,gyr,0.0977384373546,-0.0261799395084,-0.0174532923847
587,1644543031675947905,,,,gyr,-0.0523598790169,0.0872664600611,-0.118682384491
588,1644543031676354408,0.196132987738,-9.58109664917,-0.470719188452,acc,,,
589,1644543031676402569,,,,gyr,0.0418879017234,-0.0715584978461,0.218166157603
590,1644543031676905155,,,,gyr,0.0506145469844,0.0104719754308,-0.0523598790169
591,1644543031677407980,,,,gyr,-0.0191986225545,0.0418879017234,-0.0610865242779
592,1644543031677908421,,,,gyr,-0.0139626339078,-0.0610865242779,0.0680678412318
593,1644543031678371191,0.225552946329,-9.61051654816,-0.529559075832,acc,,,
594,1644543031679917097,,,,gyr,0.0506145469844,-0.0837758034468,-0.0279252678156
595,1644543031680389643,0.176519691944,-9.56148338318,-0.490332484245,acc,,,
596,1644543031680417776,,,,gyr,0.0349065847695,0.0261799395084,-0.0471238903701
597,1644543031681923628,,,,gyr,0.122173048556,-0.0261799395084,-0.0104719754308
598,1644543031682406187,0.176519691944,-9.62032318115,-0.529559075832,acc,,,
599,1644543031683475494,,,,gyr,0.0925024524331,-0.0837758034468,-0.00523598771542
600,1644543031683930159,,,,gyr,-0.11344639957,0.0645771846175,0.120427720249
601,1644543031684422970,0.196132987738,-9.61051654816,-0.470719188452,acc,,,
602,1644543031685436010,,,,gyr,0.0226892791688,0.0069813169539,0.0104719754308
603,1644543031685984850,,,,gyr,-0.0139626339078,-0.00174532923847,0.0261799395084
604,1644543031686439514,,,,gyr,-0.0191986225545,0.069813169539,-0.0209439508617
605,1644543031686439514,0.225552946329,-9.61051654816,-0.421685934067,acc,,,
606,1644543031688455820,0.225552946329,-9.62032318115,-0.470719188452,acc,,,
607,1644543031688493967,,,,gyr,-0.00523598771542,0.0104719754308,0.0104719754308
608,1644543031688948393,,,,gyr,0.0523598790169,-0.00349065847695,-0.00349065847695
609,1644543031689451218,,,,gyr,-0.069813169539,0.00174532923847,0.0680678412318
610,1644543031689951658,,,,gyr,0.0296705961227,-0.0174532923847,-0.0837758034468
611,1644543031690454245,,,,gyr,-0.0296705961227,0.0261799395084,0.00872664619237
612,1644543031690472364,0.294199496508,-9.62032318115,-0.509945809841,acc,,,
613,1644543031691003084,,,,gyr,0.0209439508617,-0.0104719754308,0.0785398185253
614,1644543031691457748,,,,gyr,-0.102974422276,0.0296705961227,-0.0139626339078
615,1644543031691960096,,,,gyr,0.101229093969,-0.0104719754308,-0.0209439508617
616,1644543031692461014,,,,gyr,-0.0261799395084,-0.0436332300305,0.0872664600611
617,1644543031692491055,0.225552946329,-9.58109664917,-0.490332484245,acc,,,
618,1644543031693966866,,,,gyr,-0.0069813169539,0.111701071262,0.00872664619237
619,1644543031694507599,0.245166242123,-9.57129001617,-0.470719188452,acc,,,
620,1644543031696021557,,,,gyr,-0.118682384491,-0.0418879017234,0.0610865242779
621,1644543031696524143,0.245166242123,-9.58109664917,-0.549172401428,acc,,,
622,1644543031697981834,,,,gyr,0.0349065847695,-0.0959931090474,-0.104719758034
623,1644543031698540449,0.264779537916,-9.61051654816,-0.421685934067,acc,,,
624,1644543031698985100,,,,gyr,-0.0139626339078,0.0314159244299,0.0104719754308
625,1644543031699988604,,,,gyr,-0.0349065847695,0.0279252678156,-0.0558505356312
626,1644543031700557232,0.264779537916,-9.58109664917,-0.490332484245,acc,,,
627,1644543031701997042,,,,gyr,-0.0383972451091,0.0226892791688,0.0523598790169
628,1644543031702497482,,,,gyr,0.0942477807403,-0.0593411922455,0.0785398185253
629,1644543031702573776,0.264779537916,-9.61051654816,-0.421685934067,acc,,,
630,1644543031703549147,,,,gyr,0.127409040928,0.00349065847695,0.0104719754308
631,1644543031704506159,,,,gyr,0.0436332300305,-0.0610865242779,-0.136135682464
632,1644543031704590321,0.264779537916,-9.61051654816,-0.421685934067,acc,,,
633,1644543031705006838,,,,gyr,-0.0645771846175,0.0,0.127409040928
634,1644543031705509424,,,,gyr,-0.0226892791688,-0.0069813169539,0.0767944902182
635,1644543031706058025,,,,gyr,-0.00872664619237,-0.0139626339078,-0.139626339078
636,1644543031706512690,,,,gyr,0.00349065847695,0.0,0.122173048556
637,1644543031706606865,0.196132987738,-9.61051654816,-0.509945809841,acc,,,
638,1644543031707015276,,,,gyr,-0.0296705961227,-0.0209439508617,0.0523598790169
639,1644543031707516193,,,,gyr,0.00349065847695,-0.0436332300305,0.0209439508617
640,1644543031708018541,,,,gyr,0.0296705961227,0.0,0.0837758034468
641,1644543031708567381,,,,gyr,-0.120427720249,0.0174532923847,-0.0715584978461
642,1644543031708623409,0.225552946329,-9.62032318115,-0.529559075832,acc,,,
643,1644543031709524632,,,,gyr,-0.0296705961227,0.0226892791688,-0.115191727877
644,1644543031710639954,0.196132987738,-9.62032318115,-0.490332484245,acc,,,
645,1644543031712033749,,,,gyr,0.0872664600611,-0.0610865242779,0.0593411922455
646,1644543031712656498,0.196132987738,-9.56148338318,-0.509945809841,acc,,,
647,1644543031713585615,,,,gyr,-0.0610865242779,0.0,-0.148352980614
648,1644543031714040279,,,,gyr,0.0261799395084,0.0,0.0837758034468
649,1644543031714673042,0.12748645246,-9.57129001617,-0.529559075832,acc,,,
650,1644543031715546131,,,,gyr,-0.0925024524331,0.0523598790169,-0.0104719754308
651,1644543031716691732,0.137293100357,-9.61051654816,-0.509945809841,acc,,,
652,1644543031717050076,,,,gyr,-0.00523598771542,0.0279252678156,-0.0436332300305
653,1644543031717552662,,,,gyr,-0.0104719754308,-0.0436332300305,0.0349065847695
654,1644543031718055487,,,,gyr,0.0104719754308,-0.00174532923847,-0.0104719754308
655,1644543031718708277,0.137293100357,-9.57129001617,-0.549172401428,acc,,,
656,1644543031720061779,,,,gyr,-0.0349065847695,0.0139626339078,-0.0104719754308
657,1644543031720564365,,,,gyr,-0.00349065847695,0.00349065847695,-0.0645771846175
658,1644543031720724583,0.12748645246,-9.56148338318,-0.549172401428,acc,,,
659,1644543031721113205,,,,gyr,0.0,-0.00523598771542,0.0436332300305
660,1644543031721567869,,,,gyr,0.0139626339078,-0.0069813169539,0.0558505356312
661,1644543031722068310,,,,gyr,-0.0174532923847,0.0,-0.139626339078
662,1644543031722571135,,,,gyr,0.0593411922455,-0.0261799395084,0.162315621972
663,1644543031722741127,0.0784531980753,-9.5222568512,-0.549172401428,acc,,,
664,1644543031723073721,,,,gyr,-0.0925024524331,0.0785398185253,-0.158824965358
665,1644543031723622322,,,,gyr,0.0558505356312,-0.0279252678156,0.069813169539
666,1644543031724076986,,,,gyr,0.0,0.0523598790169,0.0314159244299
667,1644543031724757910,0.0784531980753,-9.57129001617,-0.509945809841,acc,,,
668,1644543031725582838,,,,gyr,-0.0471238903701,-0.0418879017234,-0.11344639957
669,1644543031726586103,,,,gyr,0.0680678412318,0.0226892791688,0.0523598790169
670,1644543031726774454,0.0980664938688,-9.57129001617,-0.509945809841,acc,,,
671,1644543031728091955,,,,gyr,0.0506145469844,0.0890117883682,-0.0226892791688
672,1644543031728790998,0.137293100357,-9.58109664917,-0.529559075832,acc,,,
673,1644543031730098724,,,,gyr,-0.0226892791688,0.0104719754308,0.0209439508617
674,1644543031730601311,,,,gyr,0.0523598790169,0.0523598790169,-0.0680678412318
675,1644543031730807304,0.12748645246,-9.57129001617,-0.451105892658,acc,,,
676,1644543031731604576,,,,gyr,-0.0261799395084,-0.0383972451091,0.130899697542
677,1644543031732824087,0.12748645246,-9.58109664917,-0.509945809841,acc,,,
678,1644543031733659267,,,,gyr,-0.0261799395084,0.0296705961227,-0.123918376863
679,1644543031734113455,,,,gyr,0.0349065847695,-0.0174532923847,-0.0209439508617
680,1644543031734614372,,,,gyr,0.0436332300305,0.0209439508617,-0.0261799395084
681,1644543031734840631,0.166713044047,-9.61051654816,-0.451105892658,acc,,,
682,1644543031735116959,,,,gyr,0.0209439508617,0.0349065847695,-0.0383972451091
683,1644543031735619545,,,,gyr,0.0104719754308,-0.0296705961227,-0.0785398185253
684,1644543031736168146,,,,gyr,0.0139626339078,0.0680678412318,0.0104719754308
685,1644543031736622810,,,,gyr,0.0610865242779,-0.0593411922455,-0.069813169539
686,1644543031736857176,0.0980664938688,-9.58109664917,-0.509945809841,acc,,,
687,1644543031737123489,,,,gyr,0.0226892791688,0.118682384491,-0.137881010771
688,1644543031737626076,,,,gyr,0.0174532923847,0.0139626339078,0.0139626339078
689,1644543031738128662,,,,gyr,-0.0296705961227,0.0069813169539,0.00872664619237
690,1644543031738873720,0.166713044047,-9.57129001617,-0.402072638273,acc,,,
691,1644543031739132166,,,,gyr,0.0471238903701,-0.0104719754308,0.0837758034468
692,1644543031740638018,,,,gyr,0.00174532923847,0.00174532923847,-0.0174532923847
693,1644543031740890026,0.176519691944,-9.61051654816,-0.402072638273,acc,,,
694,1644543031741641045,,,,gyr,-0.0349065847695,0.0296705961227,-0.0767944902182
695,1644543031742644548,,,,gyr,0.0436332300305,0.0349065847695,0.0349065847695
696,1644543031742906809,0.225552946329,-9.61051654816,-0.421685934067,acc,,,
697,1644543031744650841,,,,gyr,0.0680678412318,0.0610865242779,-0.0418879017234
698,1644543031744923353,0.225552946329,-9.61051654816,-0.402072638273,acc,,,
699,1644543031745153666,,,,gyr,-0.0349065847695,-0.0104719754308,-0.104719758034
700,1644543031745654345,,,,gyr,0.0349065847695,0.0872664600611,0.0104719754308
701,1644543031746939898,0.176519691944,-9.61051654816,-0.451105892658,acc,,,
702,1644543031747662783,,,,gyr,0.0610865242779,-0.0785398185253,0.144862323999
703,1644543031748714209,,,,gyr,0.00174532923847,0.0837758034468,-0.0523598790169
704,1644543031748956442,0.245166242123,-9.58109664917,-0.470719188452,acc,,,
705,1644543031750171900,,,,gyr,-0.0104719754308,-0.0872664600611,-0.0226892791688
706,1644543031750672579,,,,gyr,0.0209439508617,0.0436332300305,-0.0558505356312
707,1644543031750972986,0.264779537916,-9.57129001617,-0.402072638273,acc,,,
708,1644543031751223326,,,,gyr,0.0261799395084,0.0174532923847,-0.0174532923847
709,1644543031751677990,,,,gyr,-0.0139626339078,0.0837758034468,-0.179768905044
710,1644543031752178431,,,,gyr,0.0104719754308,-0.0314159244299,0.0715584978461
711,1644543031752681255,,,,gyr,0.0349065847695,0.0069813169539,-0.0593411922455
712,1644543031752989531,0.274586200714,-9.64974308014,-0.402072638273,acc,,,
713,1644543031753181934,,,,gyr,0.0139626339078,0.0802851468325,0.00872664619237
714,1644543031753732443,,,,gyr,-0.0139626339078,-0.0750491544604,-0.0645771846175
715,1644543031754187107,,,,gyr,0.0349065847695,0.130899697542,-0.0523598790169
716,1644543031754687786,,,,gyr,0.0523598790169,-0.0436332300305,0.0837758034468
717,1644543031755006075,0.529559075832,-9.80665016174,-0.343232750893,acc,,,
718,1644543031755190134,,,,gyr,-0.0174532923847,-0.00523598771542,-0.153588980436
719,1644543031757024765,0.451105892658,-9.67916297913,-0.362846046686,acc,,,
720,1644543031758200169,,,,gyr,0.0139626339078,0.0383972451091,-0.0226892791688
721,1644543031758750677,,,,gyr,0.0436332300305,-0.0349065847695,-0.00349065847695
722,1644543031759041309,0.225552946329,-9.56148338318,-0.490332484245,acc,,,
723,1644543031760709286,,,,gyr,0.0436332300305,0.0436332300305,0.0558505356312
724,1644543031761057615,0.137293100357,-9.66935634613,-0.451105892658,acc,,,
725,1644543031762215137,,,,gyr,0.0767944902182,-0.0837758034468,0.0139626339078
726,1644543031762717724,,,,gyr,-0.0506145469844,0.0174532923847,0.0261799395084
727,1644543031763074160,0.225552946329,-9.61051654816,-0.421685934067,acc,,,
728,1644543031764724255,,,,gyr,-0.0523598790169,-0.0191986225545,0.0959931090474
729,1644543031765090704,0.264779537916,-9.58109664917,-0.470719188452,acc,,,
730,1644543031765227079,,,,gyr,0.0314159244299,-0.0523598790169,-0.0942477807403
731,1644543031765727520,,,,gyr,-0.0069813169539,0.0349065847695,-0.0226892791688
732,1644543031766278267,,,,gyr,0.0558505356312,-0.0349065847695,0.0872664600611
733,1644543031766731024,,,,gyr,-0.069813169539,0.0610865242779,-0.0872664600611
734,1644543031767107487,0.264779537916,-9.67916297913,-0.402072638273,acc,,,
735,1644543031767233610,,,,gyr,0.0890117883682,-0.106465086341,-0.0139626339078
736,1644543031767736197,,,,gyr,-0.150098308921,0.109955742955,0.0610865242779
737,1644543031768236876,,,,gyr,0.0750491544604,-0.101229093969,0.0104719754308
738,1644543031768787622,,,,gyr,0.0383972451091,0.0837758034468,-0.0349065847695
739,1644543031769124031,0.196132987738,-9.62032318115,-0.509945809841,acc,,,
740,1644543031769239902,,,,gyr,-0.0872664600611,-0.0104719754308,0.0523598790169
741,1644543031770245314,,,,gyr,-0.0296705961227,0.0279252678156,0.0314159244299
742,1644543031771140337,0.176519691944,-9.57129001617,-0.470719188452,acc,,,
743,1644543031771296740,,,,gyr,0.0,-0.0785398185253,0.0593411922455
744,1644543031773159027,0.294199496508,-9.58109664917,-0.451105892658,acc,,,
745,1644543031773255110,,,,gyr,-0.0436332300305,0.0418879017234,-0.162315621972
746,1644543031774258375,,,,gyr,0.0349065847695,0.0174532923847,0.0872664600611
747,1644543031774760962,,,,gyr,-0.0104719754308,-0.0226892791688,-0.104719758034
748,1644543031775175571,0.264779537916,-9.64974308014,-0.402072638273,acc,,,
749,1644543031777192116,0.264779537916,-9.61051654816,-0.451105892658,acc,,,
750,1644543031777270317,,,,gyr,-0.00174532923847,0.0191986225545,0.0349065847695
751,1644543031777770758,,,,gyr,-0.0104719754308,0.0715584978461,-0.0750491544604
752,1644543031778273344,,,,gyr,0.0558505356312,-0.0802851468325,-0.00872664619237
753,1644543031779208660,0.245166242123,-9.61051654816,-0.451105892658,acc,,,
754,1644543031779779196,,,,gyr,0.0610865242779,0.0959931090474,0.0296705961227
755,1644543031781225443,0.176519691944,-9.62032318115,-0.451105892658,acc,,,
756,1644543031781331301,,,,gyr,-0.0139626339078,-0.0680678412318,0.0558505356312
757,1644543031781785965,,,,gyr,0.0,0.0802851468325,-0.0174532923847
758,1644543031782288551,,,,gyr,-0.0296705961227,0.0506145469844,0.0523598790169
759,1644543031782789230,,,,gyr,0.0139626339078,-0.0785398185253,-0.104719758034
760,1644543031783241749,0.225552946329,-9.58109664917,-0.451105892658,acc,,,
761,1644543031783291817,,,,gyr,-0.0506145469844,-0.0104719754308,0.0471238903701
762,1644543031783840656,,,,gyr,0.0436332300305,0.0209439508617,-0.0139626339078
763,1644543031784295082,,,,gyr,-0.0174532923847,0.0139626339078,0.0104719754308
764,1644543031784797907,,,,gyr,-0.0209439508617,-0.0139626339078,0.0436332300305
765,1644543031785258293,0.225552946329,-9.57129001617,-0.402072638273,acc,,,
766,1644543031785298347,,,,gyr,0.0,-0.0209439508617,-0.0593411922455
767,1644543031786804199,,,,gyr,-0.0942477807403,-0.0209439508617,0.0209439508617
768,1644543031787274837,0.196132987738,-9.62032318115,-0.451105892658,acc,,,
769,1644543031788310289,,,,gyr,0.0226892791688,0.0191986225545,-0.205948844552
770,1644543031789293528,0.225552946329,-9.58109664917,-0.402072638273,acc,,,
771,1644543031791310072,0.245166242123,-9.58109664917,-0.402072638273,acc,,,
772,1644543031791368246,,,,gyr,-0.0383972451091,-0.069813169539,-0.0296705961227
773,1644543031791822433,,,,gyr,0.0296705961227,0.0139626339078,0.0383972451091
774,1644543031792825937,,,,gyr,0.0069813169539,0.0209439508617,-0.0296705961227
775,1644543031793326378,0.264779537916,-9.62032318115,-0.402072638273,acc,,,
776,1644543031794331789,,,,gyr,0.0506145469844,-0.0261799395084,0.0471238903701
777,1644543031795335054,,,,gyr,-0.00872664619237,-0.00174532923847,0.0139626339078
778,1644543031795342922,0.196132987738,-9.61051654816,-0.451105892658,acc,,,
779,1644543031796386480,,,,gyr,0.0296705961227,0.00349065847695,0.0139626339078
780,1644543031796841145,,,,gyr,-0.0418879017234,0.0104719754308,-0.0506145469844
781,1644543031797343493,,,,gyr,0.0,-0.0279252678156,0.069813169539
782,1644543031797359705,0.137293100357,-9.57129001617,-0.470719188452,acc,,,
783,1644543031797844172,,,,gyr,-0.0261799395084,0.11344639957,-0.0226892791688
784,1644543031798346996,,,,gyr,0.0645771846175,-0.0942477807403,-0.0610865242779
785,1644543031798895597,,,,gyr,-0.0139626339078,0.0523598790169,0.144862323999
786,1644543031799350023,,,,gyr,-0.0523598790169,0.0610865242779,-0.136135682464
787,1644543031799376249,0.166713044047,-9.57129001617,-0.421685934067,acc,,,
788,1644543031799852848,,,,gyr,0.0226892791688,-0.0785398185253,0.0942477807403
789,1644543031800353527,,,,gyr,-0.0069813169539,0.0872664600611,-0.115191727877
790,1644543031800855875,,,,gyr,0.0104719754308,-0.0436332300305,0.102974422276
791,1644543031801394701,0.225552946329,-9.58109664917,-0.451105892658,acc,,,
792,1644543031802361965,,,,gyr,-0.0296705961227,0.00523598771542,0.00174532923847
793,1644543031803411484,0.176519691944,-9.61051654816,-0.421685934067,acc,,,
794,1644543031804871082,,,,gyr,0.0383972451091,-0.0104719754308,-0.0261799395084
795,1644543031805371761,,,,gyr,-0.0279252678156,0.0226892791688,-0.0925024524331
796,1644543031805427790,0.166713044047,-9.61051654816,-0.451105892658,acc,,,
797,1644543031806877613,,,,gyr,-0.0139626339078,0.0383972451091,-0.0610865242779
798,1644543031807444334,0.245166242123,-9.62032318115,-0.38245934248,acc,,,
799,1644543031808383465,,,,gyr,0.0645771846175,-0.0139626339078,0.115191727877
800,1644543031808932304,,,,gyr,0.0296705961227,0.0925024524331,-0.0523598790169
801,1644543031809460878,0.225552946329,-9.61051654816,-0.470719188452,acc,,,
802,1644543031810390234,,,,gyr,0.0209439508617,0.0645771846175,0.00174532923847
803,1644543031811441422,,,,gyr,0.0,0.0436332300305,-0.0802851468325
804,1644543031811477423,0.12748645246,-9.48303031921,-0.558979034424,acc,,,
805,1644543031813401937,,,,gyr,0.0506145469844,-0.0383972451091,-0.115191727877
806,1644543031813494205,-0.0980664938688,-9.35554409027,-0.12748645246,acc,,,
807,1644543031815408468,,,,gyr,-0.0523598790169,0.0506145469844,0.0349065847695
808,1644543031815512657,0.843371868134,-10.0322027206,-0.470719188452,acc,,,
809,1644543031817416906,,,,gyr,0.0471238903701,-0.00349065847695,0.102974422276
810,1644543031817528963,0.558979034424,-9.5222568512,-0.274586200714,acc,,,
811,1644543031819545746,0.264779537916,-9.56148338318,-0.294199496508,acc,,,
812,1644543031819926262,,,,gyr,-0.102974422276,-0.0209439508617,0.0
813,1644543031820426702,,,,gyr,-0.00523598771542,0.0785398185253,0.157079637051
814,1644543031821562290,0.696272134781,-9.99297618866,-0.225552946329,acc,,,
815,1644543031822435379,,,,gyr,-0.0471238903701,-0.0139626339078,0.104719758034
816,1644543031822936058,,,,gyr,-0.0977384373546,-0.0226892791688,0.109955742955
817,1644543031823578835,0.882598459721,-9.86548995972,-0.470719188452,acc,,,
818,1644543031824441910,,,,gyr,-0.0296705961227,-0.0296705961227,0.188495561481
819,1644543031825445175,,,,gyr,-0.0837758034468,-0.0715584978461,0.150098308921
820,1644543031825595140,0.637432217598,-9.62032318115,-0.264779537916,acc,,,
821,1644543031826496601,,,,gyr,-0.218166157603,0.0,0.122173048556
822,1644543031826951027,,,,gyr,-0.0715584978461,-0.104719758034,0.350811183453
823,1644543031827451706,,,,gyr,-0.223402142525,-0.0174532923847,0.179768905044
824,1644543031827611923,0.509945809841,-9.81645679474,-0.362846046686,acc,,,
825,1644543031827954292,,,,gyr,-0.0593411922455,-0.0925024524331,0.310668617487
826,1644543031828457117,,,,gyr,-0.130899697542,-0.0610865242779,0.188495561481
827,1644543031829005718,,,,gyr,-0.136135682464,-0.150098308921,0.305432617664
828,1644543031829460144,,,,gyr,-0.179768905044,-0.0226892791688,0.214675500989
829,1644543031829628468,0.470719188452,-9.83607006073,-0.402072638273,acc,,,
830,1644543031829960823,,,,gyr,-0.162315621972,-0.0610865242779,0.314159274101
831,1644543031830463409,,,,gyr,-0.0680678412318,-0.185004904866,0.237364768982
832,1644543031830965996,,,,gyr,-0.237364768982,-0.0174532923847,0.300196617842
833,1644543031831514835,,,,gyr,-0.069813169539,-0.174532920122,0.275762021542
834,1644543031831645012,0.264779537916,-9.5222568512,-0.402072638273,acc,,,
835,1644543031831969500,,,,gyr,-0.11344639957,-0.0296705961227,0.300196617842
836,1644543031832469940,,,,gyr,-0.209439516068,-0.11344639957,0.349065840244
837,1644543031833475351,,,,gyr,-0.218166157603,-0.0506145469844,0.150098308921
838,1644543031833661556,0.12748645246,-9.57129001617,-0.57859236002,acc,,,
839,1644543031834478617,,,,gyr,-0.25830873847,-0.0837758034468,0.0977384373546
840,1644543031834979296,,,,gyr,-0.11344639957,-0.185004904866,0.357792496681
841,1644543031835677862,-0.0294199492782,-9.66935634613,-0.598205626011,acc,,,
842,1644543031836987734,,,,gyr,-0.185004904866,-0.144862323999,0.336848556995
843,1644543031837488174,,,,gyr,-0.0104719754308,-0.0436332300305,0.130899697542
844,1644543031837694645,-0.225552946329,-9.42419052124,-0.666852176189,acc,,,
845,1644543031837990999,,,,gyr,-0.244346097112,-0.179768905044,0.291469991207
846,1644543031839496851,,,,gyr,-0.127409040928,-0.0209439508617,0.328121900558
847,1644543031839711189,-0.421685934067,-9.25747776031,-0.735498726368,acc,,,
848,1644543031840500355,,,,gyr,-0.129154369235,-0.0104719754308,0.0837758034468
849,1644543031841551542,,,,gyr,-0.0471238903701,0.0471238903701,0.136135682464
850,1644543031841727734,-0.38245934248,-9.53206348419,-0.764918684959,acc,,,
851,1644543031842006207,,,,gyr,-0.0802851468325,-0.0959931090474,0.0645771846175
852,1644543031842506647,,,,gyr,-0.0890117883682,-0.0383972451091,0.0872664600611
853,1644543031843009233,,,,gyr,-0.0296705961227,-0.0349065847695,0.148352980614
854,1644543031843509912,,,,gyr,-0.0226892791688,-0.102974422276,0.144862323999
855,1644543031843744278,-0.402072638273,-9.57129001617,-0.764918684959,acc,,,
856,1644543031844060898,,,,gyr,-0.104719758034,0.0226892791688,0.136135682464
857,1644543031844515085,,,,gyr,0.0436332300305,-0.127409040928,0.0837758034468
858,1644543031845015764,,,,gyr,-0.0715584978461,0.104719758034,0.0977384373546
859,1644543031845518589,,,,gyr,0.0139626339078,-0.0314159244299,0.0104719754308
860,1644543031845760822,-0.402072638273,-9.17902374268,-0.686465501785,acc,,,
861,1644543031846019030,,,,gyr,-0.0593411922455,-0.0261799395084,0.0296705961227
862,1644543031847525120,,,,gyr,-0.0226892791688,0.00872664619237,0.0383972451091
863,1644543031847777367,-0.166713044047,-9.39477062225,-0.686465501785,acc,,,
864,1644543031849079132,,,,gyr,-0.00523598771542,-0.00174532923847,-0.0104719754308
865,1644543031849533796,,,,gyr,0.0,-0.0209439508617,0.0942477807403
866,1644543031849793911,-0.0294199492782,-9.64974308014,-0.598205626011,acc,,,
867,1644543031851037502,,,,gyr,0.00349065847695,-0.00872664619237,-0.0261799395084
868,1644543031851810455,-0.12748645246,-9.43399715424,-0.627625584602,acc,,,
869,1644543031853546619,,,,gyr,-0.0209439508617,-0.0104719754308,0.0436332300305
870,1644543031853827000,-0.12748645246,-9.39477062225,-0.666852176189,acc,,,
871,1644543031854097366,,,,gyr,0.0750491544604,0.0279252678156,-0.0645771846175
872,1644543031854552031,,,,gyr,0.0139626339078,0.0715584978461,-0.0977384373546
873,1644543031855843544,0.0,-9.56148338318,-0.666852176189,acc,,,
874,1644543031857061148,,,,gyr,0.0104719754308,-0.00349065847695,-0.141371667385
875,1644543031857561827,,,,gyr,0.101229093969,0.0296705961227,-0.0296705961227
876,1644543031857860088,-0.0392265990376,-9.57129001617,-0.57859236002,acc,,,
877,1644543031858064413,,,,gyr,-0.0610865242779,0.157079637051,-0.0349065847695
878,1644543031858564854,,,,gyr,0.148352980614,-0.0436332300305,-0.254818081856
879,1644543031859115839,,,,gyr,-0.0261799395084,0.0558505356312,-0.0139626339078
880,1644543031859568357,,,,gyr,0.130899697542,0.0104719754308,-0.157079637051
881,1644543031859878778,0.0686465501785,-9.43399715424,-0.549172401428,acc,,,
882,1644543031860070705,,,,gyr,-0.0436332300305,0.0191986225545,-0.162315621972
883,1644543031860573530,,,,gyr,0.165806278586,0.0750491544604,0.0296705961227
884,1644543031861074209,,,,gyr,-0.0296705961227,0.0610865242779,-0.253072738647
885,1644543031861624718,,,,gyr,0.069813169539,0.0,0.0436332300305
886,1644543031861895323,0.245166242123,-9.64974308014,-0.529559075832,acc,,,
887,1644543031862077475,,,,gyr,0.0069813169539,0.0436332300305,-0.228638127446
888,1644543031863583326,,,,gyr,0.0506145469844,0.0139626339078,-0.0750491544604
889,1644543031863911867,0.294199496508,-9.61051654816,-0.490332484245,acc,,,
890,1644543031865591764,,,,gyr,-0.0349065847695,0.0471238903701,-0.0942477807403
891,1644543031865930319,0.264779537916,-9.58109664917,-0.549172401428,acc,,,
892,1644543031866092443,,,,gyr,0.0645771846175,0.0104719754308,-0.153588980436
893,1644543031867598295,,,,gyr,-0.0296705961227,-0.00349065847695,-0.11344639957
894,1644543031867946863,0.196132987738,-9.57129001617,-0.558979034424,acc,,,
895,1644543031868601799,,,,gyr,0.0610865242779,0.00174532923847,-0.104719758034
896,1644543031869605064,,,,gyr,-0.0872664600611,0.0139626339078,0.0680678412318
897,1644543031869963408,0.264779537916,-9.66935634613,-0.402072638273,acc,,,
898,1644543031870107651,,,,gyr,0.0296705961227,0.0872664600611,-0.153588980436
899,1644543031871979952,0.274586200714,-9.58109664917,-0.57859236002,acc,,,
900,1644543031872113943,,,,gyr,0.069813169539,0.0296705961227,-0.0593411922455
901,1644543031872616768,,,,gyr,0.0436332300305,-0.0314159244299,-0.0610865242779
902,1644543031873119354,,,,gyr,0.0645771846175,0.102974422276,-0.148352980614
903,1644543031873620033,,,,gyr,-0.0209439508617,0.0349065847695,-0.0645771846175
904,1644543031873996496,0.343232750893,-9.61051654816,-0.529559075832,acc,,,
905,1644543031874170542,,,,gyr,0.0314159244299,-0.0977384373546,-0.0680678412318
906,1644543031874623299,,,,gyr,0.115191727877,0.0785398185253,-0.0610865242779
907,1644543031875125885,,,,gyr,0.0139626339078,0.0593411922455,-0.205948844552
908,1644543031875628710,,,,gyr,0.0104719754308,-0.0558505356312,-0.0104719754308
909,1644543031876015186,0.362846046686,-9.66935634613,-0.402072638273,acc,,,
910,1644543031876129150,,,,gyr,0.0349065847695,0.127409040928,-0.0959931090474
911,1644543031876677990,,,,gyr,0.0959931090474,-0.0209439508617,-0.0645771846175
912,1644543031877132654,,,,gyr,-0.0226892791688,0.0383972451091,-0.0471238903701
913,1644543031878031492,0.343232750893,-9.70858287811,-0.402072638273,acc,,,
914,1644543031878638506,,,,gyr,0.0610865242779,-0.00349065847695,-0.0645771846175
915,1644543031880048037,0.343232750893,-9.71838951111,-0.402072638273,acc,,,
916,1644543031880144358,,,,gyr,-0.0296705961227,0.0279252678156,-0.139626339078
917,1644543031880646944,,,,gyr,0.0436332300305,0.0296705961227,0.0296705961227
918,1644543031882064581,0.38245934248,-9.70858287811,-0.402072638273,acc,,,
919,1644543031882653475,,,,gyr,-0.0383972451091,0.102974422276,0.104719758034
920,1644543031883154154,,,,gyr,0.130899697542,-0.148352980614,-0.102974422276
921,1644543031884081364,0.362846046686,-9.66935634613,-0.451105892658,acc,,,
922,1644543031884205341,,,,gyr,0.0680678412318,-0.0645771846175,0.118682384491
923,1644543031886097908,0.294199496508,-9.66935634613,-0.421685934067,acc,,,
924,1644543031886165857,,,,gyr,0.0750491544604,0.0523598790169,-0.0279252678156
925,1644543031886714697,,,,gyr,0.0139626339078,-0.069813169539,0.00174532923847
926,1644543031887671947,,,,gyr,0.069813169539,-0.0785398185253,-0.0069813169539
927,1644543031888114214,0.245166242123,-9.67916297913,-0.490332484245,acc,,,
928,1644543031888172388,,,,gyr,-0.0226892791688,0.0610865242779,-0.0959931090474
929,1644543031888674974,,,,gyr,-0.0471238903701,-0.0104719754308,0.0802851468325
930,1644543031889223576,,,,gyr,0.0069813169539,0.0383972451091,-0.0610865242779
931,1644543031889678240,,,,gyr,0.0226892791688,-0.0296705961227,0.0436332300305
932,1644543031890130758,0.274586200714,-9.62032318115,-0.402072638273,acc,,,
933,1644543031890180826,,,,gyr,-0.0610865242779,0.00523598771542,-0.0139626339078
934,1644543031891184330,,,,gyr,-0.0610865242779,0.0191986225545,0.0785398185253
935,1644543031891732931,,,,gyr,0.0418879017234,-0.0139626339078,-0.0191986225545
936,1644543031892147541,0.274586200714,-9.61051654816,-0.451105892658,acc,,,
937,1644543031893190622,,,,gyr,0.0872664600611,0.0,0.0977384373546
938,1644543031894164085,0.225552946329,-9.66935634613,-0.421685934067,acc,,,
939,1644543031894242287,,,,gyr,-0.123918376863,0.0,0.0383972451091
940,1644543031896180391,0.225552946329,-9.62032318115,-0.402072638273,acc,,,
941,1644543031896751165,,,,gyr,-0.0139626339078,-0.0750491544604,-0.0261799395084
942,1644543031897708416,,,,gyr,-0.0139626339078,-0.129154369235,0.118682384491
943,1644543031898196936,0.176519691944,-9.58109664917,-0.451105892658,acc,,,
944,1644543031898711681,,,,gyr,-0.0349065847695,0.0645771846175,-0.0925024524331
945,1644543031899260521,,,,gyr,0.0174532923847,-0.11344639957,0.123918376863
946,1644543031900213718,0.196132987738,-9.58109664917,-0.402072638273,acc,,,
947,1644543031900217533,,,,gyr,-0.0069813169539,-0.0209439508617,-0.0296705961227
948,1644543031901769638,,,,gyr,-0.0785398185253,0.0715584978461,-0.0750491544604
949,1644543031902224064,,,,gyr,-0.0174532923847,-0.0890117883682,-0.0418879017234
950,1644543031902230263,0.196132987738,-9.61051654816,-0.490332484245,acc,,,
951,1644543031902726889,,,,gyr,0.0349065847695,0.0261799395084,0.214675500989
952,1644543031903227568,,,,gyr,-0.0296705961227,0.0069813169539,-0.102974422276
953,1644543031903729916,,,,gyr,-0.00523598771542,0.0104719754308,0.0
954,1644543031904246807,0.176519691944,-9.57129001617,-0.490332484245,acc,,,
955,1644543031904278755,,,,gyr,0.0,-0.0349065847695,0.0104719754308
956,1644543031904733419,,,,gyr,0.0349065847695,0.0191986225545,-0.0383972451091
957,1644543031905236006,,,,gyr,-0.0174532923847,-0.00349065847695,0.0925024524331
958,1644543031905736685,,,,gyr,-0.0593411922455,-0.0069813169539,-0.0785398185253
959,1644543031906239271,,,,gyr,0.0314159244299,0.0296705961227,-0.0069813169539
960,1644543031906265497,0.196132987738,-9.61051654816,-0.402072638273,acc,,,
961,1644543031908245802,,,,gyr,0.0,0.0383972451091,-0.0209439508617
962,1644543031908281803,0.196132987738,-9.58109664917,-0.451105892658,acc,,,
963,1644543031908748627,,,,gyr,-0.0593411922455,-0.0436332300305,0.0139626339078
964,1644543031910296440,0.176519691944,-9.58109664917,-0.402072638273,acc,,,
965,1644543031910754919,,,,gyr,0.0436332300305,-0.0925024524331,0.0471238903701
966,1644543031911806345,,,,gyr,0.0680678412318,0.0226892791688,-0.0436332300305
967,1644543031912260771,,,,gyr,-0.0104719754308,-0.0645771846175,0.0349065847695
968,1644543031912312984,0.176519691944,-9.57129001617,-0.490332484245,acc,,,
969,1644543031913766861,,,,gyr,0.0,0.00523598771542,-0.069813169539
970,1644543031914329529,0.176519691944,-9.58109664917,-0.490332484245,acc,,,
971,1644543031914770126,,,,gyr,-0.0645771846175,-0.00174532923847,0.0872664600611
972,1644543031915272713,,,,gyr,0.00523598771542,-0.0436332300305,-0.11344639957
973,1644543031916345835,0.12748645246,-9.61051654816,-0.451105892658,acc,,,
974,1644543031918282509,,,,gyr,0.0139626339078,-0.0436332300305,-0.104719758034
975,1644543031918364525,0.0980664938688,-9.58109664917,-0.470719188452,acc,,,
976,1644543031918785095,,,,gyr,-0.0593411922455,0.0383972451091,-0.0296705961227
977,1644543031919333696,,,,gyr,0.0645771846175,0.00174532923847,0.0645771846175
978,1644543031919788361,,,,gyr,-0.0680678412318,0.0506145469844,-0.0383972451091
979,1644543031920290947,,,,gyr,0.0296705961227,0.0349065847695,0.00174532923847
980,1644543031920379162,0.137293100357,-9.62032318115,-0.490332484245,acc,,,
981,1644543031920791864,,,,gyr,0.0104719754308,-0.0837758034468,-0.0296705961227
982,1644543031921294212,,,,gyr,0.0349065847695,0.0209439508617,0.0174532923847
983,1644543031921843052,,,,gyr,-0.0558505356312,0.0418879017234,-0.0296705961227
984,1644543031922297716,,,,gyr,0.0680678412318,-0.0558505356312,-0.127409040928
985,1644543031922397614,0.12748645246,-9.58109664917,-0.421685934067,acc,,,
986,1644543031923803568,,,,gyr,0.0383972451091,-0.00174532923847,-0.0872664600611
987,1644543031924414396,0.166713044047,-9.57129001617,-0.470719188452,acc,,,
988,1644543031924806595,,,,gyr,-0.0139626339078,0.0645771846175,0.0296705961227
989,1644543031925307274,,,,gyr,-0.0209439508617,0.0191986225545,-0.0785398185253
990,1644543031926430702,0.137293100357,-9.61051654816,-0.451105892658,acc,,,
991,1644543031927315950,,,,gyr,0.0436332300305,0.0279252678156,-0.00523598771542
992,1644543031928318977,,,,gyr,-0.0523598790169,-0.0209439508617,-0.104719758034
993,1644543031928447247,0.0980664938688,-9.56148338318,-0.451105892658,acc,,,
994,1644543031929825068,,,,gyr,-0.0296705961227,0.0855211317539,-0.0383972451091
995,1644543031930463791,0.176519691944,-9.57129001617,-0.470719188452,acc,,,
996,1644543031930828333,,,,gyr,-0.0750491544604,0.111701071262,-0.0471238903701
997,1644543031931331158,,,,gyr,0.0680678412318,-0.0593411922455,0.0959931090474
998,1644543031931879520,,,,gyr,-0.0104719754308,0.0261799395084,-0.0645771846175
999,1644543031932480574,0.264779537916,-9.62032318115,-0.451105892658,acc,,,
1000,1644543031934496880,0.313812792301,-9.62032318115,-0.421685934067,acc,,,
1001,1644543031936513424,0.313812792301,-9.62032318115,-0.38245934248,acc,,,
1002,1644543031937352657,,,,gyr,-0.00872664619237,-0.0523598790169,0.0296705961227
1003,1644543031938355684,,,,gyr,-0.0296705961227,0.0139626339078,0.226892799139
1004,1644543031938529968,0.313812792301,-9.64974308014,-0.38245934248,acc,,,
1005,1644543031940546513,0.402072638273,-9.71838951111,-0.362846046686,acc,,,
1006,1644543031940865040,,,,gyr,-0.0104719754308,-0.00174532923847,0.118682384491
1007,1644543031942370892,,,,gyr,-0.0226892791688,-0.0383972451091,0.11344639957
1008,1644543031942563295,0.402072638273,-9.67916297913,-0.402072638273,acc,,,
1009,1644543031944579601,0.451105892658,-9.70858287811,-0.362846046686,acc,,,
1010,1644543031944880009,,,,gyr,-0.122173048556,-0.069813169539,0.127409040928
1011,1644543031945380688,,,,gyr,-0.0209439508617,-0.0383972451091,0.102974422276
1012,1644543031945883274,,,,gyr,-0.0104719754308,-0.0069813169539,0.11344639957
1013,1644543031946594238,0.490332484245,-9.71838951111,-0.313812792301,acc,,,
1014,1644543031948392630,,,,gyr,-0.0349065847695,0.0715584978461,0.115191727877
1015,1644543031948610783,0.421685934067,-9.67916297913,-0.402072638273,acc,,,
1016,1644543031948893070,,,,gyr,-0.0837758034468,-0.0785398185253,0.191986218095
1017,1644543031949443817,,,,gyr,-0.127409040928,-0.0296705961227,0.150098308921
1018,1644543031949898481,,,,gyr,-0.0418879017234,-0.0436332300305,0.0925024524331
1019,1644543031950398922,,,,gyr,-0.137881010771,-0.0209439508617,0.296705961227
1020,1644543031950627327,0.451105892658,-9.70858287811,-0.343232750893,acc,,,
1021,1644543031950901508,,,,gyr,-0.0226892791688,-0.0680678412318,0.0959931090474
1022,1644543031951402426,,,,gyr,-0.0645771846175,-0.0715584978461,0.0471238903701
1023,1644543031951952934,,,,gyr,-0.150098308921,-0.0104719754308,0.291469991207
1024,1644543031952407360,,,,gyr,-0.0872664600611,-0.0261799395084,0.102974422276
1025,1644543031952643871,0.421685934067,-9.7478094101,-0.402072638273,acc,,,
1026,1644543031952908278,,,,gyr,-0.0383972451091,-0.0436332300305,0.324631243944
1027,1644543031953410864,,,,gyr,-0.167551606894,0.0349065847695,0.136135682464
1028,1644543031954660416,0.421685934067,-9.70858287811,-0.294199496508,acc,,,
1029,1644543031954916716,,,,gyr,0.00872664619237,-0.0226892791688,0.270526021719
1030,1644543031955417395,,,,gyr,-0.21991148591,-0.0436332300305,0.275762021542
1031,1644543031956676960,0.402072638273,-9.71838951111,-0.294199496508,acc,,,
1032,1644543031957426071,,,,gyr,-0.118682384491,-0.0349065847695,0.317649930716
1033,1644543031958429098,,,,gyr,-0.115191727877,-0.0645771846175,0.42760565877
1034,1644543031958693504,0.421685934067,-9.75761604309,-0.38245934248,acc,,,
1035,1644543031958929777,,,,gyr,-0.11344639957,-0.0872664600611,0.130899697542
1036,1644543031959480524,,,,gyr,-0.130899697542,-0.106465086341,0.333357870579
1037,1644543031960710049,0.402072638273,-9.67916297913,-0.362846046686,acc,,,
1038,1644543031961438894,,,,gyr,-0.158824965358,-0.0296705961227,0.315904587507
1039,1644543031962444305,,,,gyr,-0.150098308921,-0.0890117883682,0.179768905044
1040,1644543031962726593,0.362846046686,-9.62032318115,-0.402072638273,acc,,,
1041,1644543031963948250,,,,gyr,-0.23212878406,-0.127409040928,0.445058941841
1042,1644543031964498758,,,,gyr,-0.0785398185253,-0.0069813169539,0.228638127446
1043,1644543031964743137,0.245166242123,-9.66935634613,-0.490332484245,acc,,,
1044,1644543031964951515,,,,gyr,-0.188495561481,-0.106465086341,0.335103213787
1045,1644543031965454102,,,,gyr,-0.188495561481,-0.176278248429,0.253072738647
1046,1644543031965956688,,,,gyr,-0.069813169539,-0.0104719754308,0.411897689104
1047,1644543031966457367,,,,gyr,-0.249582082033,-0.130899697542,0.371755123138
1048,1644543031966759682,0.245166242123,-9.66935634613,-0.451105892658,acc,,,
1049,1644543031967008114,,,,gyr,-0.148352980614,0.0436332300305,0.254818081856
1050,1644543031967460632,,,,gyr,-0.0942477807403,-0.150098308921,0.415388345718
1051,1644543031967963219,,,,gyr,-0.308923274279,-0.0349065847695,0.363028466702
1052,1644543031968465805,,,,gyr,-0.0349065847695,-0.144862323999,0.300196617842
1053,1644543031968776226,0.176519691944,-9.58109664917,-0.402072638273,acc,,,
1054,1644543031968966484,,,,gyr,-0.214675500989,0.0209439508617,0.361283153296
1055,1644543031969516993,,,,gyr,-0.162315621972,-0.167551606894,0.403171062469
1056,1644543031970792770,0.12748645246,-9.61051654816,-0.421685934067,acc,,,
1057,1644543031971475601,,,,gyr,-0.0890117883682,-0.0296705961227,0.38397243619
1058,1644543031972026348,,,,gyr,-0.185004904866,-0.106465086341,0.174532920122
1059,1644543031972807407,0.0686465501785,-9.57129001617,-0.509945809841,acc,,,
1060,1644543031972981453,,,,gyr,-0.157079637051,-0.123918376863,0.30194196105
1061,1644543031974533558,,,,gyr,-0.197222203016,-0.0261799395084,0.467748224735
1062,1644543031974823952,0.0392265990376,-9.56148338318,-0.529559075832,acc,,,
1063,1644543031974987984,,,,gyr,-0.130899697542,-0.0104719754308,0.328121900558
1064,1644543031975993395,,,,gyr,-0.158824965358,-0.0436332300305,0.397935062647
1065,1644543031976840258,-0.0294199492782,-9.53206348419,-0.549172401428,acc,,,
1066,1644543031977497339,,,,gyr,-0.130899697542,0.0,0.352556496859
1067,1644543031978857040,-0.0686465501785,-9.57129001617,-0.57859236002,acc,,,
1068,1644543031979003191,,,,gyr,-0.115191727877,-0.0418879017234,0.392699092627
1069,1644543031979551792,,,,gyr,-0.118682384491,-0.0645771846175,0.336848556995
1070,1644543031980006456,,,,gyr,-0.171042263508,0.0139626339078,0.291469991207
1071,1644543031980509043,,,,gyr,-0.130899697542,-0.0680678412318,0.153588980436
1072,1644543031980871677,-1.39254426956,-8.42391204834,-1.86326348782,acc,,,
1073,1644543031981011629,,,,gyr,0.0436332300305,-0.00174532923847,0.226892799139
1074,1644543031981512308,,,,gyr,0.118682384491,0.0680678412318,0.0174532923847
1075,1644543031982061148,,,,gyr,-0.0837758034468,0.0645771846175,0.0296705961227
1076,1644543031982515574,,,,gyr,-0.0715584978461,0.0104719754308,-0.102974422276
1077,1644543031982890129,-2.02997660637,-8.45333194733,0.0980664938688,acc,,,
1078,1644543031983018398,,,,gyr,0.0558505356312,0.132645025849,-0.0104719754308
1079,1644543031983518839,,,,gyr,-0.0296705961227,-0.0593411922455,-0.0872664600611
1080,1644543031984021425,,,,gyr,0.0226892791688,0.139626339078,0.0506145469844
1081,1644543031984906435,0.166713044047,-11.0128679276,-0.961051702499,acc,,,
1082,1644543031985024691,,,,gyr,0.0506145469844,0.0872664600611,-0.0069813169539
1083,1644543031986922979,0.0294199492782,-8.62985134125,-0.313812792301,acc,,,
1084,1644543031987079382,,,,gyr,0.0837758034468,0.00349065847695,0.0802851468325
1085,1644543031987534046,,,,gyr,-0.0750491544604,0.137881010771,-0.0296705961227
1086,1644543031988939762,0.990471601486,-9.53206348419,-0.666852176189,acc,,,
1087,1644543031989039898,,,,gyr,0.0139626339078,0.00174532923847,-0.200712859631
1088,1644543031990545750,,,,gyr,-0.0314159244299,0.115191727877,0.00872664619237
1089,1644543031990956306,-0.176519691944,-10.3165950775,-0.245166242123,acc,,,
1090,1644543031991046429,,,,gyr,-0.0104719754308,0.0226892791688,0.127409040928
1091,1644543031992552280,,,,gyr,0.00523598771542,0.193731546402,0.0471238903701
1092,1644543031992972851,-0.882598459721,-8.95347118378,-0.490332484245,acc,,,
1093,1644543031993054867,,,,gyr,-0.0226892791688,0.144862323999,0.0139626339078
1094,1644543031994989157,0.833565235138,-9.81645679474,-0.558979034424,acc,,,
1095,1644543031995563984,,,,gyr,-0.0226892791688,0.240855440497,-0.144862323999
1096,1644543031996064663,,,,gyr,0.0977384373546,0.165806278586,0.153588980436
1097,1644543031997005939,0.38245934248,-9.88510322571,-0.451105892658,acc,,,
1098,1644543031999022484,0.137293100357,-9.42419052124,-0.509945809841,acc,,,
1099,1644543031999076366,,,,gyr,0.0383972451091,0.237364768982,-0.0523598790169
1100,1644543032001039028,-0.0392265990376,-9.61051654816,-0.735498726368,acc,,,
1101,1644543032001082897,,,,gyr,-0.0436332300305,0.211184844375,0.0
1102,1644543032002134323,,,,gyr,-0.0261799395084,0.197222203016,0.0645771846175
1103,1644543032002588749,,,,gyr,0.0209439508617,0.130899697542,-0.0104719754308
1104,1644543032003055334,-0.196132987738,-9.64974308014,-0.470719188452,acc,,,
1105,1644543032003592253,,,,gyr,0.0104719754308,0.287979334593,0.0802851468325
1106,1644543032004643440,,,,gyr,0.0610865242779,0.141371667385,0.0645771846175
1107,1644543032005072117,0.343232750893,-9.53206348419,-0.529559075832,acc,,,
1108,1644543032005098104,,,,gyr,0.00174532923847,0.205948844552,-0.0610865242779
1109,1644543032006603956,,,,gyr,0.0471238903701,0.101229093969,-0.0872664600611
1110,1644543032007090569,0.274586200714,-9.58109664917,-0.549172401428,acc,,,
1111,1644543032007607222,,,,gyr,0.0680678412318,0.0959931090474,0.129154369235
1112,1644543032008109808,,,,gyr,0.0296705961227,0.162315621972,-0.0261799395084
1113,1644543032009105206,-0.0980664938688,-9.64974308014,-0.637432217598,acc,,,
1114,1644543032009113312,,,,gyr,0.0,0.202458187938,-0.0715584978461
1115,1644543032009661913,,,,gyr,0.0296705961227,0.127409040928,0.162315621972
1116,1644543032010116339,,,,gyr,-0.0436332300305,0.223402142525,-0.123918376863
1117,1644543032010619164,,,,gyr,0.0506145469844,0.226892799139,0.0837758034468
1118,1644543032011119604,,,,gyr,0.0209439508617,0.0436332300305,0.0645771846175
1119,1644543032011123896,0.225552946329,-9.58109664917,-0.558979034424,acc,,,
1120,1644543032011622429,,,,gyr,-0.0767944902182,0.130899697542,-0.00872664619237
1121,1644543032012171030,,,,gyr,0.102974422276,0.291469991207,-0.0872664600611
1122,1644543032012625694,,,,gyr,-0.00872664619237,0.0977384373546,0.104719758034
1123,1644543032013128281,,,,gyr,-0.0104719754308,0.240855440497,0.069813169539
1124,1644543032013140440,0.38245934248,-9.61051654816,-0.666852176189,acc,,,
1125,1644543032013628960,,,,gyr,0.0069813169539,0.228638127446,-0.0802851468325
1126,1644543032014131546,,,,gyr,0.0349065847695,0.122173048556,0.104719758034
1127,1644543032014680147,,,,gyr,0.0104719754308,0.214675500989,-0.0069813169539
1128,1644543032015134811,,,,gyr,0.0471238903701,0.188495561481,0.0802851468325
1129,1644543032015154839,-0.0294199492782,-9.62032318115,-0.402072638273,acc,,,
1130,1644543032015635490,,,,gyr,-0.0209439508617,0.244346097112,-0.0558505356312
1131,1644543032016137838,,,,gyr,-0.0610865242779,0.167551606894,0.0872664600611
1132,1644543032017173290,0.176519691944,-9.66935634613,-0.598205626011,acc,,,
1133,1644543032017643929,,,,gyr,0.0523598790169,0.144862323999,-0.0523598790169
1134,1644543032018647194,,,,gyr,-0.0261799395084,0.179768905044,-0.00872664619237
1135,1644543032019150019,,,,gyr,0.0349065847695,0.0680678412318,0.157079637051
1136,1644543032019189835,0.166713044047,-9.57129001617,-0.627625584602,acc,,,
1137,1644543032020655870,,,,gyr,0.0436332300305,0.179768905044,0.130899697542
1138,1644543032021156549,,,,gyr,0.0226892791688,0.0785398185253,-0.0872664600611
1139,1644543032021204233,0.00980664975941,-9.66935634613,-0.696272134781,acc,,,
1140,1644543032022207737,,,,gyr,-0.0436332300305,0.254818081856,0.0174532923847
1141,1644543032023162842,,,,gyr,0.0523598790169,0.153588980436,-0.00872664619237
1142,1644543032023222923,0.0980664938688,-9.56148338318,-0.637432217598,acc,,,
1143,1644543032024168253,,,,gyr,0.0296705961227,0.176278248429,0.0104719754308
1144,1644543032025171280,,,,gyr,0.0261799395084,0.0558505356312,0.0645771846175
1145,1644543032025239468,0.225552946329,-9.64974308014,-0.696272134781,acc,,,
1146,1644543032025672197,,,,gyr,-0.0209439508617,0.157079637051,-0.0645771846175
1147,1644543032027225971,,,,gyr,-0.0645771846175,0.237364768982,0.0296705961227
1148,1644543032027256012,0.0686465501785,-9.62032318115,-0.558979034424,acc,,,
1149,1644543032029186487,,,,gyr,0.00523598771542,0.123918376863,-0.104719758034
1150,1644543032029272795,0.176519691944,-9.61051654816,-0.686465501785,acc,,,
1151,1644543032031193018,,,,gyr,-0.0279252678156,0.0785398185253,-0.0296705961227
1152,1644543032031289101,0.137293100357,-9.58109664917,-0.549172401428,acc,,,
1153,1644543032032698870,,,,gyr,-0.0296705961227,0.137881010771,-0.0610865242779
1154,1644543032033305645,0.137293100357,-9.64974308014,-0.558979034424,acc,,,
1155,1644543032034204721,,,,gyr,-0.0209439508617,-0.0139626339078,0.0977384373546
1156,1644543032034753561,,,,gyr,0.0645771846175,0.0855211317539,-0.0104719754308
1157,1644543032035322189,0.0784531980753,-9.56148338318,-0.637432217598,acc,,,
1158,1644543032035708666,,,,gyr,0.0680678412318,0.0349065847695,0.0069813169539
1159,1644543032036211491,,,,gyr,-0.0436332300305,0.0837758034468,0.0872664600611
1160,1644543032037338972,0.0784531980753,-9.53206348419,-0.666852176189,acc,,,
1161,1644543032037717342,,,,gyr,-0.0558505356312,0.0261799395084,-0.139626339078
1162,1644543032038720369,,,,gyr,0.0314159244299,-0.0104719754308,-0.0593411922455
1163,1644543032039355516,0.137293100357,-9.61051654816,-0.549172401428,acc,,,
1164,1644543032039772034,,,,gyr,-0.0069813169539,-0.0296705961227,0.153588980436
1165,1644543032040727139,,,,gyr,-0.0349065847695,0.0436332300305,0.0523598790169
1166,1644543032041229725,,,,gyr,-0.0069813169539,0.0383972451091,-0.0296705961227
1167,1644543032041371822,0.0784531980753,-9.58109664917,-0.549172401428,acc,,,
1168,1644543032041732311,,,,gyr,0.0593411922455,-0.0610865242779,0.0436332300305
1169,1644543032042280912,,,,gyr,-0.0349065847695,0.069813169539,0.0436332300305
1170,1644543032042735577,,,,gyr,0.0349065847695,0.0,-0.185004904866
1171,1644543032043236256,,,,gyr,0.0471238903701,0.0383972451091,0.179768905044
1172,1644543032043388367,0.0392265990376,-9.57129001617,-0.598205626011,acc,,,
1173,1644543032043739080,,,,gyr,-0.0855211317539,0.0191986225545,-0.0523598790169
1174,1644543032044239521,,,,gyr,0.0139626339078,0.0209439508617,-0.0296705961227
1175,1644543032044790268,,,,gyr,0.0349065847695,-0.0104719754308,0.0715584978461
1176,1644543032045244932,,,,gyr,-0.0349065847695,0.0279252678156,0.00872664619237
1177,1644543032045404911,0.0392265990376,-9.57129001617,-0.470719188452,acc,,,
1178,1644543032045745373,,,,gyr,-0.0139626339078,0.0349065847695,-0.0104719754308
1179,1644543032046247959,,,,gyr,0.0471238903701,0.0139626339078,-0.0104719754308
1180,1644543032046748877,,,,gyr,-0.0261799395084,0.0471238903701,0.0139626339078
1181,1644543032047299385,,,,gyr,0.0174532923847,0.0558505356312,0.069813169539
1182,1644543032047421694,0.0980664938688,-9.61051654816,-0.598205626011,acc,,,
1183,1644543032047753811,,,,gyr,0.0139626339078,-0.0715584978461,-0.0645771846175
1184,1644543032049257755,,,,gyr,-0.00872664619237,0.0506145469844,0.0139626339078
1185,1644543032049438000,0.0784531980753,-9.57129001617,-0.490332484245,acc,,,
1186,1644543032049808502,,,,gyr,-0.0209439508617,0.0191986225545,-0.0942477807403
1187,1644543032050263166,,,,gyr,0.0,0.0104719754308,0.0418879017234
1188,1644543032051454544,0.0294199492782,-9.53206348419,-0.421685934067,acc,,,
1189,1644543032051767111,,,,gyr,0.0261799395084,0.0296705961227,0.0471238903701
1190,1644543032052772284,,,,gyr,-0.00174532923847,0.0942477807403,-0.069813169539
1191,1644543032053272963,,,,gyr,-0.0174532923847,0.0,0.0506145469844
1192,1644543032053471088,0.0686465501785,-9.61051654816,-0.549172401428,acc,,,
1193,1644543032054826975,,,,gyr,-0.0837758034468,-0.0506145469844,0.0314159244299
1194,1644543032055281401,,,,gyr,0.0506145469844,0.0872664600611,-0.069813169539
1195,1644543032055487871,0.12748645246,-9.64974308014,-0.558979034424,acc,,,
1196,1644543032055782080,,,,gyr,-0.0209439508617,0.0139626339078,0.0349065847695
1197,1644543032056284666,,,,gyr,0.00872664619237,0.0680678412318,-0.0418879017234
1198,1644543032056785345,,,,gyr,0.0069813169539,0.0925024524331,0.0296705961227
1199,1644543032057335854,,,,gyr,0.0104719754308,-0.0296705961227,-0.0296705961227
1200,1644543032057504177,0.0392265990376,-9.56148338318,-0.470719188452,acc,,,
1201,1644543032057788610,,,,gyr,-0.0069813169539,0.144862323999,0.0104719754308
1202,1644543032058291197,,,,gyr,0.0226892791688,0.0296705961227,-0.0296705961227
1203,1644543032058794022,,,,gyr,0.00523598771542,0.0558505356312,0.0261799395084
1204,1644543032059294462,,,,gyr,-0.0209439508617,0.00349065847695,0.0209439508617
1205,1644543032059520721,0.0392265990376,-9.56148338318,-0.490332484245,acc,,,
1206,1644543032059845209,,,,gyr,0.0471238903701,0.0872664600611,-0.00174532923847
1207,1644543032060800552,,,,gyr,0.0959931090474,0.0296705961227,0.0418879017234
1208,1644543032061537266,0.0686465501785,-9.61051654816,-0.558979034424,acc,,,
1209,1644543032061803818,,,,gyr,0.0349065847695,0.0314159244299,-0.0139626339078
1210,1644543032063309669,,,,gyr,0.0436332300305,0.0872664600611,0.0750491544604
1211,1644543032063554049,0.0392265990376,-9.56148338318,-0.470719188452,acc,,,
1212,1644543032063812256,,,,gyr,-0.0383972451091,0.0383972451091,-0.0069813169539
1213,1644543032065316200,,,,gyr,-0.0139626339078,0.0802851468325,0.0436332300305
1214,1644543032065570593,0.0686465501785,-9.58109664917,-0.57859236002,acc,,,
1215,1644543032066822052,,,,gyr,0.0645771846175,0.0558505356312,-0.0296705961227
1216,1644543032067372799,,,,gyr,-0.0680678412318,0.118682384491,-0.00523598771542
1217,1644543032067586899,0.0784531980753,-9.58109664917,-0.470719188452,acc,,,
1218,1644543032067825079,,,,gyr,0.0139626339078,-0.0226892791688,0.0069813169539
1219,1644543032069603443,0.12748645246,-9.61051654816,-0.549172401428,acc,,,
1220,1644543032069881916,,,,gyr,0.0139626339078,0.0977384373546,0.115191727877
1221,1644543032070837259,,,,gyr,-0.0558505356312,0.0314159244299,0.069813169539
1222,1644543032071339846,,,,gyr,0.0383972451091,0.0209439508617,-0.0069813169539
1223,1644543032071620226,0.196132987738,-9.66935634613,-0.402072638273,acc,,,
1224,1644543032071840286,,,,gyr,0.0,0.136135682464,-0.0523598790169
1225,1644543032072391033,,,,gyr,0.0314159244299,0.0523598790169,0.120427720249
1226,1644543032072843552,,,,gyr,0.0,0.0558505356312,-0.0977384373546
1227,1644543032073346138,,,,gyr,-0.0069813169539,0.153588980436,0.0645771846175
1228,1644543032073636770,0.0294199492782,-9.5222568512,-0.421685934067,acc,,,
1229,1644543032073848963,,,,gyr,0.0349065847695,0.0104719754308,0.00523598771542
1230,1644543032074349642,,,,gyr,-0.0680678412318,0.0942477807403,0.0209439508617
1231,1644543032074900150,,,,gyr,0.0383972451091,0.0872664600611,0.0104719754308
1232,1644543032075352669,,,,gyr,0.0383972451091,0.0959931090474,0.0261799395084
1233,1644543032075651169,-0.137293100357,-9.53206348419,-0.470719188452,acc,,,
1234,1644543032076858759,,,,gyr,-0.0436332300305,0.0785398185253,-0.069813169539
1235,1644543032077669621,0.0784531980753,-9.62032318115,-0.38245934248,acc,,,
1236,1644543032077862024,,,,gyr,-0.0139626339078,0.0558505356312,0.0104719754308
1237,1644543032078364611,,,,gyr,-0.0314159244299,0.162315621972,-0.00523598771542
1238,1644543032079686165,0.274586200714,-9.66935634613,-0.529559075832,acc,,,
1239,1644543032080371141,,,,gyr,-0.00349065847695,0.174532920122,-0.0785398185253
1240,1644543032080873728,,,,gyr,0.0942477807403,0.0925024524331,0.123918376863
1241,1644543032081702948,0.0294199492782,-9.53206348419,-0.529559075832,acc,,,
1242,1644543032082425833,,,,gyr,-0.0139626339078,0.0959931090474,-0.0349065847695
1243,1644543032082880259,,,,gyr,0.0471238903701,0.148352980614,0.0471238903701
1244,1644543032083382845,,,,gyr,0.0,0.185004904866,-0.0069813169539
1245,1644543032083719254,0.0294199492782,-9.67916297913,-0.490332484245,acc,,,
1246,1644543032085733891,0.12748645246,-9.66935634613,-0.529559075832,acc,,,
1247,1644543032085892200,,,,gyr,0.122173048556,0.0959931090474,0.171042263508
1248,1644543032086895227,,,,gyr,0.0349065847695,0.069813169539,0.0349065847695
1249,1644543032087444067,,,,gyr,-0.0872664600611,0.167551606894,-0.0139626339078
1250,1644543032087750435,0.176519691944,-9.57129001617,-0.549172401428,acc,,,
1251,1644543032087898731,,,,gyr,0.111701071262,0.0785398185253,0.0925024524331
1252,1644543032088401318,,,,gyr,-0.0104719754308,0.122173048556,-0.00523598771542
1253,1644543032088901758,,,,gyr,0.0471238903701,0.158824965358,-0.0523598790169
1254,1644543032089404583,,,,gyr,-0.0296705961227,0.141371667385,0.0436332300305
1255,1644543032089766979,0.0980664938688,-9.62032318115,-0.490332484245,acc,,,
1256,1644543032089953184,,,,gyr,0.0296705961227,0.102974422276,0.0226892791688
1257,1644543032090407610,,,,gyr,-0.0471238903701,0.144862323999,0.0
1258,1644543032090910435,,,,gyr,0.0226892791688,0.104719758034,-0.00523598771542
1259,1644543032091411114,,,,gyr,-0.00349065847695,0.153588980436,0.0296705961227
1260,1644543032091783524,0.0392265990376,-9.61051654816,-0.470719188452,acc,,,
1261,1644543032091913462,,,,gyr,0.0383972451091,0.0785398185253,-0.0593411922455
1262,1644543032093800068,0.137293100357,-9.61051654816,-0.529559075832,acc,,,
1263,1644543032093920231,,,,gyr,-0.0471238903701,0.129154369235,0.0593411922455
1264,1644543032094971418,,,,gyr,0.0139626339078,0.11344639957,-0.0209439508617
1265,1644543032095816612,0.176519691944,-9.58109664917,-0.490332484245,acc,,,
1266,1644543032096932173,,,,gyr,0.0,0.171042263508,-0.0209439508617
1267,1644543032097480774,,,,gyr,0.0506145469844,-0.00174532923847,-0.0226892791688
1268,1644543032097833157,0.12748645246,-9.62032318115,-0.509945809841,acc,,,
1269,1644543032099849701,0.0392265990376,-9.56148338318,-0.470719188452,acc,,,
1270,1644543032099989891,,,,gyr,-0.162315621972,0.165806278586,-0.0296705961227
1271,1644543032100444317,,,,gyr,0.136135682464,0.153588980436,0.0523598790169
1272,1644543032100946903,,,,gyr,0.0174532923847,0.0645771846175,-0.0226892791688
1273,1644543032101447821,,,,gyr,-0.0802851468325,0.144862323999,0.0383972451091
1274,1644543032101866245,0.0980664938688,-9.61051654816,-0.490332484245,acc,,,
1275,1644543032101950407,,,,gyr,0.0837758034468,0.148352980614,-0.0610865242779
1276,1644543032102499008,,,,gyr,0.0209439508617,0.183259576559,0.0942477807403
1277,1644543032102953672,,,,gyr,-0.0471238903701,0.0349065847695,-0.0349065847695
1278,1644543032103456259,,,,gyr,0.11344639957,0.244346097112,0.0523598790169
1279,1644543032103882790,0.166713044047,-9.58109664917,-0.402072638273,acc,,,
1280,1644543032103956699,,,,gyr,-0.122173048556,0.157079637051,-0.0209439508617
1281,1644543032104459524,,,,gyr,0.0506145469844,0.0959931090474,0.0418879017234
1282,1644543032105008364,,,,gyr,0.0104719754308,0.0890117883682,-0.0785398185253
1283,1644543032105462790,,,,gyr,0.00523598771542,0.185004904866,0.185004904866
1284,1644543032105899334,0.0980664938688,-9.57129001617,-0.421685934067,acc,,,
1285,1644543032107517242,,,,gyr,0.0942477807403,0.0925024524331,0.130899697542
1286,1644543032107913733,0.0784531980753,-9.56148338318,-0.451105892658,acc,,,
1287,1644543032108975410,,,,gyr,0.0383972451091,0.223402142525,-0.0837758034468
1288,1644543032109932423,0.12748645246,-9.62032318115,-0.451105892658,acc,,,
1289,1644543032110983610,,,,gyr,0.0802851468325,0.115191727877,0.0558505356312
1290,1644543032111484289,,,,gyr,-0.0104719754308,0.165806278586,-0.0593411922455
1291,1644543032111947060,0.12748645246,-9.61051654816,-0.490332484245,acc,,,
1292,1644543032111987114,,,,gyr,0.0,0.183259576559,0.0872664600611
1293,1644543032112535715,,,,gyr,-0.0104719754308,0.144862323999,-0.00174532923847
1294,1644543032113963604,0.0686465501785,-9.61051654816,-0.421685934067,acc,,,
1295,1644543032113993645,,,,gyr,0.00523598771542,0.167551606894,0.00174532923847
1296,1644543032115044832,,,,gyr,-0.0139626339078,0.174532920122,0.0925024524331
1297,1644543032115979910,0.176519691944,-9.67916297913,-0.421685934067,acc,,,
1298,1644543032117005348,,,,gyr,0.0296705961227,0.205948844552,0.0104719754308
1299,1644543032117553949,,,,gyr,0.00872664619237,0.150098308921,0.0855211317539
1300,1644543032117996693,0.38245934248,-9.53206348419,-0.549172401428,acc,,,
1301,1644543032118008614,,,,gyr,-0.104719758034,0.193731546402,-0.0436332300305
1302,1644543032118511200,,,,gyr,0.0872664600611,0.0942477807403,0.0314159244299
1303,1644543032119011879,,,,gyr,0.0226892791688,0.150098308921,0.0383972451091
1304,1644543032119514465,,,,gyr,0.0,0.162315621972,0.0785398185253
1305,1644543032120013237,-0.0980664938688,-9.58109664917,-0.470719188452,acc,,,
1306,1644543032120063305,,,,gyr,-0.0104719754308,0.122173048556,-0.111701071262
1307,1644543032120517731,,,,gyr,-0.0279252678156,0.11344639957,0.0715584978461
1308,1644543032121020555,,,,gyr,0.0349065847695,0.202458187938,0.0645771846175
1309,1644543032121520996,,,,gyr,-0.0226892791688,0.115191727877,-0.0785398185253
1310,1644543032122023582,,,,gyr,0.0436332300305,0.211184844375,0.0593411922455
1311,1644543032122029781,-0.0980664938688,-9.81645679474,-0.57859236002,acc,,,
1312,1644543032123026848,,,,gyr,-0.0383972451091,0.237364768982,-0.209439516068
1313,1644543032124030352,,,,gyr,0.0209439508617,0.176278248429,-0.0349065847695
1314,1644543032124046087,0.176519691944,-9.48303031921,-0.451105892658,acc,,,
1315,1644543032125536203,,,,gyr,0.0383972451091,0.141371667385,-0.0942477807403
1316,1644543032126062632,0.38245934248,-9.61051654816,-0.402072638273,acc,,,
1317,1644543032127042055,,,,gyr,-0.0226892791688,0.300196617842,-0.0349065847695
1318,1644543032128045082,,,,gyr,-0.0418879017234,0.176278248429,0.127409040928
1319,1644543032128079414,-0.0294199492782,-9.67916297913,-0.57859236002,acc,,,
1320,1644543032129551172,,,,gyr,0.00174532923847,0.123918376863,-0.0069813169539
1321,1644543032130095959,-0.0392265990376,-9.58109664917,-0.598205626011,acc,,,
1322,1644543032130099773,,,,gyr,0.0209439508617,0.202458187938,-0.0261799395084
1323,1644543032130554438,,,,gyr,0.0226892791688,0.0296705961227,0.104719758034
1324,1644543032132060289,,,,gyr,-0.0436332300305,0.179768905044,-0.0925024524331
1325,1644543032132112265,0.196132987738,-9.5222568512,-0.490332484245,acc,,,
1326,1644543032132609129,,,,gyr,0.0349065847695,0.104719758034,0.0191986225545
1327,1644543032133063793,,,,gyr,0.0104719754308,0.0523598790169,0.0558505356312
1328,1644543032133564234,,,,gyr,-0.0436332300305,0.144862323999,-0.0471238903701
1329,1644543032134066820,,,,gyr,0.0226892791688,0.0890117883682,0.0069813169539
1330,1644543032134128809,0.274586200714,-9.70858287811,-0.490332484245,acc,,,
1331,1644543032134569645,,,,gyr,-0.0296705961227,0.069813169539,0.069813169539
1332,1644543032135118246,,,,gyr,0.0523598790169,0.0296705961227,-0.0209439508617
1333,1644543032135572672,,,,gyr,-0.0226892791688,0.171042263508,0.144862323999
1334,1644543032136073589,,,,gyr,-0.0296705961227,0.0610865242779,-0.167551606894
1335,1644543032136143446,0.00980664975941,-9.53206348419,-0.549172401428,acc,,,
1336,1644543032138082027,,,,gyr,-0.00523598771542,-0.0191986225545,0.0
1337,1644543032138162136,0.0686465501785,-9.45361042023,-0.637432217598,acc,,,
1338,1644543032139085293,,,,gyr,-0.0191986225545,0.0296705961227,0.0296705961227
1339,1644543032140178442,0.166713044047,-9.61051654816,-0.57859236002,acc,,,
1340,1644543032141091824,,,,gyr,0.0069813169539,-0.0209439508617,-0.0645771846175
1341,1644543032142095089,,,,gyr,-0.0209439508617,-0.148352980614,-0.0506145469844
1342,1644543032142194986,0.0980664938688,-9.64974308014,-0.627625584602,acc,,,
1343,1644543032142645836,,,,gyr,-0.0436332300305,0.11344639957,-0.0069813169539
1344,1644543032144103527,,,,gyr,0.0383972451091,-0.0471238903701,-0.0104719754308
1345,1644543032144211769,0.0294199492782,-9.53206348419,-0.57859236002,acc,,,
1346,1644543032144604206,,,,gyr,-0.0296705961227,0.0523598790169,0.00174532923847
1347,1644543032145154715,,,,gyr,-0.0191986225545,0.00872664619237,0.00523598771542
1348,1644543032146228313,0.137293100357,-9.61051654816,-0.451105892658,acc,,,
1349,1644543032147664070,,,,gyr,0.0558505356312,-0.0104719754308,-0.0506145469844
1350,1644543032148118734,,,,gyr,-0.0610865242779,0.0436332300305,-0.00872664619237
1351,1644543032148242712,0.0980664938688,-9.64974308014,-0.509945809841,acc,,,
1352,1644543032148619175,,,,gyr,0.0593411922455,-0.0139626339078,0.0296705961227
1353,1644543032149121761,,,,gyr,-0.0593411922455,0.0,0.0471238903701
1354,1644543032149622440,,,,gyr,0.0104719754308,0.0296705961227,-0.101229093969
1355,1644543032150173187,,,,gyr,0.118682384491,-0.0349065847695,0.130899697542
1356,1644543032150259256,0.0392265990376,-9.49283695221,-0.598205626011,acc,,,
1357,1644543032150627613,,,,gyr,-0.144862323999,0.0959931090474,-0.0209439508617
1358,1644543032151128531,,,,gyr,0.0680678412318,-0.0279252678156,0.0104719754308
1359,1644543032151631117,,,,gyr,-0.0349065847695,-0.0349065847695,-0.0593411922455
1360,1644543032152131557,,,,gyr,0.0314159244299,0.0383972451091,0.0349065847695
1361,1644543032152275801,0.137293100357,-9.61051654816,-0.558979034424,acc,,,
1362,1644543032153136969,,,,gyr,0.0,0.0977384373546,-0.069813169539
1363,1644543032154292583,0.12748645246,-9.62032318115,-0.549172401428,acc,,,
1364,1644543032155191422,,,,gyr,-0.0209439508617,0.0610865242779,0.0872664600611
1365,1644543032156308889,0.0294199492782,-9.57129001617,-0.529559075832,acc,,,
1366,1644543032157149792,,,,gyr,-0.0104719754308,-0.0296705961227,0.0296705961227
1367,1644543032157700777,,,,gyr,0.0314159244299,0.0785398185253,-0.069813169539
1368,1644543032158325434,0.0294199492782,-9.57129001617,-0.57859236002,acc,,,
1369,1644543032159158468,,,,gyr,0.0104719754308,0.0209439508617,0.0296705961227
1370,1644543032160341978,0.12748645246,-9.62032318115,-0.57859236002,acc,,,
1371,1644543032161164999,,,,gyr,0.0261799395084,-0.0349065847695,0.0942477807403
1372,1644543032161667824,,,,gyr,-0.137881010771,0.0802851468325,-0.11344639957
1373,1644543032162168264,,,,gyr,0.111701071262,-0.0383972451091,-0.0226892791688
1374,1644543032162358761,0.137293100357,-9.56148338318,-0.598205626011,acc,,,
1375,1644543032163674355,,,,gyr,0.0383972451091,0.0558505356312,0.0610865242779
1376,1644543032164176702,,,,gyr,-0.0261799395084,-0.0523598790169,-0.0069813169539
1377,1644543032164375067,0.0294199492782,-9.58109664917,-0.529559075832,acc,,,
1378,1644543032164677382,,,,gyr,0.0418879017234,-0.0104719754308,-0.0383972451091
1379,1644543032165228367,,,,gyr,-0.0645771846175,0.0209439508617,0.0506145469844
1380,1644543032165680647,,,,gyr,-0.00349065847695,-0.0349065847695,0.0645771846175
1381,1644543032166183233,,,,gyr,-0.0279252678156,0.0610865242779,-0.0279252678156
1382,1644543032166391611,0.0686465501785,-9.58109664917,-0.549172401428,acc,,,
1383,1644543032166686058,,,,gyr,0.0680678412318,-0.0436332300305,-0.0226892791688
1384,1644543032167186737,,,,gyr,-0.0471238903701,0.00174532923847,0.0069813169539
1385,1644543032167737246,,,,gyr,-0.00523598771542,-0.0314159244299,-0.0436332300305
1386,1644543032168408155,0.12748645246,-9.61051654816,-0.57859236002,acc,,,
1387,1644543032168692589,,,,gyr,-0.0471238903701,0.0383972451091,0.0209439508617
1388,1644543032170246601,,,,gyr,-0.069813169539,-0.0069813169539,-0.127409040928
1389,1644543032170424700,0.137293100357,-9.61051654816,-0.549172401428,acc,,,
1390,1644543032171704292,,,,gyr,0.0,0.0104719754308,0.0645771846175
1391,1644543032172441244,0.0392265990376,-9.58109664917,-0.558979034424,acc,,,
1392,1644543032172755718,,,,gyr,-0.0174532923847,-0.104719758034,0.0471238903701
1393,1644543032173710823,,,,gyr,0.0383972451091,-0.0383972451091,0.0523598790169
1394,1644543032174457788,0.0392265990376,-9.62032318115,-0.637432217598,acc,,,
1395,1644543032174714088,,,,gyr,0.0174532923847,0.0069813169539,0.0191986225545
1396,1644543032176474333,0.137293100357,-9.58109664917,-0.627625584602,acc,,,
1397,1644543032176720619,,,,gyr,-0.0785398185253,0.106465086341,-0.0523598790169
1398,1644543032177223444,,,,gyr,-0.0174532923847,-0.0785398185253,-0.0174532923847
1399,1644543032178490877,0.0980664938688,-9.61051654816,-0.57859236002,acc,,,
1400,1644543032178729296,,,,gyr,-0.0104719754308,0.0139626339078,0.0139626339078
1401,1644543032179231882,,,,gyr,0.0506145469844,-0.0104719754308,-0.120427720249
1402,1644543032179732323,,,,gyr,-0.00523598771542,-0.00174532923847,0.122173048556
1403,1644543032180281162,,,,gyr,0.00523598771542,0.0209439508617,-0.0471238903701
1404,1644543032180507660,0.0686465501785,-9.58109664917,-0.627625584602,acc,,,
1405,1644543032180735826,,,,gyr,0.0383972451091,-0.0349065847695,0.0890117883682
1406,1644543032181238174,,,,gyr,-0.0279252678156,0.115191727877,-0.118682384491
1407,1644543032181740999,,,,gyr,0.0,-0.109955742955,0.174532920122
1408,1644543032182241678,,,,gyr,0.0558505356312,-0.0349065847695,-0.0959931090474
1409,1644543032182523966,0.0784531980753,-9.56148338318,-0.57859236002,acc,,,
1410,1644543032182790279,,,,gyr,-0.0959931090474,0.0925024524331,-0.0680678412318
1411,1644543032183244944,,,,gyr,0.0610865242779,0.0,0.115191727877
1412,1644543032184248209,,,,gyr,0.0523598790169,0.0,0.0314159244299
1413,1644543032184540510,0.137293100357,-9.53206348419,-0.558979034424,acc,,,
1414,1644543032185754061,,,,gyr,0.0471238903701,0.0523598790169,0.0383972451091
1415,1644543032186557055,0.0784531980753,-9.57129001617,-0.57859236002,acc,,,
1416,1644543032186757326,,,,gyr,0.0383972451091,0.0383972451091,0.0837758034468
1417,1644543032188263178,,,,gyr,0.0174532923847,-0.0436332300305,0.0872664600611
1418,1644543032188573837,0.0686465501785,-9.58109664917,-0.549172401428,acc,,,
1419,1644543032189769030,,,,gyr,0.0174532923847,-0.0680678412318,0.0104719754308
1420,1644543032190317869,,,,gyr,-0.0383972451091,0.0349065847695,-0.0471238903701
1421,1644543032190590143,0.0980664938688,-9.61051654816,-0.529559075832,acc,,,
1422,1644543032191275120,,,,gyr,0.00523598771542,-0.00349065847695,0.0837758034468
1423,1644543032192606688,0.12748645246,-9.61051654816,-0.529559075832,acc,,,
1424,1644543032192826986,,,,gyr,0.0383972451091,0.0506145469844,0.0593411922455
1425,1644543032193784237,,,,gyr,0.0645771846175,-0.0558505356312,0.00523598771542
1426,1644543032194623232,0.0784531980753,-9.58109664917,-0.598205626011,acc,,,
1427,1644543032196293354,,,,gyr,0.0314159244299,0.106465086341,-0.0069813169539
1428,1644543032196639776,0.0686465501785,-9.57129001617,-0.529559075832,acc,,,
1429,1644543032197296619,,,,gyr,-0.0261799395084,0.0855211317539,-0.0349065847695
1430,1644543032198656321,0.0784531980753,-9.58109664917,-0.558979034424,acc,,,
1431,1644543032200354576,,,,gyr,-0.0104719754308,-0.0104719754308,-0.0942477807403
1432,1644543032200670958,0.12748645246,-9.66935634613,-0.470719188452,acc,,,
1433,1644543032201812267,,,,gyr,-0.0104719754308,0.0471238903701,0.0436332300305
1434,1644543032202687502,0.0980664938688,-9.62032318115,-0.549172401428,acc,,,
1435,1644543032202863455,,,,gyr,0.0139626339078,0.0506145469844,0.0314159244299
1436,1644543032204321623,,,,gyr,-0.0471238903701,-0.0471238903701,0.0471238903701
1437,1644543032204703808,0.0686465501785,-9.62032318115,-0.490332484245,acc,,,
1438,1644543032204824209,,,,gyr,-0.0645771846175,0.0104719754308,-0.0925024524331
1439,1644543032205827475,,,,gyr,-0.0226892791688,-0.0139626339078,0.0523598790169
1440,1644543032206720352,0.0784531980753,-9.61051654816,-0.549172401428,acc,,,
1441,1644543032206830502,,,,gyr,0.0558505356312,-0.0872664600611,-0.0069813169539
1442,1644543032208336353,,,,gyr,-0.0837758034468,-0.0436332300305,-0.0523598790169
1443,1644543032208737135,0.0686465501785,-9.58109664917,-0.529559075832,acc,,,
1444,1644543032209339857,,,,gyr,-0.0349065847695,-0.0558505356312,0.0872664600611
1445,1644543032209842443,,,,gyr,0.0349065847695,0.0680678412318,0.0785398185253
1446,1644543032210391045,,,,gyr,-0.00523598771542,0.00872664619237,-0.0610865242779
1447,1644543032210753679,0.12748645246,-9.58109664917,-0.490332484245,acc,,,
1448,1644543032210845709,,,,gyr,0.069813169539,0.00872664619237,0.0
1449,1644543032211348295,,,,gyr,-0.0715584978461,0.0,-0.0349065847695
1450,1644543032211848974,,,,gyr,0.0104719754308,0.0645771846175,0.0418879017234
1451,1644543032212351561,,,,gyr,0.0,-0.0855211317539,-0.0436332300305
1452,1644543032212769985,0.0980664938688,-9.58109664917,-0.470719188452,acc,,,
1453,1644543032212900400,,,,gyr,-0.0349065847695,-0.0069813169539,0.0872664600611
1454,1644543032213355064,,,,gyr,0.0645771846175,0.11344639957,-0.0785398185253
1455,1644543032213857412,,,,gyr,-0.0139626339078,-0.0715584978461,0.0750491544604
1456,1644543032214358091,,,,gyr,0.00174532923847,0.0436332300305,-0.0436332300305
1457,1644543032214786530,0.0686465501785,-9.57129001617,-0.490332484245,acc,,,
1458,1644543032214860916,,,,gyr,-0.00523598771542,-0.0418879017234,0.0209439508617
1459,1644543032215409517,,,,gyr,-0.0296705961227,0.118682384491,0.00349065847695
1460,1644543032216366768,,,,gyr,0.0855211317539,0.0,0.0226892791688
1461,1644543032216803312,0.0784531980753,-9.57129001617,-0.402072638273,acc,,,
1462,1644543032216867208,,,,gyr,-0.0872664600611,0.069813169539,-0.0593411922455
1463,1644543032217918634,,,,gyr,-0.0558505356312,-0.0104719754308,0.0872664600611
1464,1644543032218819857,0.0980664938688,-9.62032318115,-0.421685934067,acc,,,
1465,1644543032219376564,,,,gyr,0.122173048556,-0.0645771846175,0.0802851468325
1466,1644543032220427752,,,,gyr,0.0349065847695,-0.0139626339078,-0.0383972451091
1467,1644543032220836163,0.0784531980753,-9.61051654816,-0.470719188452,acc,,,
1468,1644543032220882416,,,,gyr,-0.0209439508617,0.0872664600611,0.0558505356312
1469,1644543032222852707,0.12748645246,-9.57129001617,-0.451105892658,acc,,,
1470,1644543032222937107,,,,gyr,-0.0715584978461,0.0593411922455,0.00523598771542
1471,1644543032223894119,,,,gyr,0.0261799395084,0.0593411922455,0.0872664600611
1472,1644543032224869490,0.0784531980753,-9.64974308014,-0.402072638273,acc,,,
1473,1644543032224897385,,,,gyr,-0.00174532923847,0.0383972451091,-0.069813169539
1474,1644543032225446224,,,,gyr,-0.0837758034468,0.0942477807403,-0.0209439508617
1475,1644543032225900888,,,,gyr,0.115191727877,0.00349065847695,0.0942477807403
1476,1644543032226401329,,,,gyr,-0.0523598790169,0.115191727877,-0.0558505356312
1477,1644543032226886034,0.0980664938688,-9.62032318115,-0.38245934248,acc,,,
1478,1644543032226904154,,,,gyr,0.0261799395084,0.165806278586,0.0349065847695
1479,1644543032227406740,,,,gyr,0.0226892791688,0.0209439508617,0.0436332300305
1480,1644543032227955580,,,,gyr,-0.0383972451091,0.144862323999,0.0104719754308
1481,1644543032228410244,,,,gyr,0.0139626339078,-0.0104719754308,-0.0506145469844
1482,1644543032228902817,0.0980664938688,-9.61051654816,-0.470719188452,acc,,,
1483,1644543032228910923,,,,gyr,-0.0104719754308,0.205948844552,0.0942477807403
1484,1644543032229413271,,,,gyr,-0.0261799395084,0.0471238903701,-0.0872664600611
1485,1644543032230917454,0.0686465501785,-9.61051654816,-0.421685934067,acc,,,
1486,1644543032230919361,,,,gyr,-0.115191727877,0.162315621972,0.0785398185253
1487,1644543032232933998,0.0686465501785,-9.62032318115,-0.451105892658,acc,,,
1488,1644543032232974052,,,,gyr,-0.0139626339078,0.223402142525,-0.00174532923847
1489,1644543032233929396,,,,gyr,-0.0785398185253,0.165806278586,0.0558505356312
1490,1644543032234934807,,,,gyr,0.0349065847695,0.144862323999,0.136135682464
1491,1644543032234951019,0.0980664938688,-9.64974308014,-0.402072638273,acc,,,
1492,1644543032235938311,,,,gyr,-0.0610865242779,0.171042263508,0.0104719754308
1493,1644543032236941338,,,,gyr,0.0261799395084,0.0349065847695,0.0977384373546
1494,1644543032236967564,0.0784531980753,-9.61051654816,-0.451105892658,acc,,,
1495,1644543032238447428,,,,gyr,-0.0523598790169,0.144862323999,-0.0296705961227
1496,1644543032238948345,,,,gyr,0.0,0.157079637051,0.0209439508617
1497,1644543032238984108,0.0784531980753,-9.61051654816,-0.421685934067,acc,,,
1498,1644543032239450693,,,,gyr,0.0349065847695,0.197222203016,0.0942477807403
1499,1644543032239951372,,,,gyr,-0.0174532923847,0.0785398185253,-0.0104719754308
1500,1644543032240502119,,,,gyr,0.0471238903701,0.123918376863,-0.0977384373546
1501,1644543032240956783,,,,gyr,-0.0314159244299,0.218166157603,0.0959931090474
1502,1644543032240998745,0.12748645246,-9.62032318115,-0.402072638273,acc,,,
1503,1644543032241457462,,,,gyr,-0.0104719754308,0.165806278586,-0.0191986225545
1504,1644543032241960287,,,,gyr,0.0471238903701,0.171042263508,0.0750491544604
1505,1644543032242460728,,,,gyr,-0.0715584978461,0.171042263508,-0.0750491544604
1506,1644543032243011475,,,,gyr,0.0785398185253,0.193731546402,0.141371667385
1507,1644543032243015528,0.137293100357,-9.56148338318,-0.421685934067,acc,,,
1508,1644543032243466139,,,,gyr,-0.0349065847695,0.171042263508,-0.0418879017234
1509,1644543032244970322,,,,gyr,-0.104719758034,0.202458187938,-0.0645771846175
1510,1644543032245032310,0.0686465501785,-9.57129001617,-0.470719188452,acc,,,
1511,1644543032246476173,,,,gyr,-0.00174532923847,0.300196617842,0.0645771846175
1512,1644543032246978760,,,,gyr,-0.0104719754308,0.122173048556,-0.0226892791688
1513,1644543032247048855,0.0686465501785,-9.61051654816,-0.470719188452,acc,,,
1514,1644543032248484850,,,,gyr,-0.0191986225545,0.214675500989,-0.069813169539
1515,1644543032249065638,0.12748645246,-9.57129001617,-0.490332484245,acc,,,
1516,1644543032249988794,,,,gyr,0.104719758034,0.144862323999,-0.0802851468325
1517,1644543032250539541,,,,gyr,-0.069813169539,0.272271364927,0.0610865242779
1518,1644543032251082182,0.137293100357,-9.56148338318,-0.421685934067,acc,,,
1519,1644543032251494884,,,,gyr,0.0104719754308,0.0471238903701,-0.0296705961227
1520,1644543032253096819,0.0294199492782,-9.64974308014,-0.470719188452,acc,,,
