,field.header.stamp,field.linear_acceleration.x,field.linear_acceleration.y,field.linear_acceleration.z,type,field.angular_velocity.x,field.angular_velocity.y,field.angular_velocity.z
0,1644543081628155708,,,,gyr,-0.0296705961227,0.0296705961227,0.0209439508617
1,1644543081628658533,,,,gyr,0.069813169539,-0.0349065847695,-0.148352980614
2,1644543081629159212,,,,gyr,-0.0837758034468,0.0383972451091,0.127409040928
3,1644543081629653692,-0.0392265990376,-9.61051654816,0.12748645246,acc,,,
4,1644543081629709959,,,,gyr,0.0191986225545,0.0,-0.11344639957
5,1644543081630164623,,,,gyr,0.0174532923847,-0.0610865242779,0.0296705961227
6,1644543081630665302,,,,gyr,-0.0139626339078,0.0471238903701,0.0610865242779
7,1644543081631167889,,,,gyr,0.00872664619237,0.069813169539,-0.0209439508617
8,1644543081631668806,,,,gyr,-0.0314159244299,-0.0523598790169,-0.0383972451091
9,1644543081631670713,-0.0686465501785,-9.66935634613,0.176519691944,acc,,,
10,1644543081632219553,,,,gyr,0.0209439508617,-0.0383972451091,-0.0296705961227
11,1644543081632673979,,,,gyr,-0.0296705961227,0.00523598771542,0.132645025849
12,1644543081633174896,,,,gyr,-0.0261799395084,0.00349065847695,-0.165806278586
13,1644543081633677483,,,,gyr,0.00174532923847,0.0593411922455,0.0523598790169
14,1644543081633685350,-0.0686465501785,-9.66935634613,0.0980664938688,acc,,,
15,1644543081634180069,,,,gyr,0.0296705961227,-0.069813169539,0.0139626339078
16,1644543081634728670,,,,gyr,-0.0226892791688,-0.0383972451091,0.0
17,1644543081635702133,-0.0294199492782,-9.66935634613,0.166713044047,acc,,,
18,1644543081637718916,-0.0392265990376,-9.67916297913,0.166713044047,acc,,,
19,1644543081639735699,0.0,-9.64974308014,0.166713044047,acc,,,
20,1644543081641750574,0.0,-9.62032318115,0.166713044047,acc,,,
21,1644543081643767118,-0.0294199492782,-9.64974308014,0.0784531980753,acc,,,
22,1644543081645781994,0.0,-9.66935634613,0.0980664938688,acc,,,
23,1644543081647798538,-0.0294199492782,-9.66935634613,0.0686465501785,acc,,,
24,1644543081649815321,-0.00980664975941,-9.64974308014,0.12748645246,acc,,,
25,1644543081651832342,0.0,-9.64974308014,0.12748645246,acc,,,
26,1644543081653846979,-0.00980664975941,-9.61051654816,0.12748645246,acc,,,
27,1644543081655863762,-0.00980664975941,-9.61051654816,0.176519691944,acc,,,
28,1644543081657768250,,,,gyr,0.104719758034,0.0436332300305,-0.0296705961227
29,1644543081657880306,-0.00980664975941,-9.61051654816,0.225552946329,acc,,,
30,1644543081658771753,,,,gyr,0.0104719754308,0.0558505356312,-0.00174532923847
31,1644543081659897327,0.00980664975941,-9.58109664917,0.245166242123,acc,,,
32,1644543082379533768,,,,gyr,0.0436332300305,-0.0750491544604,-0.0872664600611
33,1644543082379987955,,,,gyr,0.0139626339078,0.0558505356312,0.0209439508617
34,1644543082380490303,,,,gyr,0.0802851468325,0.0104719754308,0.0436332300305
35,1644543082380992651,,,,gyr,0.104719758034,-0.0558505356312,0.0715584978461
36,1644543082381248713,-0.0294199492782,-9.61051654816,0.558979034424,acc,,,
37,1644543082381492853,,,,gyr,0.0855211317539,0.0715584978461,-0.197222203016
38,1644543082382041216,,,,gyr,0.0296705961227,-0.00523598771542,0.150098308921
39,1644543082382495403,,,,gyr,0.0296705961227,-0.0296705961227,-0.0104719754308
40,1644543082382997751,,,,gyr,0.109955742955,-0.0209439508617,0.0069813169539
41,1644543082383263826,-0.0392265990376,-9.64974308014,0.57859236002,acc,,,
42,1644543082383497953,,,,gyr,0.0104719754308,0.101229093969,0.00349065847695
43,1644543082384000301,,,,gyr,0.0174532923847,-0.0558505356312,-0.0209439508617
44,1644543082384548664,,,,gyr,0.171042263508,-0.0383972451091,0.115191727877
45,1644543082385002851,,,,gyr,0.0436332300305,0.0174532923847,-0.122173048556
46,1644543082385278940,-0.0392265990376,-9.62032318115,0.627625584602,acc,,,
47,1644543082385505199,,,,gyr,0.0872664600611,-0.0610865242779,-0.0069813169539
48,1644543082386007547,,,,gyr,0.0506145469844,0.0471238903701,0.0506145469844
49,1644543082387292147,-0.0294199492782,-9.64974308014,0.558979034424,acc,,,
50,1644543082389015436,,,,gyr,-0.0191986225545,-0.0104719754308,-0.137881010771
51,1644543082389307499,-0.0294199492782,-9.66935634613,0.598205626011,acc,,,
52,1644543082390520334,,,,gyr,0.0296705961227,0.0209439508617,-0.0610865242779
53,1644543082391020536,,,,gyr,0.11344639957,-0.069813169539,0.122173048556
54,1644543082391322851,0.0,-9.64974308014,0.686465501785,acc,,,
55,1644543082392071009,,,,gyr,0.0872664600611,-0.0785398185253,0.0296705961227
56,1644543082392525434,,,,gyr,0.069813169539,-0.0104719754308,0.111701071262
57,1644543082393027782,,,,gyr,0.101229093969,0.0785398185253,-0.102974422276
58,1644543082393337965,-0.0294199492782,-9.62032318115,0.666852176189,acc,,,
59,1644543082394030333,,,,gyr,0.0069813169539,-0.0349065847695,-0.106465086341
60,1644543082394578695,,,,gyr,0.0314159244299,0.0226892791688,0.0191986225545
61,1644543082395351171,-0.0294199492782,-9.64974308014,0.598205626011,acc,,,
62,1644543082395535231,,,,gyr,0.0837758034468,0.0,-0.0209439508617
63,1644543082396035433,,,,gyr,0.0139626339078,-0.0349065847695,-0.069813169539
64,1644543082396537781,,,,gyr,0.0104719754308,0.0436332300305,0.130899697542
65,1644543082397086143,,,,gyr,0.0436332300305,0.0104719754308,-0.0349065847695
66,1644543082397366285,-0.0392265990376,-9.61051654816,0.598205626011,acc,,,
67,1644543082397540331,,,,gyr,0.0296705961227,-0.0296705961227,-0.0872664600611
68,1644543082398042679,,,,gyr,0.0977384373546,0.0261799395084,0.150098308921
69,1644543082398542881,,,,gyr,0.0925024524331,-0.0069813169539,-0.150098308921
70,1644543082399045229,,,,gyr,-0.0104719754308,0.0610865242779,0.0977384373546
71,1644543082399381638,-0.0392265990376,-9.57129001617,0.57859236002,acc,,,
72,1644543082399593592,,,,gyr,0.0785398185253,-0.0209439508617,0.0209439508617
73,1644543082400047779,,,,gyr,0.0506145469844,0.0610865242779,-0.0383972451091
74,1644543082400550365,,,,gyr,0.0418879017234,-0.0314159244299,-0.0785398185253
75,1644543082401050568,,,,gyr,0.0209439508617,-0.0349065847695,0.0977384373546
76,1644543082401394844,-0.0294199492782,-9.61051654816,0.57859236002,acc,,,
77,1644543082401552677,,,,gyr,0.122173048556,-0.102974422276,0.0802851468325
78,1644543082402101040,,,,gyr,-0.0925024524331,0.0802851468325,-0.153588980436
79,1644543082402555466,,,,gyr,0.23212878406,0.0296705961227,0.104719758034
80,1644543082403057575,,,,gyr,-0.0174532923847,-0.0471238903701,-0.00872664619237
81,1644543082403409958,-0.0294199492782,-9.62032318115,0.627625584602,acc,,,
82,1644543082403557777,,,,gyr,0.0558505356312,0.0139626339078,-0.0471238903701
83,1644543082404060364,,,,gyr,0.0279252678156,0.0349065847695,-0.0349065847695
84,1644543082404608727,,,,gyr,-0.0174532923847,0.0436332300305,0.0139626339078
85,1644543082405062675,,,,gyr,0.0785398185253,-0.069813169539,0.11344639957
86,1644543082405426979,0.00980664975941,-9.64974308014,0.696272134781,acc,,,
87,1644543082405565262,,,,gyr,0.0383972451091,0.0,-0.0191986225545
88,1644543082406065464,,,,gyr,0.0436332300305,-0.0209439508617,-0.0715584978461
89,1644543082406567574,,,,gyr,0.0436332300305,0.0,0.0959931090474
90,1644543082407115936,,,,gyr,-0.0261799395084,0.0610865242779,-0.11344639957
91,1644543082407440186,-0.0294199492782,-9.61051654816,0.686465501785,acc,,,
92,1644543082407570362,,,,gyr,0.0523598790169,0.0436332300305,0.0872664600611
93,1644543082408072472,,,,gyr,-0.0261799395084,-0.0785398185253,-0.0471238903701
94,1644543082408572912,,,,gyr,0.130899697542,0.0785398185253,0.0191986225545
95,1644543082409075260,,,,gyr,-0.0436332300305,-0.0209439508617,0.0349065847695
96,1644543082409455538,0.00980664975941,-9.57129001617,0.666852176189,acc,,,
97,1644543082409623623,,,,gyr,0.0349065847695,-0.0174532923847,-0.069813169539
98,1644543082410077810,,,,gyr,0.0785398185253,-0.00349065847695,-0.00523598771542
99,1644543082410580158,,,,gyr,0.0226892791688,0.0523598790169,0.0523598790169
100,1644543082411080360,,,,gyr,0.0069813169539,-0.0506145469844,-0.0872664600611
101,1644543082411468744,0.0,-9.62032318115,0.696272134781,acc,,,
102,1644543082411582708,,,,gyr,-0.0383972451091,0.0104719754308,0.0104719754308
103,1644543082412131071,,,,gyr,0.0680678412318,-0.0471238903701,-0.0349065847695
104,1644543082412585258,,,,gyr,0.0069813169539,0.0418879017234,0.0645771846175
105,1644543082413087606,,,,gyr,-0.0506145469844,-0.0296705961227,-0.0104719754308
106,1644543082413483858,-0.0392265990376,-9.61051654816,0.725692093372,acc,,,
107,1644543082413587809,,,,gyr,0.0383972451091,0.0209439508617,-0.0209439508617
108,1644543082414090157,,,,gyr,0.0279252678156,-0.0349065847695,0.00174532923847
109,1644543082414638519,,,,gyr,-0.102974422276,0.0680678412318,-0.0349065847695
110,1644543082415092707,,,,gyr,0.0174532923847,-0.0767944902182,-0.0226892791688
111,1644543082415498972,-0.00980664975941,-9.58109664917,0.666852176189,acc,,,
112,1644543082415595055,,,,gyr,-0.0104719754308,0.0506145469844,0.0959931090474
113,1644543082416095495,,,,gyr,0.0436332300305,-0.0523598790169,-0.0558505356312
114,1644543082416597605,,,,gyr,-0.00349065847695,-0.00523598771542,0.0174532923847
115,1644543082417145967,,,,gyr,-0.0471238903701,0.0645771846175,0.0174532923847
116,1644543082417514086,-0.00980664975941,-9.62032318115,0.558979034424,acc,,,
117,1644543082417600393,,,,gyr,-0.0872664600611,-0.0209439508617,-0.0506145469844
118,1644543082418102503,,,,gyr,0.144862323999,0.0,0.104719758034
119,1644543082418602705,,,,gyr,-0.144862323999,-0.0139626339078,-0.179768905044
120,1644543082419105291,,,,gyr,0.0279252678156,0.0471238903701,0.132645025849
121,1644543082419531584,0.00980664975941,-9.62032318115,0.666852176189,acc,,,
122,1644543082419653654,,,,gyr,-0.0436332300305,-0.0296705961227,-0.0191986225545
123,1644543082420107603,,,,gyr,0.0226892791688,0.0104719754308,-0.0610865242779
124,1644543082420610189,,,,gyr,0.0296705961227,-0.00523598771542,0.0750491544604
125,1644543082421110392,,,,gyr,-0.104719758034,0.0,0.00174532923847
126,1644543082421544790,-0.00980664975941,-9.61051654816,0.686465501785,acc,,,
127,1644543082421612501,,,,gyr,-0.0296705961227,0.104719758034,-0.165806278586
128,1644543082422160864,,,,gyr,0.0069813169539,-0.0610865242779,0.0680678412318
129,1644543082422615290,,,,gyr,-0.0296705961227,0.0191986225545,0.0383972451091
130,1644543082423117399,,,,gyr,-0.0296705961227,-0.0872664600611,0.0872664600611
131,1644543082423559904,-0.0392265990376,-9.58109664917,0.696272134781,acc,,,
132,1644543082423617840,,,,gyr,-0.00872664619237,0.0069813169539,-0.00523598771542
133,1644543082424120188,,,,gyr,-0.0209439508617,-0.0104719754308,-0.101229093969
134,1644543082424668550,,,,gyr,-0.0680678412318,0.118682384491,0.0593411922455
135,1644543082425122738,,,,gyr,-0.0680678412318,-0.0785398185253,0.00349065847695
136,1644543082425573111,-0.0392265990376,-9.57129001617,0.725692093372,acc,,,
137,1644543082425625086,,,,gyr,0.0069813169539,0.0069813169539,-0.0191986225545
138,1644543082426125288,,,,gyr,-0.0471238903701,0.0436332300305,0.0261799395084
139,1644543082426627636,,,,gyr,-0.101229093969,-0.0715584978461,-0.069813169539
140,1644543082427175999,,,,gyr,-0.0314159244299,0.0226892791688,0.130899697542
141,1644543082427588224,0.0,-9.61051654816,0.666852176189,acc,,,
142,1644543082427630186,,,,gyr,-0.0383972451091,0.0349065847695,-0.0610865242779
143,1644543082428132534,,,,gyr,0.0,0.0209439508617,-0.0506145469844
144,1644543082428632736,,,,gyr,-0.0767944902182,-0.069813169539,0.00349065847695
145,1644543082429135084,,,,gyr,-0.0349065847695,0.0296705961227,0.0209439508617
146,1644543082429603338,-0.00980664975941,-9.61051654816,0.558979034424,acc,,,
147,1644543082429683447,,,,gyr,-0.069813169539,0.0296705961227,-0.0296705961227
148,1644543082430137634,,,,gyr,-0.00872664619237,-0.0645771846175,0.0977384373546
149,1644543082430639982,,,,gyr,-0.106465086341,0.069813169539,-0.150098308921
150,1644543082431140184,,,,gyr,-0.0436332300305,-0.0506145469844,0.0523598790169
151,1644543082431618452,-0.0784531980753,-9.64974308014,0.549172401428,acc,,,
152,1644543082431642532,,,,gyr,-0.0802851468325,-0.0349065847695,-0.0383972451091
153,1644543082432190895,,,,gyr,-0.0383972451091,0.0959931090474,0.0959931090474
154,1644543082432645082,,,,gyr,-0.00523598771542,-0.0296705961227,-0.0872664600611
155,1644543082433147430,,,,gyr,-0.0610865242779,-0.0174532923847,0.0296705961227
156,1644543082433633804,-0.0392265990376,-9.61051654816,0.558979034424,acc,,,
157,1644543082433647633,,,,gyr,-0.0523598790169,-0.0645771846175,0.0174532923847
158,1644543082434149981,,,,gyr,-0.0226892791688,0.0959931090474,-0.0069813169539
159,1644543082434698343,,,,gyr,-0.0610865242779,-0.0523598790169,-0.0296705961227
160,1644543082435152531,,,,gyr,0.0,0.0855211317539,0.0610865242779
161,1644543082435648918,0.00980664975941,-9.61051654816,0.598205626011,acc,,,
162,1644543082435654879,,,,gyr,-0.0314159244299,-0.141371667385,-0.069813169539
163,1644543082436155319,,,,gyr,-0.0610865242779,0.11344639957,-0.0069813169539
164,1644543082436657429,,,,gyr,-0.0785398185253,-0.0680678412318,-0.0139626339078
165,1644543082437205791,,,,gyr,-0.0645771846175,-0.0139626339078,0.0750491544604
166,1644543082437660217,,,,gyr,0.00349065847695,0.0855211317539,-0.153588980436
167,1644543082437664032,0.0294199492782,-9.66935634613,0.627625584602,acc,,,
168,1644543082438162327,,,,gyr,-0.0523598790169,-0.0558505356312,0.188495561481
169,1644543082438662529,,,,gyr,-0.0296705961227,-0.00523598771542,-0.0942477807403
170,1644543082439165115,,,,gyr,-0.0104719754308,-0.0104719754308,0.0872664600611
171,1644543082439677238,-0.0392265990376,-9.61051654816,0.549172401428,acc,,,
172,1644543082439713478,,,,gyr,-0.0593411922455,0.0174532923847,-0.118682384491
173,1644543082440167427,,,,gyr,-0.0436332300305,0.00349065847695,0.0349065847695
174,1644543082440670013,,,,gyr,-0.0383972451091,0.0191986225545,-0.0383972451091
175,1644543082441170216,,,,gyr,-0.0174532923847,-0.0471238903701,0.0
176,1644543082441672325,,,,gyr,-0.0174532923847,0.0558505356312,0.0558505356312
177,1644543082441692352,-0.0294199492782,-9.61051654816,0.598205626011,acc,,,
178,1644543082442220688,,,,gyr,-0.0139626339078,-0.0139626339078,-0.0715584978461
179,1644543082442675114,,,,gyr,-0.0872664600611,0.0139626339078,0.0872664600611
180,1644543082443177223,,,,gyr,-0.0296705961227,-0.0209439508617,-0.0226892791688
181,1644543082443677664,,,,gyr,0.0226892791688,-0.0209439508617,-0.0069813169539
182,1644543082443707466,-0.0294199492782,-9.67916297913,0.549172401428,acc,,,
183,1644543082444180012,,,,gyr,-0.0349065847695,-0.0296705961227,0.00523598771542
184,1644543082444728374,,,,gyr,-0.0139626339078,0.0436332300305,-0.104719758034
185,1644543082445182562,,,,gyr,-0.0558505356312,-0.0872664600611,0.0925024524331
186,1644543082445684910,,,,gyr,-0.0767944902182,0.11344639957,-0.0977384373546
187,1644543082445720673,-0.0294199492782,-9.67916297913,0.549172401428,acc,,,
188,1644543082446185112,,,,gyr,-0.0104719754308,-0.0349065847695,0.0959931090474
189,1644543082446687460,,,,gyr,-0.0209439508617,0.0226892791688,-0.0471238903701
190,1644543082447235584,,,,gyr,0.0,-0.0296705961227,-0.00174532923847
191,1644543082447690010,,,,gyr,-0.0645771846175,-0.0191986225545,0.127409040928
192,1644543082447736025,-0.0392265990376,-9.61051654816,0.529559075832,acc,,,
193,1644543082448192358,,,,gyr,-0.0296705961227,-0.0139626339078,-0.130899697542
194,1644543082448692560,,,,gyr,-0.0104719754308,0.00872664619237,0.115191727877
195,1644543082449194908,,,,gyr,-0.069813169539,0.00523598771542,-0.0785398185253
196,1644543082449743271,,,,gyr,0.0872664600611,-0.0104719754308,-0.0226892791688
197,1644543082449751139,-0.0392265990376,-9.61051654816,0.558979034424,acc,,,
198,1644543082450197458,,,,gyr,-0.0383972451091,-0.0383972451091,0.0
199,1644543082450699806,,,,gyr,-0.0279252678156,0.0610865242779,0.0558505356312
200,1644543082451200008,,,,gyr,0.00523598771542,0.00523598771542,-0.0610865242779
201,1644543082451702356,,,,gyr,-0.0104719754308,-0.0104719754308,0.0680678412318
202,1644543082451766253,-0.0686465501785,-9.66935634613,0.57859236002,acc,,,
203,1644543082452250719,,,,gyr,-0.0436332300305,-0.0349065847695,-0.0226892791688
204,1644543082452704906,,,,gyr,0.0209439508617,0.0,-0.0209439508617
205,1644543082453207254,,,,gyr,-0.0174532923847,0.0104719754308,0.0314159244299
206,1644543082453707457,,,,gyr,0.0209439508617,-0.0296705961227,0.0139626339078
207,1644543082453781605,-0.00980664975941,-9.61051654816,0.558979034424,acc,,,
208,1644543082454209805,,,,gyr,-0.130899697542,0.0593411922455,-0.0645771846175
209,1644543082454758167,,,,gyr,-0.0069813169539,-0.069813169539,-0.0104719754308
210,1644543082455212355,,,,gyr,0.130899697542,-0.0471238903701,0.115191727877
211,1644543082455712557,,,,gyr,-0.104719758034,0.0750491544604,-0.0785398185253
212,1644543082455796719,-0.00980664975941,-9.61051654816,0.598205626011,acc,,,
213,1644543082456215143,,,,gyr,0.0471238903701,-0.0436332300305,-0.0174532923847
214,1644543082456717253,,,,gyr,-0.0436332300305,0.0174532923847,0.0558505356312
215,1644543082457265615,,,,gyr,0.0296705961227,-0.0610865242779,0.0523598790169
216,1644543082457720041,,,,gyr,0.0209439508617,0.0750491544604,-0.104719758034
217,1644543082457812071,-0.0686465501785,-9.61051654816,0.57859236002,acc,,,
218,1644543082458222151,,,,gyr,0.00523598771542,0.0,0.00523598771542
219,1644543082458722353,,,,gyr,0.0226892791688,0.0139626339078,0.0523598790169
220,1644543082459224939,,,,gyr,-0.0471238903701,-0.0261799395084,-0.0715584978461
221,1644543082459773064,,,,gyr,0.00349065847695,0.0069813169539,0.0645771846175
222,1644543082459825277,-0.00980664975941,-9.61051654816,0.598205626011,acc,,,
223,1644543082460227251,,,,gyr,0.0069813169539,0.0,-0.0226892791688
224,1644543082460729837,,,,gyr,0.0174532923847,-0.0436332300305,0.069813169539
225,1644543082461230040,,,,gyr,-0.0523598790169,0.0593411922455,-0.23212878406
226,1644543082461732149,,,,gyr,0.0174532923847,-0.0558505356312,0.25830873847
227,1644543082461840391,-0.00980664975941,-9.61051654816,0.598205626011,acc,,,
228,1644543082462280512,,,,gyr,0.0383972451091,-0.0191986225545,-0.0296705961227
229,1644543082462734938,,,,gyr,-0.00523598771542,0.0314159244299,-0.0837758034468
230,1644543082463237047,,,,gyr,0.00349065847695,0.0383972451091,-0.0226892791688
231,1644543082463737249,,,,gyr,0.0383972451091,-0.0523598790169,0.0383972451091
232,1644543082463855505,-0.0392265990376,-9.62032318115,0.627625584602,acc,,,
233,1644543082464239836,,,,gyr,0.0,0.0261799395084,-0.0959931090474
234,1644543082464788198,,,,gyr,-0.0296705961227,-0.0209439508617,0.21991148591
235,1644543082465242147,,,,gyr,-0.0558505356312,0.0349065847695,-0.205948844552
236,1644543082465744734,,,,gyr,0.158824965358,-0.0593411922455,0.167551606894
237,1644543082465870619,-0.0686465501785,-9.66935634613,0.598205626011,acc,,,
238,1644543082466244936,,,,gyr,-0.0610865242779,-0.0069813169539,0.0436332300305
239,1644543082466747046,,,,gyr,-0.0261799395084,0.0750491544604,-0.129154369235
240,1644543082467295408,,,,gyr,0.0209439508617,-0.0558505356312,0.0296705961227
241,1644543082467749834,,,,gyr,-0.0680678412318,0.0209439508617,-0.00174532923847
242,1644543082467883825,0.0,-9.62032318115,0.598205626011,acc,,,
243,1644543082468251944,,,,gyr,0.0174532923847,-0.106465086341,0.0471238903701
244,1644543082468752146,,,,gyr,0.0279252678156,0.0785398185253,-0.0506145469844
245,1644543082469254732,,,,gyr,0.0610865242779,-0.00349065847695,0.0209439508617
246,1644543082469803095,,,,gyr,0.0104719754308,0.0523598790169,0.069813169539
247,1644543082469898939,0.0,-9.64974308014,0.666852176189,acc,,,
248,1644543082470257044,,,,gyr,0.00872664619237,-0.0471238903701,-0.104719758034
249,1644543082470759630,,,,gyr,-0.0471238903701,-0.0349065847695,0.0959931090474
250,1644543082471259832,,,,gyr,0.0314159244299,0.0296705961227,-0.0872664600611
251,1644543082471761942,,,,gyr,0.00523598771542,-0.0139626339078,0.0977384373546
252,1644543082471914053,-0.0294199492782,-9.62032318115,0.57859236002,acc,,,
253,1644543082472310305,,,,gyr,0.0296705961227,0.0104719754308,-0.0785398185253
254,1644543082472764730,,,,gyr,0.0349065847695,0.0209439508617,0.102974422276
255,1644543082473264933,,,,gyr,-0.0523598790169,-0.0471238903701,-0.111701071262
256,1644543082473767281,,,,gyr,0.0645771846175,0.0785398185253,0.0349065847695
257,1644543082473927259,-0.0392265990376,-9.62032318115,0.57859236002,acc,,,
258,1644543082474269629,,,,gyr,-0.0069813169539,-0.0383972451091,0.00523598771542
259,1644543082474817753,,,,gyr,0.0610865242779,0.0139626339078,-0.0139626339078
260,1644543082475272179,,,,gyr,-0.0209439508617,-0.0349065847695,0.0069813169539
261,1644543082475772381,,,,gyr,0.0349065847695,0.0314159244299,0.0645771846175
262,1644543082475942612,-0.00980664975941,-9.58109664917,0.598205626011,acc,,,
263,1644543082476274729,,,,gyr,0.00174532923847,-0.0942477807403,-0.0349065847695
264,1644543082476777077,,,,gyr,0.0558505356312,0.0610865242779,-0.0802851468325
265,1644543082477325201,,,,gyr,0.0523598790169,0.0209439508617,0.0802851468325
266,1644543082477779627,,,,gyr,0.0558505356312,-0.0296705961227,0.0226892791688
267,1644543082477957726,-0.0686465501785,-9.61051654816,0.598205626011,acc,,,
268,1644543082478279829,,,,gyr,0.00349065847695,0.0349065847695,-0.0558505356312
269,1644543082478782177,,,,gyr,-0.0174532923847,0.0296705961227,0.00174532923847
270,1644543082479284525,,,,gyr,0.0349065847695,-0.130899697542,-0.0209439508617
271,1644543082479832649,,,,gyr,0.122173048556,0.0872664600611,0.0610865242779
272,1644543082479972839,-0.0392265990376,-9.62032318115,0.637432217598,acc,,,
273,1644543082480287075,,,,gyr,-0.0855211317539,-0.0104719754308,0.0436332300305
274,1644543082480787277,,,,gyr,0.0837758034468,-0.0296705961227,-0.0104719754308
275,1644543082481289625,,,,gyr,-0.0296705961227,0.0558505356312,0.0
276,1644543082481791973,,,,gyr,0.0715584978461,-0.104719758034,-0.0296705961227
277,1644543082481986046,-0.00980664975941,-9.61051654816,0.598205626011,acc,,,
278,1644543082482340336,,,,gyr,-0.0593411922455,0.0977384373546,0.0383972451091
279,1644543082482794523,,,,gyr,0.0959931090474,-0.0785398185253,0.0104719754308
280,1644543082483294725,,,,gyr,0.0296705961227,0.0383972451091,0.0296705961227
281,1644543082483797073,,,,gyr,0.0610865242779,-0.0104719754308,0.00174532923847
282,1644543082484001160,-0.0392265990376,-9.61051654816,0.627625584602,acc,,,
283,1644543082484299421,,,,gyr,-0.0523598790169,0.0209439508617,-0.0925024524331
284,1644543082484847546,,,,gyr,0.0837758034468,-0.0209439508617,0.0593411922455
285,1644543082485301971,,,,gyr,0.0750491544604,0.0139626339078,0.0104719754308
286,1644543082485802174,,,,gyr,-0.00174532923847,0.0523598790169,-0.0645771846175
287,1644543082486016273,-0.00980664975941,-9.64974308014,0.598205626011,acc,,,
288,1644543082486304522,,,,gyr,-0.0296705961227,-0.0610865242779,0.0802851468325
289,1644543082486806870,,,,gyr,0.101229093969,-0.153588980436,-0.0855211317539
290,1644543082487355232,,,,gyr,0.00174532923847,0.139626339078,0.0645771846175
291,1644543082487809420,,,,gyr,0.0872664600611,-0.0767944902182,-0.0296705961227
292,1644543082488031387,-0.00980664975941,-9.62032318115,0.598205626011,acc,,,
293,1644543082488309860,,,,gyr,0.0226892791688,0.0523598790169,0.0785398185253
294,1644543082488811970,,,,gyr,-0.0209439508617,0.0,-0.0471238903701
295,1644543082489314318,,,,gyr,0.0680678412318,0.0104719754308,0.0436332300305
296,1644543082489862442,,,,gyr,0.0837758034468,-0.0785398185253,-0.0349065847695
297,1644543082490046740,-0.12748645246,-9.62032318115,0.549172401428,acc,,,
298,1644543082490316868,,,,gyr,0.00523598771542,-0.0279252678156,-0.0645771846175
299,1644543082490817070,,,,gyr,0.0139626339078,0.0942477807403,0.136135682464
300,1644543082491319656,,,,gyr,0.158824965358,0.0139626339078,-0.118682384491
301,1644543082491821766,,,,gyr,0.0436332300305,-0.0610865242779,-0.0226892791688
302,1644543082492059708,-0.0392265990376,-9.64974308014,0.637432217598,acc,,,
303,1644543082492370129,,,,gyr,-0.0261799395084,0.102974422276,0.0785398185253
304,1644543082492824316,,,,gyr,0.153588980436,-0.0872664600611,0.0
305,1644543082493324757,,,,gyr,-0.0261799395084,0.0,-0.0349065847695
306,1644543082493826866,,,,gyr,0.118682384491,0.0349065847695,0.0104719754308
307,1644543082494075060,-0.00980664975941,-9.64974308014,0.57859236002,acc,,,
308,1644543082494329214,,,,gyr,0.0139626339078,-0.0436332300305,0.0872664600611
309,1644543082494877338,,,,gyr,0.0174532923847,0.0383972451091,-0.130899697542
310,1644543082495331764,,,,gyr,0.0523598790169,-0.0191986225545,-0.0104719754308
311,1644543082495831966,,,,gyr,0.104719758034,-0.0296705961227,0.069813169539
312,1644543082496090412,0.0,-9.62032318115,0.598205626011,acc,,,
313,1644543082496334553,,,,gyr,0.0855211317539,-0.00523598771542,-0.0558505356312
314,1644543082496836662,,,,gyr,0.0523598790169,0.0942477807403,0.0558505356312
315,1644543082497385025,,,,gyr,0.0349065847695,-0.0139626339078,-0.0383972451091
316,1644543082497839451,,,,gyr,0.0855211317539,-0.0593411922455,-0.0645771846175
317,1644543082498105526,-0.00980664975941,-9.64974308014,0.666852176189,acc,,,
318,1644543082498339653,,,,gyr,0.127409040928,-0.0226892791688,0.0942477807403
319,1644543082498841763,,,,gyr,0.0349065847695,0.0506145469844,0.0174532923847
320,1644543082499344349,,,,gyr,0.0959931090474,-0.102974422276,0.0226892791688
321,1644543082499892235,,,,gyr,0.0610865242779,0.0645771846175,-0.0942477807403
322,1644543082500120640,-0.00980664975941,-9.58109664917,0.598205626011,acc,,,
323,1644543082500346661,,,,gyr,0.069813169539,-0.0558505356312,0.141371667385
324,1644543082500846863,,,,gyr,0.0191986225545,0.0139626339078,-0.0872664600611
325,1644543082501349449,,,,gyr,0.0558505356312,0.0506145469844,0.0506145469844
326,1644543082501851559,,,,gyr,0.122173048556,-0.0226892791688,-0.0872664600611
327,1644543082502135754,0.00980664975941,-9.64974308014,0.598205626011,acc,,,
328,1644543082502399921,,,,gyr,0.0069813169539,-0.0279252678156,0.0296705961227
329,1644543082502854347,,,,gyr,0.120427720249,-0.00174532923847,-0.0174532923847
330,1644543082503354549,,,,gyr,0.0523598790169,-0.0959931090474,0.0226892791688
331,1644543082503856659,,,,gyr,0.141371667385,0.0523598790169,-0.0104719754308
332,1644543082504150867,-0.00980664975941,-9.64974308014,0.627625584602,acc,,,
333,1644543082504359245,,,,gyr,0.0349065847695,0.0383972451091,0.0785398185253
334,1644543082504907370,,,,gyr,0.127409040928,-0.0610865242779,-0.0104719754308
335,1644543082505361557,,,,gyr,0.0226892791688,0.0174532923847,-0.0593411922455
336,1644543082505861759,,,,gyr,0.127409040928,0.069813169539,0.0523598790169
337,1644543082506164074,-0.0686465501785,-9.61051654816,0.598205626011,acc,,,
338,1644543082506364346,,,,gyr,0.0471238903701,-0.129154369235,-0.069813169539
339,1644543082506866455,,,,gyr,0.0104719754308,0.0209439508617,0.0436332300305
340,1644543082507414818,,,,gyr,0.162315621972,0.0558505356312,0.00523598771542
341,1644543082507869244,,,,gyr,0.0506145469844,-0.0750491544604,0.00872664619237
342,1644543082508179188,-0.00980664975941,-9.61051654816,0.558979034424,acc,,,
343,1644543082508369446,,,,gyr,0.069813169539,-0.0349065847695,0.0209439508617
344,1644543082508871555,,,,gyr,0.0890117883682,0.0104719754308,-0.0296705961227
345,1644543082509371758,,,,gyr,0.120427720249,0.0139626339078,-0.0226892791688
346,1644543082509922266,,,,gyr,0.0296705961227,0.0191986225545,0.0
347,1644543082510196447,0.0,-9.64974308014,0.666852176189,acc,,,
348,1644543082510376453,,,,gyr,0.11344639957,-0.0523598790169,0.0139626339078
349,1644543082510876656,,,,gyr,0.0959931090474,0.0226892791688,0.111701071262
350,1644543082511379242,,,,gyr,0.0593411922455,-0.0436332300305,-0.120427720249
351,1644543082511881351,,,,gyr,0.111701071262,-0.0872664600611,0.136135682464
352,1644543082512209415,-0.00980664975941,-9.61051654816,0.637432217598,acc,,,
353,1644543082512429714,,,,gyr,0.0436332300305,0.171042263508,-0.0855211317539
354,1644543082512884140,,,,gyr,0.0209439508617,-0.0872664600611,0.0174532923847
355,1644543082513384342,,,,gyr,0.118682384491,0.0296705961227,-0.0715584978461
356,1644543082513886452,,,,gyr,0.150098308921,-0.127409040928,0.0802851468325
357,1644543082514224768,-0.0294199492782,-9.58109664917,0.57859236002,acc,,,
358,1644543082514388800,,,,gyr,0.0418879017234,-0.00174532923847,-0.115191727877
359,1644543082514937162,,,,gyr,0.11344639957,0.0104719754308,0.102974422276
360,1644543082515391350,,,,gyr,0.0261799395084,0.00174532923847,-0.0349065847695
361,1644543082515891552,,,,gyr,0.0680678412318,-0.0436332300305,0.0872664600611
362,1644543082516239882,-0.00980664975941,-9.61051654816,0.666852176189,acc,,,
363,1644543082516394138,,,,gyr,0.136135682464,-0.0139626339078,-0.0209439508617
364,1644543082516896248,,,,gyr,0.0977384373546,-0.069813169539,-0.118682384491
365,1644543082517444611,,,,gyr,0.104719758034,-0.00523598771542,0.122173048556
366,1644543082517899036,,,,gyr,0.0279252678156,0.0209439508617,-0.0069813169539
367,1644543082518255234,0.0,-9.64974308014,0.627625584602,acc,,,
368,1644543082518399239,,,,gyr,0.130899697542,0.0069813169539,-0.0593411922455
369,1644543082518901348,,,,gyr,0.0209439508617,-0.00174532923847,-0.0349065847695
370,1644543082519403696,,,,gyr,0.188495561481,-0.0506145469844,0.11344639957
371,1644543082519952059,,,,gyr,0.0349065847695,-0.0104719754308,-0.0977384373546
372,1644543082520268202,-0.00980664975941,-9.61051654816,0.686465501785,acc,,,
373,1644543082520406246,,,,gyr,0.0977384373546,-0.0279252678156,0.0349065847695
374,1644543082520906448,,,,gyr,-0.00872664619237,0.0139626339078,0.0174532923847
375,1644543082521409035,,,,gyr,0.157079637051,-0.00174532923847,-0.0942477807403
376,1644543082521911144,,,,gyr,0.0593411922455,0.00872664619237,0.111701071262
377,1644543082522283554,-0.00980664975941,-9.62032318115,0.627625584602,acc,,,
378,1644543082522459507,,,,gyr,0.118682384491,-0.0226892791688,0.0261799395084
379,1644543082522913933,,,,gyr,0.0785398185253,0.00523598771542,0.00872664619237
380,1644543082523414135,,,,gyr,0.106465086341,-0.0610865242779,-0.0837758034468
381,1644543082523916245,,,,gyr,0.102974422276,-0.00174532923847,-0.0471238903701
382,1644543082524298668,-0.00980664975941,-9.62032318115,0.558979034424,acc,,,
383,1644543082524418592,,,,gyr,0.0645771846175,-0.0436332300305,0.185004904866
384,1644543082524966955,,,,gyr,0.0959931090474,0.0471238903701,-0.144862323999
385,1644543082525421143,,,,gyr,0.176278248429,-0.0226892791688,0.0349065847695
386,1644543082525921583,,,,gyr,0.0069813169539,-0.0209439508617,0.00523598771542
387,1644543082526313782,-0.00980664975941,-9.64974308014,0.57859236002,acc,,,
388,1644543082526423931,,,,gyr,0.193731546402,-0.109955742955,0.130899697542
389,1644543082526924133,,,,gyr,0.0296705961227,0.0767944902182,-0.193731546402
390,1644543082527474403,,,,gyr,0.153588980436,-0.0226892791688,0.0785398185253
391,1644543082527928829,,,,gyr,0.150098308921,-0.0680678412318,-0.0506145469844
392,1644543082528328896,0.00980664975941,-9.58109664917,0.558979034424,acc,,,
393,1644543082528429031,,,,gyr,0.0383972451091,0.0,0.106465086341
394,1644543082528931141,,,,gyr,0.185004904866,0.0349065847695,-0.0226892791688
395,1644543082529431581,,,,gyr,0.120427720249,-0.00174532923847,-0.0226892791688
396,1644543082529981852,,,,gyr,0.0436332300305,-0.0209439508617,-0.0610865242779
397,1644543082530344009,-0.0392265990376,-9.62032318115,0.598205626011,acc,,,
398,1644543082530436039,,,,gyr,0.176278248429,-0.0261799395084,0.102974422276
399,1644543082530936480,,,,gyr,0.158824965358,-0.0209439508617,0.0226892791688
400,1644543082531438828,,,,gyr,0.141371667385,-0.0523598790169,-0.0872664600611
401,1644543082531939030,,,,gyr,0.150098308921,0.0383972451091,0.101229093969
402,1644543082532357216,0.0,-9.64974308014,0.627625584602,acc,,,
403,1644543082532489300,,,,gyr,0.0767944902182,-0.0296705961227,-0.0436332300305
404,1644543082532943487,,,,gyr,0.111701071262,-0.0418879017234,0.0349065847695
405,1644543082533443928,,,,gyr,0.136135682464,0.0383972451091,-0.0139626339078
406,1644543082533946037,,,,gyr,0.137881010771,-0.0174532923847,-0.0610865242779
407,1644543082534372330,0.0,-9.64974308014,0.627625584602,acc,,,
408,1644543082534446478,,,,gyr,0.165806278586,-0.0506145469844,0.0314159244299
409,1644543082534996748,,,,gyr,0.162315621972,-0.0226892791688,-0.102974422276
410,1644543082535450935,,,,gyr,0.0925024524331,0.0,0.069813169539
411,1644543082535951138,,,,gyr,0.130899697542,-0.0104719754308,0.0680678412318
412,1644543082536387444,0.0,-9.61051654816,0.558979034424,acc,,,
413,1644543082536453724,,,,gyr,0.136135682464,-0.0209439508617,-0.0523598790169
414,1644543082536953926,,,,gyr,0.197222203016,-0.0279252678156,0.0
415,1644543082537504196,,,,gyr,0.109955742955,0.0558505356312,0.0523598790169
416,1644543082537958384,,,,gyr,0.150098308921,-0.0506145469844,-0.00523598771542
417,1644543082538402557,-0.00980664975941,-9.58109664917,0.549172401428,acc,,,
418,1644543082538458824,,,,gyr,0.167551606894,-0.0645771846175,-0.0436332300305
419,1644543082538960934,,,,gyr,0.144862323999,0.0104719754308,0.109955742955
420,1644543082539461374,,,,gyr,0.197222203016,0.0069813169539,-0.0349065847695
421,1644543082540011644,,,,gyr,0.179768905044,-0.0261799395084,-0.0645771846175
422,1644543082540417910,-0.00980664975941,-9.64974308014,0.558979034424,acc,,,
423,1644543082540465832,,,,gyr,0.106465086341,-0.0139626339078,0.0349065847695
424,1644543082540966034,,,,gyr,0.144862323999,-0.0279252678156,-0.0750491544604
425,1644543082541468620,,,,gyr,0.214675500989,-0.00523598771542,0.0872664600611
426,1644543082541968822,,,,gyr,0.0837758034468,0.0,-0.0715584978461
427,1644543082542433023,0.0,-9.61051654816,0.57859236002,acc,,,
428,1644543082542519093,,,,gyr,0.228638127446,-0.069813169539,0.11344639957
429,1644543082542973280,,,,gyr,0.202458187938,0.0506145469844,-0.0349065847695
430,1644543082543473721,,,,gyr,0.205948844552,-0.0139626339078,-0.0104719754308
431,1644543082543975830,,,,gyr,0.144862323999,-0.0279252678156,-0.0645771846175
432,1644543082544448137,0.0,-9.64974308014,0.637432217598,acc,,,
433,1644543082544476271,,,,gyr,0.144862323999,0.0261799395084,0.0523598790169
434,1644543082545026541,,,,gyr,0.214675500989,0.0139626339078,0.0645771846175
435,1644543082545480728,,,,gyr,0.23212878406,-0.0959931090474,-0.0942477807403
436,1644543082545980930,,,,gyr,0.139626339078,0.0349065847695,0.0349065847695
437,1644543082546461344,-0.00980664975941,-9.62032318115,0.57859236002,acc,,,
438,1644543082546483517,,,,gyr,0.150098308921,0.0139626339078,0.0209439508617
439,1644543082546983719,,,,gyr,0.228638127446,-0.0610865242779,-0.069813169539
440,1644543082547533989,,,,gyr,0.185004904866,0.0680678412318,0.0645771846175
441,1644543082547988176,,,,gyr,0.21991148591,-0.141371667385,-0.0226892791688
442,1644543082548478603,0.00980664975941,-9.62032318115,0.549172401428,acc,,,
443,1644543082548488617,,,,gyr,0.185004904866,-0.00174532923847,0.069813169539
444,1644543082548990726,,,,gyr,0.21991148591,0.069813169539,-0.111701071262
445,1644543082549490929,,,,gyr,0.193731546402,-0.0069813169539,0.144862323999
446,1644543082550041437,,,,gyr,0.185004904866,-0.0785398185253,-0.0593411922455
447,1644543082550491810,0.0,-9.64974308014,0.627625584602,acc,,,
448,1644543082550495625,,,,gyr,0.197222203016,0.0610865242779,0.0209439508617
449,1644543082550995827,,,,gyr,0.211184844375,-0.0785398185253,0.0261799395084
450,1644543082551498175,,,,gyr,0.205948844552,-0.0558505356312,-0.0296705961227
451,1644543082551998615,,,,gyr,0.254818081856,0.106465086341,0.0104719754308
452,1644543082552506924,-0.0392265990376,-9.58109664917,0.558979034424,acc,,,
453,1644543082552548885,,,,gyr,0.193731546402,-0.0767944902182,0.0349065847695
454,1644543082553003073,,,,gyr,0.188495561481,-0.0069813169539,-0.0209439508617
455,1644543082553503513,,,,gyr,0.179768905044,-0.0226892791688,-0.0785398185253
456,1644543082554005623,,,,gyr,0.280998021364,-0.0610865242779,0.0977384373546
457,1644543082554505825,,,,gyr,0.205948844552,0.0471238903701,-0.0104719754308
458,1644543082554520130,-0.0686465501785,-9.61051654816,0.57859236002,acc,,,
459,1644543082555056095,,,,gyr,0.235619440675,0.0,-0.104719758034
460,1644543082555510521,,,,gyr,0.211184844375,-0.0209439508617,0.0471238903701
461,1644543082556010723,,,,gyr,0.261799395084,-0.0523598790169,0.0296705961227
462,1644543082556513071,,,,gyr,0.197222203016,-0.0558505356312,0.0436332300305
463,1644543082556535244,0.0,-9.58109664917,0.627625584602,acc,,,
464,1644543082557013512,,,,gyr,0.21991148591,0.0104719754308,-0.0872664600611
465,1644543082557563782,,,,gyr,0.23212878406,-0.0191986225545,0.0471238903701
466,1644543082558017969,,,,gyr,0.270526021719,-0.0174532923847,-0.0069813169539
467,1644543082558518410,,,,gyr,0.202458187938,0.0523598790169,0.069813169539
468,1644543082558550358,0.00980664975941,-9.62032318115,0.57859236002,acc,,,
469,1644543082559020519,,,,gyr,0.275762021542,-0.0959931090474,-0.0610865242779
470,1644543082559520721,,,,gyr,0.148352980614,0.069813169539,0.0104719754308
471,1644543082560070992,,,,gyr,0.32637655735,-0.0959931090474,0.0593411922455
472,1644543082560523510,,,,gyr,0.193731546402,0.0523598790169,-0.104719758034
473,1644543082560565472,0.00980664975941,-9.66935634613,0.598205626011,acc,,,
474,1644543082561025620,,,,gyr,0.211184844375,0.0104719754308,0.127409040928
475,1644543082561527967,,,,gyr,0.237364768982,-0.0296705961227,-0.0593411922455
476,1644543082562028408,,,,gyr,0.28274333477,-0.0610865242779,0.0593411922455
477,1644543082562578678,,,,gyr,0.211184844375,0.0349065847695,-0.069813169539
478,1644543082562578678,-0.0686465501785,-9.58109664917,0.666852176189,acc,,,
479,1644543082563030720,,,,gyr,0.280998021364,-0.0977384373546,0.0715584978461
480,1644543082563533306,,,,gyr,0.214675500989,0.0174532923847,-0.0593411922455
481,1644543082564035416,,,,gyr,0.23212878406,0.0139626339078,-0.0750491544604
482,1644543082564535618,,,,gyr,0.336848556995,-0.0680678412318,0.174532920122
483,1644543082564593792,-0.0784531980753,-9.64974308014,0.686465501785,acc,,,
484,1644543082565085888,,,,gyr,0.171042263508,-0.0174532923847,-0.0767944902182
485,1644543082565538406,,,,gyr,0.211184844375,0.0558505356312,-0.0802851468325
486,1644543082566040516,,,,gyr,0.272271364927,-0.0785398185253,0.158824965358
487,1644543082566542864,,,,gyr,0.244346097112,0.0610865242779,-0.144862323999
488,1644543082566608906,-0.0392265990376,-9.58109664917,0.696272134781,acc,,,
489,1644543082567043304,,,,gyr,0.25830873847,-0.0593411922455,0.0680678412318
490,1644543082567593575,,,,gyr,0.279252678156,-0.0174532923847,-0.102974422276
491,1644543082568047523,,,,gyr,0.185004904866,-0.0104719754308,0.0645771846175
492,1644543082568548203,,,,gyr,0.319395244122,-0.0383972451091,-0.0383972451091
493,1644543082568624020,0.0294199492782,-9.66935634613,0.696272134781,acc,,,
494,1644543082569050312,,,,gyr,0.197222203016,0.0680678412318,0.0645771846175
495,1644543082569550514,,,,gyr,0.237364768982,-0.0436332300305,0.00523598771542
496,1644543082570100784,,,,gyr,0.300196617842,-0.111701071262,0.0418879017234
497,1644543082570553303,,,,gyr,0.188495561481,0.0645771846175,-0.111701071262
498,1644543082570637226,-0.0294199492782,-9.66935634613,0.764918684959,acc,,,
499,1644543082571055412,,,,gyr,0.179768905044,-0.0296705961227,-0.0174532923847
500,1644543082571557522,,,,gyr,0.32637655735,-0.0942477807403,0.0802851468325
501,1644543082572058201,,,,gyr,0.162315621972,0.0785398185253,0.0209439508617
502,1644543082572608471,,,,gyr,0.253072738647,-0.0383972451091,-0.11344639957
503,1644543082572652340,-0.137293100357,-9.58109664917,0.764918684959,acc,,,
504,1644543082573062420,,,,gyr,0.275762021542,-0.0558505356312,0.132645025849
505,1644543082573563099,,,,gyr,0.176278248429,0.0418879017234,-0.0767944902182
506,1644543082574065208,,,,gyr,0.214675500989,-0.0680678412318,0.0139626339078
507,1644543082574565411,,,,gyr,0.275762021542,-0.0383972451091,0.00523598771542
508,1644543082574667454,-0.0686465501785,-9.62032318115,0.813951909542,acc,,,
509,1644543082575115681,,,,gyr,0.300196617842,-0.0279252678156,0.0436332300305
510,1644543082575568199,,,,gyr,0.205948844552,0.0471238903701,-0.0436332300305
511,1644543082576070309,,,,gyr,0.176278248429,-0.0523598790169,-0.0925024524331
512,1644543082576572418,,,,gyr,0.253072738647,-0.0209439508617,0.0959931090474
513,1644543082576682568,0.0294199492782,-9.66935634613,0.804145276546,acc,,,
514,1644543082577072859,,,,gyr,0.153588980436,0.0506145469844,-0.0715584978461
515,1644543082577623367,,,,gyr,0.280998021364,-0.0436332300305,0.0174532923847
516,1644543082578075409,,,,gyr,0.188495561481,-0.0174532923847,0.0802851468325
517,1644543082578577518,,,,gyr,0.249582082033,-0.0767944902182,-0.0645771846175
518,1644543082578695774,-0.0294199492782,-9.67916297913,0.804145276546,acc,,,
519,1644543082579080105,,,,gyr,0.211184844375,0.0523598790169,-0.0139626339078
520,1644543082579580307,,,,gyr,0.179768905044,-0.0261799395084,0.0645771846175
521,1644543082580130577,,,,gyr,0.226892799139,-0.0226892791688,-0.0296705961227
522,1644543082580582857,,,,gyr,0.21991148591,0.0104719754308,0.0523598790169
523,1644543082580710888,-0.12748645246,-9.57129001617,0.833565235138,acc,,,
524,1644543082581085205,,,,gyr,0.202458187938,-0.0925024524331,-0.179768905044
525,1644543082581587315,,,,gyr,0.136135682464,0.0523598790169,0.188495561481
526,1644543082582087755,,,,gyr,0.305432617664,-0.102974422276,-0.0837758034468
527,1644543082582638025,,,,gyr,0.0959931090474,0.0139626339078,0.0436332300305
528,1644543082582726002,-0.0686465501785,-9.64974308014,0.843371868134,acc,,,
529,1644543082583090305,,,,gyr,0.235619440675,0.0296705961227,-0.122173048556
530,1644543082583592415,,,,gyr,0.179768905044,-0.0436332300305,0.11344639957
531,1644543082584095001,,,,gyr,0.191986218095,-0.0139626339078,-0.0296705961227
532,1644543082584595203,,,,gyr,0.200712859631,-0.0104719754308,0.0471238903701
533,1644543082584741116,0.0,-9.62032318115,0.882598459721,acc,,,
534,1644543082585143566,,,,gyr,0.228638127446,-0.069813169539,-0.0750491544604
535,1644543082585597754,,,,gyr,0.0890117883682,0.0436332300305,0.0610865242779
536,1644543082586100101,,,,gyr,0.249582082033,-0.0558505356312,-0.0349065847695
537,1644543082586602211,,,,gyr,0.162315621972,-0.0925024524331,0.0261799395084
538,1644543082586756229,0.0,-9.64974308014,0.872791826725,acc,,,
539,1644543082587102652,,,,gyr,0.150098308921,0.0610865242779,-0.069813169539
540,1644543082587652922,,,,gyr,0.21991148591,-0.0471238903701,0.106465086341
541,1644543082588105202,,,,gyr,0.162315621972,0.0750491544604,-0.0750491544604
542,1644543082588607311,,,,gyr,0.171042263508,-0.129154369235,0.104719758034
543,1644543082588769436,-0.0980664938688,-9.62032318115,0.813951909542,acc,,,
544,1644543082589109659,,,,gyr,0.0837758034468,0.0925024524331,-0.174532920122
545,1644543082589610100,,,,gyr,0.291469991207,-0.127409040928,0.11344639957
546,1644543082590158463,,,,gyr,0.102974422276,0.0349065847695,-0.0523598790169
547,1644543082590612650,,,,gyr,0.176278248429,-0.0593411922455,0.0261799395084
548,1644543082590784550,-0.0392265990376,-9.62032318115,0.735498726368,acc,,,
549,1644543082591114998,,,,gyr,0.200712859631,-0.0279252678156,-0.069813169539
550,1644543082591617107,,,,gyr,0.132645025849,-0.0750491544604,0.0471238903701
551,1644543082592117548,,,,gyr,0.122173048556,0.0593411922455,-0.069813169539
552,1644543082592667818,,,,gyr,0.237364768982,-0.0645771846175,0.102974422276
553,1644543082592799902,0.0,-9.62032318115,0.833565235138,acc,,,
554,1644543082593120098,,,,gyr,0.0942477807403,-0.0610865242779,-0.0802851468325
555,1644543082593622208,,,,gyr,0.165806278586,0.0383972451091,0.0506145469844
556,1644543082594124556,,,,gyr,0.179768905044,-0.139626339078,-0.0471238903701
557,1644543082594624758,,,,gyr,0.102974422276,0.0610865242779,0.0418879017234
558,1644543082594815016,-0.0392265990376,-9.64974308014,0.843371868134,acc,,,
559,1644543082595175266,,,,gyr,0.136135682464,-0.0610865242779,0.0959931090474
560,1644543082595627546,,,,gyr,0.167551606894,-0.00174532923847,-0.132645025849
561,1644543082596129656,,,,gyr,0.153588980436,0.00523598771542,0.0139626339078
562,1644543082596632004,,,,gyr,0.141371667385,-0.0750491544604,0.0558505356312
563,1644543082596828222,-0.0784531980753,-9.58109664917,0.843371868134,acc,,,
564,1644543082597132206,,,,gyr,0.106465086341,-0.0506145469844,-0.0296705961227
565,1644543082597680569,,,,gyr,0.144862323999,0.0471238903701,-0.0104719754308
566,1644543082598134756,,,,gyr,0.106465086341,-0.104719758034,-0.0174532923847
567,1644543082598637104,,,,gyr,0.130899697542,0.0645771846175,-0.069813169539
568,1644543082598843336,-0.0392265990376,-9.64974308014,0.951245009899,acc,,,
569,1644543082599139452,,,,gyr,0.136135682464,-0.0977384373546,0.141371667385
570,1644543082599639654,,,,gyr,0.0872664600611,-0.00872664619237,-0.0209439508617
571,1644543082600189924,,,,gyr,0.136135682464,-0.0226892791688,-0.0750491544604
572,1644543082600642443,,,,gyr,0.11344639957,-0.0750491544604,0.0872664600611
573,1644543082600858450,0.00980664975941,-9.66935634613,0.912018418312,acc,,,
574,1644543082601144552,,,,gyr,0.136135682464,0.0226892791688,-0.0296705961227
575,1644543082601644754,,,,gyr,0.0506145469844,0.0436332300305,0.0104719754308
576,1644543082602147102,,,,gyr,0.109955742955,-0.0802851468325,-0.0785398185253
577,1644543082602695465,,,,gyr,0.0750491544604,-0.069813169539,-0.0349065847695
578,1644543082602871656,-0.0294199492782,-9.62032318115,0.912018418312,acc,,,
579,1644543082603149652,,,,gyr,0.136135682464,-0.069813169539,0.139626339078
580,1644543082603652000,,,,gyr,0.0226892791688,0.0593411922455,-0.0715584978461
581,1644543082604152441,,,,gyr,0.0436332300305,-0.0104719754308,-0.0715584978461
582,1644543082604654551,,,,gyr,0.122173048556,-0.0558505356312,0.0959931090474
583,1644543082604886770,-0.0686465501785,-9.61051654816,0.921825051308,acc,,,
584,1644543082605202913,,,,gyr,0.127409040928,-0.141371667385,0.0226892791688
585,1644543082605657339,,,,gyr,0.0471238903701,0.0296705961227,-0.069813169539
586,1644543082606159449,,,,gyr,0.0209439508617,-0.0436332300305,0.0296705961227
587,1644543082606661558,,,,gyr,0.132645025849,-0.0715584978461,0.0191986225545
588,1644543082606901884,-0.0392265990376,-9.64974308014,0.990471601486,acc,,,
589,1644543082607161999,,,,gyr,0.0,0.00349065847695,-0.137881010771
590,1644543082607712507,,,,gyr,0.104719758034,-0.0436332300305,0.0593411922455
591,1644543082608164549,,,,gyr,-0.0139626339078,-0.0174532923847,-0.0925024524331
592,1644543082608666658,,,,gyr,0.185004904866,-0.0506145469844,0.214675500989
593,1644543082608916998,-0.00980664975941,-9.64974308014,0.990471601486,acc,,,
594,1644543082609167337,,,,gyr,-0.130899697542,0.0226892791688,-0.197222203016
595,1644543082609669447,,,,gyr,0.167551606894,-0.0174532923847,0.130899697542
596,1644543082610217810,,,,gyr,0.0209439508617,-0.171042263508,0.0174532923847
597,1644543082610671759,,,,gyr,0.00523598771542,0.0890117883682,-0.0959931090474
598,1644543082610932112,0.00980664975941,-9.58109664917,1.01989161968,acc,,,
599,1644543082611174345,,,,gyr,0.0296705961227,-0.0593411922455,0.0593411922455
600,1644543082611674547,,,,gyr,0.0226892791688,0.00349065847695,0.0785398185253
601,1644543082612176657,,,,gyr,-0.0139626339078,-0.0471238903701,-0.0837758034468
602,1644543082612725019,,,,gyr,0.0139626339078,-0.0349065847695,0.0523598790169
603,1644543082612945318,-0.0784531980753,-9.64974308014,0.990471601486,acc,,,
604,1644543082613179445,,,,gyr,0.0383972451091,-0.0610865242779,-0.0680678412318
605,1644543082613681555,,,,gyr,0.0383972451091,0.0,0.0523598790169
606,1644543082614181995,,,,gyr,-0.102974422276,0.0942477807403,-0.104719758034
607,1644543082614684343,,,,gyr,0.104719758034,-0.0977384373546,0.165806278586
608,1644543082614960432,-0.0686465501785,-9.62032318115,1.01989161968,acc,,,
609,1644543082615232706,,,,gyr,-0.0314159244299,-0.0680678412318,-0.0872664600611
610,1644543082615686655,,,,gyr,-0.0872664600611,0.0139626339078,0.0261799395084
611,1644543082616189241,,,,gyr,0.0471238903701,-0.0523598790169,-0.0226892791688
612,1644543082616689444,,,,gyr,-0.0139626339078,0.0296705961227,0.0383972451091
613,1644543082616975546,-0.00980664975941,-9.62032318115,0.921825051308,acc,,,
614,1644543082617191553,,,,gyr,0.0,-0.0959931090474,0.00523598771542
615,1644543082617739916,,,,gyr,0.0139626339078,0.00174532923847,-0.0645771846175
616,1644543082618194342,,,,gyr,-0.101229093969,0.0750491544604,0.136135682464
617,1644543082618696451,,,,gyr,-0.0471238903701,-0.0942477807403,-0.122173048556
618,1644543082618990660,-0.0294199492782,-9.62032318115,0.951245009899,acc,,,
619,1644543082619196892,,,,gyr,0.0471238903701,0.0104719754308,-0.0471238903701
620,1644543082619699001,,,,gyr,-0.0942477807403,0.0296705961227,0.0383972451091
621,1644543082620247364,,,,gyr,0.0226892791688,-0.0785398185253,-0.0104719754308
622,1644543082620701551,,,,gyr,-0.0349065847695,-0.0436332300305,0.0471238903701
623,1644543082621005774,0.00980664975941,-9.61051654816,0.882598459721,acc,,,
624,1644543082621203899,,,,gyr,-0.0209439508617,0.0506145469844,-0.0104719754308
625,1644543082621704340,,,,gyr,-0.069813169539,-0.069813169539,0.118682384491
626,1644543082622206450,,,,gyr,-0.0226892791688,0.0104719754308,-0.144862323999
627,1644543082622754812,,,,gyr,-0.0209439508617,-0.0104719754308,0.0296705961227
628,1644543082623018980,-0.0294199492782,-9.62032318115,0.951245009899,acc,,,
629,1644543082623209000,,,,gyr,-0.0261799395084,-0.0436332300305,-0.0069813169539
630,1644543082623711348,,,,gyr,-0.0802851468325,0.0209439508617,0.0750491544604
631,1644543082624211788,,,,gyr,-0.0959931090474,-0.0645771846175,0.0349065847695
632,1644543082624713898,,,,gyr,-0.0261799395084,0.0296705961227,-0.0593411922455
633,1644543082625034094,-0.0686465501785,-9.58109664917,0.951245009899,acc,,,
634,1644543082625262260,,,,gyr,-0.102974422276,-0.0750491544604,-0.00174532923847
635,1644543082625716448,,,,gyr,-0.111701071262,0.0593411922455,0.00523598771542
636,1644543082626218796,,,,gyr,-0.0296705961227,0.00349065847695,0.0959931090474
637,1644543082626718998,,,,gyr,-0.0349065847695,-0.0767944902182,-0.0750491544604
638,1644543082627049208,-0.0294199492782,-9.58109664917,0.951245009899,acc,,,
639,1644543082627221346,,,,gyr,-0.0942477807403,0.0,0.00174532923847
640,1644543082627769709,,,,gyr,-0.0942477807403,0.0,0.00174532923847
641,1644543082628223896,,,,gyr,-0.11344639957,0.0,0.0261799395084
642,1644543082628726244,,,,gyr,0.00174532923847,-0.0226892791688,-0.0349065847695
643,1644543082629064560,-0.0392265990376,-9.61051654816,0.843371868134,acc,,,
644,1644543082629226446,,,,gyr,-0.148352980614,-0.0349065847695,0.0261799395084
645,1644543082629728794,,,,gyr,-0.0383972451091,0.0209439508617,-0.0209439508617
646,1644543082630277157,,,,gyr,-0.0174532923847,-0.0610865242779,0.0226892791688
647,1644543082630731344,,,,gyr,-0.0942477807403,0.0436332300305,0.00174532923847
648,1644543082631077528,-0.0294199492782,-9.62032318115,0.843371868134,acc,,,
649,1644543082631233692,,,,gyr,-0.11344639957,-0.0715584978461,0.0383972451091
650,1644543082631733894,,,,gyr,-0.109955742955,0.0436332300305,-0.0750491544604
651,1644543082632236004,,,,gyr,-0.0279252678156,-0.0523598790169,0.0977384373546
652,1644543082632784367,,,,gyr,-0.115191727877,-0.0680678412318,-0.0890117883682
653,1644543082633092880,-0.0392265990376,-9.66935634613,0.804145276546,acc,,,
654,1644543082633238792,,,,gyr,-0.0523598790169,0.0558505356312,-0.0069813169539
655,1644543082633740902,,,,gyr,-0.106465086341,0.0104719754308,0.0942477807403
656,1644543082634241104,,,,gyr,0.0,-0.0645771846175,-0.0471238903701
657,1644543082634743690,,,,gyr,-0.0645771846175,-0.0314159244299,0.0209439508617
658,1644543082635109901,0.0294199492782,-9.66935634613,0.804145276546,acc,,,
659,1644543082635292053,,,,gyr,-0.104719758034,0.0471238903701,0.0104719754308
660,1644543082635746002,,,,gyr,-0.0610865242779,-0.0436332300305,0.0383972451091
661,1644543082636248589,,,,gyr,-0.0471238903701,0.0209439508617,-0.0558505356312
662,1644543082636748791,,,,gyr,-0.111701071262,-0.0471238903701,0.0436332300305
663,1644543082637123108,-0.0294199492782,-9.62032318115,0.813951909542,acc,,,
664,1644543082637250900,,,,gyr,-0.069813169539,0.0174532923847,-0.0890117883682
665,1644543082637799263,,,,gyr,0.0,0.0,0.246091425419
666,1644543082638253689,,,,gyr,-0.0872664600611,-0.0104719754308,-0.144862323999
667,1644543082638755798,,,,gyr,-0.0872664600611,0.00523598771542,0.00872664619237
668,1644543082639138222,-0.225552946329,-9.24767112732,1.20621788502,acc,,,
669,1644543082639256001,,,,gyr,-0.130899697542,-0.00349065847695,-0.0645771846175
670,1644543082639758348,,,,gyr,-0.162315621972,-0.0174532923847,-0.00523598771542
671,1644543082640306711,,,,gyr,-0.32637655735,-0.0593411922455,0.0610865242779
672,1644543082640760899,,,,gyr,-0.361283153296,0.0785398185253,-0.193731546402
673,1644543082641151190,-1.31409108639,-8.44352531433,4.16782617569,acc,,,
674,1644543082641263247,,,,gyr,-0.474729537964,-0.0506145469844,-0.197222203016
675,1644543082641763449,,,,gyr,-0.640535831451,-0.00523598771542,-0.0558505356312
676,1644543082642265797,,,,gyr,-0.544542729855,-0.0436332300305,-0.165806278586
677,1644543082642814159,,,,gyr,-0.689405024052,0.11344639957,-0.0209439508617
678,1644543082643166304,-0.421685934067,-10.0616226196,2.64779543877,acc,,,
679,1644543082643268347,,,,gyr,-0.745255589485,-0.137881010771,-0.188495561481
680,1644543082643770695,,,,gyr,-0.637045145035,-0.0680678412318,-0.111701071262
681,1644543082644270897,,,,gyr,-0.680678427219,-0.0349065847695,-0.0174532923847
682,1644543082644773245,,,,gyr,-0.762708902359,-0.0506145469844,-0.0523598790169
683,1644543082645181417,0.833565235138,-9.86548995972,0.402072638273,acc,,,
684,1644543082645321608,,,,gyr,-0.666715741158,0.0715584978461,-0.120427720249
685,1644543082645775795,,,,gyr,-0.637045145035,-0.0436332300305,-0.0383972451091
686,1644543082646278143,,,,gyr,-0.567232012749,-0.0680678412318,-0.0785398185253
687,1644543082646778345,,,,gyr,-0.593411922455,-0.0610865242779,-0.0349065847695
688,1644543082647196531,0.490332484245,-9.5222568512,-0.362846046686,acc,,,
689,1644543082647280693,,,,gyr,-0.523598790169,-0.00872664619237,-0.141371667385
690,1644543082647828817,,,,gyr,-0.532325446606,-0.0855211317539,0.0226892791688
691,1644543082648283243,,,,gyr,-0.490437507629,0.0279252678156,-0.0349065847695
692,1644543082648785353,,,,gyr,-0.413643032312,-0.102974422276,-0.00872664619237
693,1644543082649209738,-0.0294199492782,-10.0616226196,0.362846046686,acc,,,
694,1644543082649285793,,,,gyr,-0.575958669186,0.0349065847695,0.123918376863
695,1644543082649788141,,,,gyr,-0.488692194223,-0.0523598790169,-0.137881010771
696,1644543082650790453,,,,gyr,-0.490437507629,-0.104719758034,-0.0610865242779
697,1644543082651224852,0.0686465501785,-9.66935634613,1.01989161968,acc,,,
698,1644543082651293039,,,,gyr,-0.596902608871,-0.0191986225545,-0.0436332300305
699,1644543082651793242,,,,gyr,-0.457276254892,-0.0506145469844,0.0104719754308
700,1644543082652295351,,,,gyr,-0.507890820503,0.0226892791688,0.0436332300305
701,1644543082652843714,,,,gyr,-0.42760565877,-0.130899697542,-0.0558505356312
702,1644543082653239965,0.402072638273,-9.78703689575,0.882598459721,acc,,,
703,1644543082653298140,,,,gyr,-0.596902608871,-0.0069813169539,0.0226892791688
704,1644543082653800249,,,,gyr,-0.544542729855,0.0610865242779,0.0977384373546
705,1644543082654300451,,,,gyr,-0.488692194223,-0.0785398185253,-0.0610865242779
706,1644543082654803038,,,,gyr,-0.474729537964,-0.0226892791688,0.104719758034
707,1644543082655255079,0.0686465501785,-9.78703689575,0.686465501785,acc,,,
708,1644543082655351162,,,,gyr,-0.532325446606,-0.0139626339078,-0.0383972451091
709,1644543082655805349,,,,gyr,-0.570722639561,-0.0750491544604,0.153588980436
710,1644543082656307697,,,,gyr,-0.42760565877,-0.0139626339078,-0.0785398185253
711,1644543082656808138,,,,gyr,-0.413643032312,0.0174532923847,0.0890117883682
712,1644543082657268286,-0.225552946329,-9.49283695221,0.402072638273,acc,,,
713,1644543082657310247,,,,gyr,-0.518362760544,-0.069813169539,-0.0593411922455
714,1644543082657858610,,,,gyr,-0.42760565877,0.0,0.0942477807403
715,1644543082658312798,,,,gyr,-0.546288073063,-0.0226892791688,-0.0209439508617
716,1644543082658815145,,,,gyr,-0.363028466702,-0.0104719754308,0.0872664600611
717,1644543082659285307,0.0784531980753,-9.78703689575,0.362846046686,acc,,,
718,1644543082659315348,,,,gyr,-0.462512254715,-0.0593411922455,-0.0785398185253
719,1644543082659817696,,,,gyr,-0.368264466524,0.0471238903701,0.0959931090474
720,1644543082660366058,,,,gyr,-0.436332315207,-0.0645771846175,0.0436332300305
721,1644543082660820246,,,,gyr,-0.446804285049,-0.0104719754308,-0.0523598790169
722,1644543082661298513,0.196132987738,-9.86548995972,0.421685934067,acc,,,
723,1644543082661322594,,,,gyr,-0.335103213787,0.0,0.0471238903701
724,1644543082661822796,,,,gyr,-0.394444406033,-0.0523598790169,0.0349065847695
725,1644543082662325144,,,,gyr,-0.387463092804,0.00523598771542,0.0785398185253
726,1644543082662873268,,,,gyr,-0.28274333477,-0.0349065847695,-0.0436332300305
727,1644543082663313627,-0.00980664975941,-9.62032318115,0.245166242123,acc,,,
728,1644543082663327694,,,,gyr,-0.406661719084,0.0349065847695,0.0837758034468
729,1644543082663829803,,,,gyr,-0.253072738647,-0.167551606894,0.136135682464
730,1644543082664330244,,,,gyr,-0.448549628258,0.144862323999,-0.153588980436
731,1644543082664832592,,,,gyr,-0.165806278586,-0.150098308921,0.115191727877
732,1644543082665328741,0.0,-9.7478094101,0.0686465501785,acc,,,
733,1644543082665380955,,,,gyr,-0.275762021542,0.0785398185253,0.0890117883682
734,1644543082665834904,,,,gyr,-0.25830873847,-0.0139626339078,-0.0104719754308
735,1644543082666337490,,,,gyr,-0.280998021364,-0.0872664600611,-0.0383972451091
736,1644543082666837692,,,,gyr,-0.179768905044,0.0506145469844,0.165806278586
737,1644543082667339802,,,,gyr,-0.179768905044,-0.0139626339078,-0.0296705961227
738,1644543082667341709,0.00980664975941,-9.67916297913,0.166713044047,acc,,,
739,1644543082667888165,,,,gyr,-0.21991148591,-0.0436332300305,-0.0296705961227
740,1644543082668342590,,,,gyr,-0.197222203016,0.0261799395084,0.127409040928
741,1644543082668844700,,,,gyr,-0.141371667385,-0.0872664600611,0.069813169539
742,1644543082669344902,,,,gyr,-0.188495561481,0.0104719754308,-0.0436332300305
743,1644543082669356823,-0.00980664975941,-9.64974308014,0.264779537916,acc,,,
744,1644543082669847488,,,,gyr,-0.102974422276,0.0436332300305,0.0523598790169
745,1644543082670395613,,,,gyr,-0.202458187938,-0.0296705961227,-0.0349065847695
746,1644543082670849800,,,,gyr,-0.127409040928,-0.0349065847695,0.0436332300305
747,1644543082671352148,,,,gyr,-0.171042263508,0.0,-0.0226892791688
748,1644543082671370029,-0.0784531980753,-9.58109664917,0.421685934067,acc,,,
749,1644543082671852589,,,,gyr,-0.167551606894,0.118682384491,0.122173048556
750,1644543082672354698,,,,gyr,-0.0977384373546,-0.165806278586,-0.0593411922455
751,1644543082672903061,,,,gyr,-0.0139626339078,0.0104719754308,0.185004904866
752,1644543082673357248,,,,gyr,-0.183259576559,0.0261799395084,-0.0436332300305
753,1644543082673385143,-0.137293100357,-9.58109664917,0.490332484245,acc,,,
754,1644543082673859596,,,,gyr,-0.157079637051,-0.00174532923847,0.00523598771542
755,1644543082674359798,,,,gyr,-0.0436332300305,0.0523598790169,-0.0506145469844
756,1644543082674862146,,,,gyr,-0.148352980614,-0.0872664600611,0.111701071262
757,1644543082675400496,-0.0294199492782,-9.62032318115,0.558979034424,acc,,,
758,1644543082675410509,,,,gyr,-0.0314159244299,-0.0104719754308,-0.0506145469844
759,1644543082675864697,,,,gyr,-0.183259576559,0.0069813169539,0.00174532923847
760,1644543082676367044,,,,gyr,-0.0471238903701,0.0837758034468,0.069813169539
761,1644543082676867247,,,,gyr,-0.132645025849,-0.0837758034468,0.0767944902182
762,1644543082677369595,,,,gyr,0.0104719754308,-0.0069813169539,-0.127409040928
763,1644543082677415609,-0.0392265990376,-9.57129001617,0.509945809841,acc,,,
764,1644543082677917719,,,,gyr,-0.118682384491,-0.0104719754308,0.0977384373546
765,1644543082678372145,,,,gyr,-0.122173048556,0.0279252678156,0.0558505356312
766,1644543082678874254,,,,gyr,-0.0383972451091,-0.0139626339078,-0.0558505356312
767,1644543082679374456,,,,gyr,-0.0750491544604,0.00872664619237,-0.00349065847695
768,1644543082679428816,-0.0392265990376,-9.58109664917,0.637432217598,acc,,,
769,1644543082679877043,,,,gyr,-0.0872664600611,0.0523598790169,0.141371667385
770,1644543082680425406,,,,gyr,-0.0296705961227,-0.0436332300305,-0.122173048556
771,1644543082680879354,,,,gyr,-0.0837758034468,-0.0785398185253,0.0261799395084
772,1644543082681381941,,,,gyr,-0.141371667385,0.0349065847695,0.0977384373546
773,1644543082681443930,-0.0980664938688,-9.62032318115,0.725692093372,acc,,,
774,1644543082681882143,,,,gyr,-0.0471238903701,0.0314159244299,-0.0610865242779
775,1644543082682384253,,,,gyr,-0.123918376863,-0.0436332300305,0.0890117883682
776,1644543082682932615,,,,gyr,-0.00174532923847,-0.0436332300305,-0.00872664619237
777,1644543082683387041,,,,gyr,-0.101229093969,0.0383972451091,-0.0645771846175
778,1644543082683459044,-0.0980664938688,-9.57129001617,0.696272134781,acc,,,
779,1644543082683889151,,,,gyr,-0.109955742955,-0.00523598771542,0.0383972451091
780,1644543082684389353,,,,gyr,-0.0436332300305,-0.0593411922455,0.0069813169539
781,1644543082684891701,,,,gyr,-0.167551606894,0.0296705961227,0.0314159244299
782,1644543082685439825,,,,gyr,-0.102974422276,0.0139626339078,0.0349065847695
783,1644543082685472012,-0.0686465501785,-9.64974308014,0.872791826725,acc,,,
784,1644543082685894251,,,,gyr,-0.11344639957,-0.0610865242779,-0.0523598790169
785,1644543082686396599,,,,gyr,-0.132645025849,0.0471238903701,0.104719758034
786,1644543082686896801,,,,gyr,-0.0418879017234,-0.0349065847695,-0.101229093969
787,1644543082687399149,,,,gyr,-0.200712859631,0.0349065847695,0.0191986225545
788,1644543082687487125,-0.12748645246,-9.58109664917,0.882598459721,acc,,,
789,1644543082687947512,,,,gyr,-0.0872664600611,0.0069813169539,-0.00174532923847
790,1644543082688401699,,,,gyr,-0.136135682464,-0.0436332300305,0.0191986225545
791,1644543082689404249,,,,gyr,-0.150098308921,-0.0802851468325,0.0104719754308
792,1644543082689502239,-0.137293100357,-9.56148338318,0.872791826725,acc,,,
793,1644543082689906597,,,,gyr,-0.132645025849,0.0296705961227,0.0436332300305
794,1644543082690454721,,,,gyr,-0.228638127446,-0.00349065847695,0.0
795,1644543082691517353,-0.00980664975941,-9.57129001617,0.804145276546,acc,,,
796,1644543082691911697,,,,gyr,-0.123918376863,0.0471238903701,-0.0890117883682
797,1644543082692413807,,,,gyr,-0.214675500989,-0.104719758034,0.0959931090474
798,1644543082692962170,,,,gyr,-0.185004904866,0.0174532923847,-0.0436332300305
799,1644543082693416595,,,,gyr,-0.223402142525,0.0436332300305,0.0471238903701
800,1644543082693530560,0.0,-9.62032318115,0.764918684959,acc,,,
801,1644543082693918705,,,,gyr,-0.144862323999,-0.0471238903701,-0.0872664600611
802,1644543082694418907,,,,gyr,-0.193731546402,-0.0209439508617,0.0837758034468
803,1644543082694921494,,,,gyr,-0.270526021719,0.0715584978461,-0.00523598771542
804,1644543082695469379,,,,gyr,-0.228638127446,-0.0261799395084,0.0139626339078
805,1644543082695545673,-0.00980664975941,-9.64974308014,0.774725317955,acc,,,
806,1644543082696425915,,,,gyr,-0.235619440675,-0.0715584978461,0.0139626339078
807,1644543082697428703,,,,gyr,-0.254818081856,0.0139626339078,-0.00174532923847
808,1644543082697560787,-0.0294199492782,-9.62032318115,0.696272134781,acc,,,
809,1644543082697977066,,,,gyr,-0.115191727877,-0.0610865242779,0.0610865242779
810,1644543082698431253,,,,gyr,-0.361283153296,0.122173048556,-0.0296705961227
811,1644543082699433804,,,,gyr,-0.237364768982,0.0959931090474,0.0837758034468
812,1644543082699575901,0.0,-9.62032318115,0.735498726368,acc,,,
813,1644543082699936152,,,,gyr,-0.254818081856,-0.0925024524331,0.111701071262
814,1644543082700938702,,,,gyr,-0.315904587507,-0.11344639957,0.0104719754308
815,1644543082701589108,-0.00980664975941,-9.66935634613,0.735498726368,acc,,,
816,1644543082701941252,,,,gyr,-0.291469991207,-0.0226892791688,0.0349065847695
817,1644543082702443361,,,,gyr,-0.272271364927,0.0872664600611,0.069813169539
818,1644543082702991724,,,,gyr,-0.211184844375,-0.123918376863,-0.0226892791688
819,1644543082703446150,,,,gyr,-0.291469991207,0.0959931090474,-0.0436332300305
820,1644543082703606129,0.00980664975941,-9.66935634613,0.666852176189,acc,,,
821,1644543082703948259,,,,gyr,-0.267035365105,-0.0785398185253,0.0558505356312
822,1644543082704448462,,,,gyr,-0.293215304613,0.00349065847695,0.0383972451091
823,1644543082704950809,,,,gyr,-0.237364768982,0.101229093969,-0.0296705961227
824,1644543082705499172,,,,gyr,-0.272271364927,-0.139626339078,0.0506145469844
825,1644543082705619097,0.00980664975941,-9.64974308014,0.696272134781,acc,,,
826,1644543082705953360,,,,gyr,-0.30194196105,0.0610865242779,0.0471238903701
827,1644543082706453562,,,,gyr,-0.293215304613,0.0104719754308,-0.0855211317539
828,1644543082706956148,,,,gyr,-0.246091425419,-0.109955742955,0.141371667385
829,1644543082707458258,,,,gyr,-0.32637655735,0.0959931090474,-0.0837758034468
830,1644543082707634211,0.0,-9.70858287811,0.764918684959,acc,,,
831,1644543082708006620,,,,gyr,-0.26354470849,-0.0279252678156,-0.0349065847695
832,1644543082708461046,,,,gyr,-0.293215304613,-0.069813169539,0.069813169539
833,1644543082708961248,,,,gyr,-0.267035365105,0.0680678412318,-0.0471238903701
834,1644543082709463358,,,,gyr,-0.376991122961,-0.0436332300305,-0.00174532923847
835,1644543082709649324,0.0294199492782,-9.58109664917,0.725692093372,acc,,,
836,1644543082709965467,,,,gyr,-0.284488677979,0.00174532923847,0.0523598790169
837,1644543082710513830,,,,gyr,-0.335103213787,-0.0296705961227,0.0785398185253
838,1644543082710968256,,,,gyr,-0.270526021719,-0.0174532923847,-0.0226892791688
839,1644543082711468458,,,,gyr,-0.335103213787,-0.0383972451091,-0.0785398185253
840,1644543082711664438,0.0294199492782,-9.62032318115,0.627625584602,acc,,,
841,1644543082711970806,,,,gyr,-0.343829870224,0.0436332300305,0.153588980436
842,1644543082712473154,,,,gyr,-0.404916375875,-0.0104719754308,-0.0890117883682
843,1644543082713021278,,,,gyr,-0.352556496859,0.0104719754308,0.0523598790169
844,1644543082713475704,,,,gyr,-0.291469991207,-0.148352980614,0.0471238903701
845,1644543082713677645,0.0,-9.67916297913,0.666852176189,acc,,,
846,1644543082713975906,,,,gyr,-0.343829870224,0.130899697542,-0.0104719754308
847,1644543082714478254,,,,gyr,-0.352556496859,-0.0069813169539,0.0
848,1644543082714980364,,,,gyr,-0.366519153118,-0.141371667385,0.0279252678156
849,1644543082715528965,,,,gyr,-0.343829870224,0.0942477807403,0.0226892791688
850,1644543082715693474,-0.0294199492782,-9.64974308014,0.637432217598,acc,,,
851,1644543082715983629,,,,gyr,-0.387463092804,-0.0314159244299,0.0942477807403
852,1644543082716484308,,,,gyr,-0.296705961227,0.00872664619237,-0.0977384373546
853,1644543082716986895,,,,gyr,-0.403171062469,0.0209439508617,0.0645771846175
854,1644543082717489481,,,,gyr,-0.336848556995,-0.0261799395084,0.104719758034
855,1644543082717709780,-0.00980664975941,-9.61051654816,0.666852176189,acc,,,
856,1644543082718038321,,,,gyr,-0.291469991207,-0.0680678412318,-0.171042263508
857,1644543082718492985,,,,gyr,-0.464257568121,0.0261799395084,0.0872664600611
858,1644543082718993425,,,,gyr,-0.322885900736,-0.00349065847695,-0.0104719754308
859,1644543082719496012,,,,gyr,-0.404916375875,-0.0436332300305,0.123918376863
860,1644543082719724417,-0.0784531980753,-9.57129001617,0.627625584602,acc,,,
861,1644543082719998837,,,,gyr,-0.335103213787,0.0139626339078,-0.0750491544604
862,1644543082720547438,,,,gyr,-0.438077628613,0.0523598790169,-0.0104719754308
863,1644543082721001863,,,,gyr,-0.305432617664,-0.0558505356312,0.111701071262
864,1644543082721502781,,,,gyr,-0.418879032135,0.0279252678156,-0.104719758034
865,1644543082721740961,-0.0980664938688,-9.58109664917,0.57859236002,acc,,,
866,1644543082722005367,,,,gyr,-0.378736436367,-0.0436332300305,0.0139626339078
867,1644543082722507715,,,,gyr,-0.32637655735,-0.0610865242779,0.120427720249
868,1644543082723056555,,,,gyr,-0.431096315384,0.0506145469844,-0.102974422276
869,1644543082723511219,,,,gyr,-0.385717749596,0.0314159244299,0.0523598790169
870,1644543082723757505,-0.0686465501785,-9.58109664917,0.627625584602,acc,,,
871,1644543082724011660,,,,gyr,-0.448549628258,0.00523598771542,0.0523598790169
872,1644543082724514484,,,,gyr,-0.415388345718,-0.104719758034,-0.0715584978461
873,1644543082725015163,,,,gyr,-0.445058941841,0.150098308921,-0.0349065847695
874,1644543082725565672,,,,gyr,-0.368264466524,-0.141371667385,0.0855211317539
875,1644543082725771904,-0.0294199492782,-9.61051654816,0.637432217598,acc,,,
876,1644543082726020336,,,,gyr,-0.424115002155,0.0785398185253,0.0506145469844
877,1644543082726521015,,,,gyr,-0.457276254892,-0.0593411922455,-0.0942477807403
878,1644543082727023602,,,,gyr,-0.378736436367,-0.00523598771542,0.0471238903701
879,1644543082727524281,,,,gyr,-0.490437507629,0.0471238903701,-0.0226892791688
880,1644543082727788687,-0.0294199492782,-9.58109664917,0.598205626011,acc,,,
881,1644543082728075027,,,,gyr,-0.363028466702,-0.0104719754308,0.0558505356312
882,1644543082728529453,,,,gyr,-0.532325446606,-0.00349065847695,-0.0959931090474
883,1644543082729030371,,,,gyr,-0.457276254892,-0.0069813169539,0.0593411922455
884,1644543082729532719,,,,gyr,-0.359537810087,-0.0523598790169,-0.069813169539
885,1644543082729805231,-0.0784531980753,-9.56148338318,0.598205626011,acc,,,
886,1644543082730035305,,,,gyr,-0.455530941486,0.0349065847695,0.0436332300305
887,1644543082730584145,,,,gyr,-0.509636163712,0.0209439508617,0.0645771846175
888,1644543082731038809,,,,gyr,-0.403171062469,0.0,-0.069813169539
889,1644543082731539249,,,,gyr,-0.410152375698,-0.0471238903701,-0.0209439508617
890,1644543082731819630,-0.0392265990376,-9.57129001617,0.598205626011,acc,,,
891,1644543082732042074,,,,gyr,-0.544542729855,0.0349065847695,0.111701071262
892,1644543082732544661,,,,gyr,-0.413643032312,-0.0767944902182,0.0226892791688
893,1644543082733093262,,,,gyr,-0.527089416981,-0.00872664619237,-0.141371667385
894,1644543082733547926,,,,gyr,-0.455530941486,0.0104719754308,0.0191986225545
895,1644543082733836174,-0.00980664975941,-9.57129001617,0.558979034424,acc,,,
896,1644543082734048605,,,,gyr,-0.464257568121,0.0,0.00872664619237
897,1644543082734551191,,,,gyr,-0.497418820858,-0.0139626339078,-0.0104719754308
898,1644543082735053778,,,,gyr,-0.411897689104,-0.0314159244299,0.0558505356312
899,1644543082735602617,,,,gyr,-0.56548666954,0.0,-0.0383972451091
900,1644543082735852718,-0.0686465501785,-9.57129001617,0.57859236002,acc,,,
901,1644543082736057043,,,,gyr,-0.532325446606,0.0104719754308,0.00174532923847
902,1644543082736557722,,,,gyr,-0.459021598101,-0.0279252678156,0.0209439508617
903,1644543082737060308,,,,gyr,-0.439822971821,-0.0314159244299,-0.0436332300305
904,1644543082737562895,,,,gyr,-0.56548666954,0.0279252678156,0.0069813169539
905,1644543082737867355,-0.0686465501785,-9.53206348419,0.470719188452,acc,,,
906,1644543082738111496,,,,gyr,-0.457276254892,0.0,-0.0383972451091
907,1644543082738566160,,,,gyr,-0.488692194223,-0.0837758034468,-0.0802851468325
908,1644543082739066839,,,,gyr,-0.453785598278,-0.0104719754308,0.130899697542
909,1644543082739569664,,,,gyr,-0.567232012749,0.0296705961227,-0.102974422276
910,1644543082739883900,-0.00980664975941,-9.58109664917,0.362846046686,acc,,,
911,1644543082740072250,,,,gyr,-0.411897689104,-0.00174532923847,0.122173048556
912,1644543082740620852,,,,gyr,-0.51661747694,-0.0436332300305,-0.193731546402
913,1644543082741075516,,,,gyr,-0.51661747694,-0.0226892791688,0.202458187938
914,1644543082741576195,,,,gyr,-0.497418820858,0.0139626339078,-0.144862323999
915,1644543082741900444,0.0,-9.61051654816,0.38245934248,acc,,,
916,1644543082742078543,,,,gyr,-0.387463092804,0.0174532923847,0.0314159244299
917,1644543082742581367,,,,gyr,-0.518362760544,-0.0610865242779,0.0261799395084
918,1644543082743130207,,,,gyr,-0.490437507629,-0.0506145469844,0.0209439508617
919,1644543082743584633,,,,gyr,-0.514872133732,0.0645771846175,-0.0645771846175
920,1644543082743916988,-0.00980664975941,-9.58109664917,0.362846046686,acc,,,
921,1644543082744085312,,,,gyr,-0.455530941486,-0.069813169539,-0.137881010771
922,1644543082744587898,,,,gyr,-0.432841658592,-0.0226892791688,0.158824965358
923,1644543082745088577,,,,gyr,-0.555014669895,0.115191727877,-0.130899697542
924,1644543082745639086,,,,gyr,-0.376991122961,-0.167551606894,0.0104719754308
925,1644543082745931625,-0.00980664975941,-9.62032318115,0.294199496508,acc,,,
926,1644543082746093750,,,,gyr,-0.507890820503,0.0645771846175,0.00523598771542
927,1644543082746594429,,,,gyr,-0.472984224558,-0.0715584978461,-0.0069813169539
928,1644543082747097254,,,,gyr,-0.415388345718,0.0610865242779,-0.0296705961227
929,1644543082747597694,,,,gyr,-0.403171062469,-0.132645025849,-0.00523598771542
930,1644543082747950077,0.00980664975941,-9.64974308014,0.362846046686,acc,,,
931,1644543082748148441,,,,gyr,-0.528834760189,0.0104719754308,-0.0069813169539
932,1644543082748603106,,,,gyr,-0.352556496859,-0.0174532923847,0.0139626339078
933,1644543082749103546,,,,gyr,-0.518362760544,0.0104719754308,0.0
934,1644543082749606133,,,,gyr,-0.404916375875,-0.00174532923847,-0.0872664600611
935,1644543082749964714,0.00980664975941,-9.61051654816,0.343232750893,acc,,,
936,1644543082750107050,,,,gyr,-0.483456194401,-0.102974422276,0.069813169539
937,1644543082750657558,,,,gyr,-0.376991122961,-0.00872664619237,0.0296705961227
938,1644543082751111984,,,,gyr,-0.490437507629,0.0104719754308,-0.188495561481
939,1644543082751612902,,,,gyr,-0.361283153296,0.0104719754308,0.0785398185253
940,1644543082751979351,-0.0392265990376,-9.66935634613,0.274586200714,acc,,,
941,1644543082752115488,,,,gyr,-0.453785598278,-0.104719758034,0.0436332300305
942,1644543082752615929,,,,gyr,-0.396189749241,0.0471238903701,-0.0471238903701
943,1644543082753166676,,,,gyr,-0.438077628613,-0.069813169539,0.00872664619237
944,1644543082753621340,,,,gyr,-0.392699092627,0.0349065847695,-0.0610865242779
945,1644543082753995895,-0.0294199492782,-9.66935634613,0.274586200714,acc,,,
946,1644543082754122019,,,,gyr,-0.392699092627,-0.0872664600611,0.0471238903701
947,1644543082754624605,,,,gyr,-0.457276254892,0.00174532923847,-0.0523598790169
948,1644543082755125284,,,,gyr,-0.350811183453,-0.0104719754308,0.00174532923847
949,1644543082755676031,,,,gyr,-0.448549628258,0.0261799395084,-0.148352980614
950,1644543082756014347,0.00980664975941,-9.67916297913,0.294199496508,acc,,,
951,1644543082756130695,,,,gyr,-0.431096315384,-0.115191727877,0.167551606894
952,1644543082756631136,,,,gyr,-0.357792496681,-0.0069813169539,-0.0209439508617
953,1644543082757133722,,,,gyr,-0.370009809732,0.00349065847695,-0.0785398185253
954,1644543082757634640,,,,gyr,-0.404916375875,-0.0767944902182,0.069813169539
955,1644543082758028746,0.00980664975941,-9.67916297913,0.38245934248,acc,,,
956,1644543082758185148,,,,gyr,-0.492182850838,0.0890117883682,-0.0767944902182
957,1644543082758639574,,,,gyr,-0.361283153296,-0.0872664600611,0.0471238903701
958,1644543082759140491,,,,gyr,-0.396189749241,-0.0645771846175,-0.0959931090474
959,1644543082759643078,,,,gyr,-0.490437507629,-0.0436332300305,0.0593411922455
960,1644543082760045528,0.00980664975941,-9.61051654816,0.470719188452,acc,,,
961,1644543082760143518,,,,gyr,-0.404916375875,-0.0471238903701,0.0506145469844
962,1644543082760694265,,,,gyr,-0.472984224558,0.0104719754308,-0.158824965358
963,1644543082761148930,,,,gyr,-0.354301840067,-0.0837758034468,-0.0104719754308
964,1644543082761649609,,,,gyr,-0.541052043438,-0.0069813169539,0.0872664600611
965,1644543082762060165,-0.00980664975941,-9.61051654816,0.529559075832,acc,,,
966,1644543082762152433,,,,gyr,-0.422369688749,-0.00523598771542,-0.0383972451091
967,1644543082762653112,,,,gyr,-0.424115002155,-0.0471238903701,-0.0523598790169
968,1644543082763203859,,,,gyr,-0.476474881172,-0.0209439508617,0.069813169539
969,1644543082763658524,,,,gyr,-0.42760565877,-0.0785398185253,-0.0610865242779
970,1644543082764077187,-0.0686465501785,-9.61051654816,0.362846046686,acc,,,
971,1644543082764159203,,,,gyr,-0.361283153296,-0.0715584978461,-0.0523598790169
972,1644543082764661789,,,,gyr,-0.511381447315,-0.0279252678156,0.0593411922455
973,1644543082765162706,,,,gyr,-0.396189749241,-0.0139626339078,-0.0523598790169
974,1644543082765713453,,,,gyr,-0.500909507275,-0.00523598771542,0.0296705961227
975,1644543082766093969,0.0,-9.61051654816,0.343232750893,acc,,,
976,1644543082766167879,,,,gyr,-0.319395244122,-0.0959931090474,0.0104719754308
977,1644543082766668797,,,,gyr,-0.546288073063,-0.0436332300305,-0.102974422276
978,1644543082767171383,,,,gyr,-0.387463092804,-0.0383972451091,0.00349065847695
979,1644543082767672062,,,,gyr,-0.500909507275,0.0349065847695,0.0296705961227
980,1644543082768108845,-0.00980664975941,-9.58109664917,0.38245934248,acc,,,
981,1644543082768222809,,,,gyr,-0.335103213787,-0.167551606894,0.0139626339078
982,1644543082768677473,,,,gyr,-0.541052043438,0.0959931090474,-0.111701071262
983,1644543082769178152,,,,gyr,-0.431096315384,-0.0802851468325,0.0296705961227
984,1644543082769681215,,,,gyr,-0.490437507629,-0.0436332300305,-0.0680678412318
985,1644543082770125628,0.0,-9.64974308014,0.549172401428,acc,,,
986,1644543082770181656,,,,gyr,-0.38397243619,0.00523598771542,0.0558505356312
987,1644543082770732403,,,,gyr,-0.497418820858,-0.0436332300305,0.0191986225545
988,1644543082771187305,,,,gyr,-0.509636163712,-0.0785398185253,-0.0296705961227
989,1644543082771687984,,,,gyr,-0.431096315384,-0.0209439508617,0.0139626339078
990,1644543082772142649,-0.00980664975941,-9.62032318115,0.470719188452,acc,,,
991,1644543082772190571,,,,gyr,-0.507890820503,-0.0645771846175,-0.104719758034
992,1644543082772691488,,,,gyr,-0.474729537964,0.0174532923847,0.0209439508617
993,1644543082773242235,,,,gyr,-0.511381447315,-0.0471238903701,-0.104719758034
994,1644543082773696661,,,,gyr,-0.424115002155,-0.0383972451091,0.130899697542
995,1644543082774159431,0.00980664975941,-9.66935634613,0.470719188452,acc,,,
996,1644543082774197578,,,,gyr,-0.527089416981,0.0349065847695,-0.0226892791688
997,1644543082774700165,,,,gyr,-0.499164164066,-0.0925024524331,0.0942477807403
998,1644543082775200844,,,,gyr,-0.429351001978,0.0191986225545,-0.158824965358
999,1644543082775751591,,,,gyr,-0.507890820503,-0.0837758034468,0.0104719754308
1000,1644543082776174307,0.00980664975941,-9.67916297913,0.402072638273,acc,,,
1001,1644543082776206255,,,,gyr,-0.535816073418,-0.0296705961227,0.0296705961227
1002,1644543082776706934,,,,gyr,-0.457276254892,-0.0296705961227,0.0139626339078
1003,1644543082777209759,,,,gyr,-0.593411922455,0.0523598790169,-0.0436332300305
1004,1644543082777710438,,,,gyr,-0.406661719084,-0.069813169539,0.0942477807403
1005,1644543082778191090,-0.0392265990376,-9.62032318115,0.402072638273,acc,,,
1006,1644543082778261185,,,,gyr,-0.56548666954,0.0,0.00174532923847
1007,1644543082778713942,,,,gyr,-0.523598790169,0.0296705961227,-0.0226892791688
1008,1644543082779216528,,,,gyr,-0.492182850838,-0.123918376863,-0.0715584978461
1009,1644543082779719591,,,,gyr,-0.479965537786,0.0226892791688,0.0139626339078
1010,1644543082780208111,-0.0784531980753,-9.62032318115,0.421685934067,acc,,,
1011,1644543082780220032,,,,gyr,-0.542797386646,-0.0523598790169,-0.0296705961227
1012,1644543082780770779,,,,gyr,-0.555014669895,0.0471238903701,0.0471238903701
1013,1644543082781225681,,,,gyr,-0.532325446606,-0.0610865242779,-0.0558505356312
1014,1644543082781726360,,,,gyr,-0.511381447315,-0.0523598790169,0.0139626339078
1015,1644543082782222986,-0.0392265990376,-9.61051654816,0.362846046686,acc,,,
1016,1644543082782228947,,,,gyr,-0.506145477295,0.0680678412318,-0.00872664619237
1017,1644543082782729626,,,,gyr,-0.593411922455,-0.0436332300305,-0.0610865242779
1018,1644543082783280611,,,,gyr,-0.537561416626,-0.153588980436,-0.0139626339078
1019,1644543082783735037,,,,gyr,-0.555014669895,0.0802851468325,0.0959931090474
1020,1644543082784235954,,,,gyr,-0.579449295998,-0.141371667385,-0.0296705961227
1021,1644543082784239769,0.0294199492782,-9.67916297913,0.362846046686,acc,,,
1022,1644543082784738541,,,,gyr,-0.541052043438,0.0959931090474,0.00872664619237
1023,1644543082785239220,,,,gyr,-0.614355921745,-0.123918376863,-0.0890117883682
1024,1644543082785789967,,,,gyr,-0.518362760544,-0.104719758034,0.0436332300305
1025,1644543082786242723,,,,gyr,-0.645771801472,0.0069813169539,-0.0506145469844
1026,1644543082786254644,-0.00980664975941,-9.66935634613,0.362846046686,acc,,,
1027,1644543082786745310,,,,gyr,-0.551524043083,-0.0383972451091,-0.0436332300305
1028,1644543082787248135,,,,gyr,-0.60911989212,-0.0680678412318,0.0750491544604
1029,1644543082787748814,,,,gyr,-0.518362760544,-0.0959931090474,0.0139626339078
1030,1644543082788271427,-0.0686465501785,-9.64974308014,0.176519691944,acc,,,
1031,1644543082788299561,,,,gyr,-0.715584993362,-0.0209439508617,-0.0942477807403
1032,1644543082788752079,,,,gyr,-0.439822971821,-0.0959931090474,0.0349065847695
1033,1644543082789254904,,,,gyr,-0.689405024052,-0.0139626339078,0.0523598790169
1034,1644543082789757729,,,,gyr,-0.502654790878,-0.0279252678156,-0.102974422276
1035,1644543082790258408,,,,gyr,-0.555014669895,-0.127409040928,0.0383972451091
1036,1644543082790286303,-0.0686465501785,-9.66935634613,-0.00980664975941,acc,,,
1037,1644543082790809155,,,,gyr,-0.649262487888,-0.0471238903701,0.0523598790169
1038,1644543082791261911,,,,gyr,-0.432841658592,-0.0523598790169,-0.0471238903701
1039,1644543082791764736,,,,gyr,-0.525344073772,-0.0296705961227,-0.0785398185253
1040,1644543082792267323,,,,gyr,-0.570722639561,0.0593411922455,-0.0209439508617
1041,1644543082792301178,-0.0392265990376,-9.70858287811,-0.137293100357,acc,,,
1042,1644543082792768002,,,,gyr,-0.413643032312,-0.0959931090474,-0.0383972451091
1043,1644543082793318748,,,,gyr,-0.582939982414,-0.0977384373546,-0.00349065847695
1044,1644543082793771505,,,,gyr,-0.38920840621,0.0785398185253,-0.0261799395084
1045,1644543082794274092,,,,gyr,-0.403171062469,-0.202458187938,0.0767944902182
1046,1644543082794318199,-0.00980664975941,-9.67916297913,-0.264779537916,acc,,,
1047,1644543082794776917,,,,gyr,-0.483456194401,0.0191986225545,-0.00523598771542
1048,1644543082795277596,,,,gyr,-0.333357870579,-0.0314159244299,0.0523598790169
1049,1644543082795828342,,,,gyr,-0.34033921361,-0.0296705961227,-0.106465086341
1050,1644543082796283007,,,,gyr,-0.179768905044,-0.00872664619237,0.0523598790169
1051,1644543082796335220,0.294199496508,-9.98316955566,-2.28494930267,acc,,,
1052,1644543082796783686,,,,gyr,0.0279252678156,-0.0296705961227,0.0785398185253
1053,1644543082797286272,,,,gyr,0.167551606894,0.0314159244299,0.0383972451091
1054,1644543082797787189,,,,gyr,0.0069813169539,-0.0471238903701,0.0226892791688
1055,1644543082798337936,,,,gyr,0.0383972451091,-0.0349065847695,-0.0925024524331
1056,1644543082798352003,-0.735498726368,-9.58109664917,-0.627625584602,acc,,,
1057,1644543082798790455,,,,gyr,-0.188495561481,0.0104719754308,0.0069813169539
1058,1644543082799293280,,,,gyr,0.111701071262,-0.069813169539,-0.0226892791688
1059,1644543082799796104,,,,gyr,-0.123918376863,-0.0436332300305,0.0750491544604
1060,1644543082800296545,,,,gyr,-0.0104719754308,0.0802851468325,-0.00174532923847
1061,1644543082800370932,0.137293100357,-9.80665016174,0.509945809841,acc,,,
1062,1644543082800847769,,,,gyr,-0.0558505356312,0.0104719754308,0.0645771846175
1063,1644543082801300287,,,,gyr,0.0296705961227,-0.0296705961227,-0.0925024524331
1064,1644543082801802874,,,,gyr,0.0715584978461,0.0,0.0436332300305
1065,1644543082802305698,,,,gyr,-0.0872664600611,-0.0296705961227,-0.0349065847695
1066,1644543082802387714,0.137293100357,-9.56148338318,0.196132987738,acc,,,
1067,1644543082802806377,,,,gyr,0.11344639957,-0.0506145469844,0.0471238903701
1068,1644543082803355217,,,,gyr,-0.0715584978461,-0.0139626339078,0.0
1069,1644543082803809881,,,,gyr,-0.0104719754308,0.0069813169539,-0.0837758034468
1070,1644543082804312468,,,,gyr,-0.0680678412318,0.0279252678156,0.0349065847695
1071,1644543082804402590,-0.402072638273,-9.48303031921,0.166713044047,acc,,,
1072,1644543082804815292,,,,gyr,0.106465086341,-0.0104719754308,0.0471238903701
1073,1644543082805315971,,,,gyr,0.0104719754308,-0.0767944902182,-0.0610865242779
1074,1644543082805866718,,,,gyr,-0.0523598790169,0.0436332300305,0.0296705961227
1075,1644543082806319237,,,,gyr,0.0558505356312,-0.0785398185253,0.0
1076,1644543082806419373,-0.00980664975941,-9.99297618866,0.558979034424,acc,,,
1077,1644543082806822062,,,,gyr,-0.0523598790169,0.0209439508617,-0.00174532923847
1078,1644543082807324648,,,,gyr,-0.0174532923847,0.0104719754308,-0.0314159244299
1079,1644543082807825327,,,,gyr,0.0610865242779,-0.102974422276,0.0610865242779
1080,1644543082808374166,,,,gyr,0.0436332300305,0.0383972451091,-0.130899697542
1081,1644543082808434248,0.0686465501785,-9.25747776031,-0.166713044047,acc,,,
1082,1644543082808828831,,,,gyr,-0.0645771846175,-0.0296705961227,0.0383972451091
1083,1644543082809331656,,,,gyr,0.0872664600611,-0.0296705961227,0.0523598790169
1084,1644543082809834480,,,,gyr,-0.106465086341,0.069813169539,-0.0977384373546
1085,1644543082810335159,,,,gyr,0.0209439508617,-0.0785398185253,-0.0471238903701
1086,1644543082810451269,-0.12748645246,-9.71838951111,0.696272134781,acc,,,
1087,1644543082810885906,,,,gyr,0.0471238903701,-0.0261799395084,0.127409040928
1088,1644543082811338663,,,,gyr,-0.0558505356312,0.0383972451091,-0.115191727877
1089,1644543082811841249,,,,gyr,0.0296705961227,-0.0436332300305,0.0610865242779
1090,1644543082812344074,,,,gyr,0.0296705961227,0.0139626339078,-0.0349065847695
1091,1644543082812468052,-0.0980664938688,-9.78703689575,0.0980664938688,acc,,,
1092,1644543082812844753,,,,gyr,0.0296705961227,-0.0872664600611,0.0959931090474
1093,1644543082813393593,,,,gyr,-0.0296705961227,0.0349065847695,-0.102974422276
1094,1644543082813848257,,,,gyr,-0.0296705961227,0.0471238903701,-0.0349065847695
1095,1644543082814350843,,,,gyr,0.111701071262,-0.0767944902182,0.00523598771542
1096,1644543082814482927,-0.12748645246,-9.45361042023,0.245166242123,acc,,,
1097,1644543082814853430,,,,gyr,-0.0174532923847,-0.0069813169539,-0.0523598790169
1098,1644543082815354347,,,,gyr,-0.0279252678156,0.0261799395084,0.0837758034468
1099,1644543082815903187,,,,gyr,0.104719758034,0.0523598790169,-0.0785398185253
1100,1644543082816357613,,,,gyr,0.00174532923847,-0.122173048556,0.0558505356312
1101,1644543082816499949,-0.0294199492782,-9.7478094101,0.421685934067,acc,,,
1102,1644543082816860437,,,,gyr,0.0593411922455,0.0069813169539,-0.129154369235
1103,1644543082817363024,,,,gyr,-0.0610865242779,0.0436332300305,0.0436332300305
1104,1644543082817863703,,,,gyr,-0.0139626339078,-0.0645771846175,0.0558505356312
1105,1644543082818412542,,,,gyr,0.0139626339078,0.0349065847695,-0.0436332300305
1106,1644543082818516731,-0.0980664938688,-9.58109664917,0.0784531980753,acc,,,
1107,1644543082818867207,,,,gyr,0.0593411922455,-0.0523598790169,-0.0174532923847
1108,1644543082819370031,,,,gyr,0.0069813169539,-0.0349065847695,0.0209439508617
1109,1644543082819872856,,,,gyr,0.00872664619237,-0.0139626339078,-0.0349065847695
1110,1644543082820373535,,,,gyr,-0.0104719754308,0.0593411922455,-0.0349065847695
1111,1644543082820531845,-0.0392265990376,-9.64974308014,0.362846046686,acc,,,
1112,1644543082820924282,,,,gyr,0.106465086341,-0.0174532923847,0.0593411922455
1113,1644543082821377039,,,,gyr,-0.0610865242779,0.0383972451091,-0.162315621972
1114,1644543082821879625,,,,gyr,0.0209439508617,-0.0261799395084,0.23212878406
1115,1644543082822380304,,,,gyr,-0.00523598771542,-0.0104719754308,-0.209439516068
1116,1644543082822548628,-0.0294199492782,-9.64974308014,0.166713044047,acc,,,
1117,1644543082822883129,,,,gyr,0.0,-0.00523598771542,-0.0139626339078
1118,1644543082823431969,,,,gyr,0.0593411922455,-0.0785398185253,0.104719758034
1119,1644543082823886395,,,,gyr,-0.0279252678156,0.0436332300305,-0.0471238903701
1120,1644543082824389219,,,,gyr,0.0261799395084,0.0069813169539,-0.0436332300305
1121,1644543082824565411,-0.00980664975941,-9.64974308014,0.225552946329,acc,,,
1122,1644543082824891806,,,,gyr,0.0418879017234,-0.0436332300305,0.0139626339078
1123,1644543082825392485,,,,gyr,-0.0104719754308,-0.0558505356312,-0.0104719754308
1124,1644543082825941324,,,,gyr,0.0069813169539,-0.0139626339078,-0.0174532923847
1125,1644543082826395988,,,,gyr,0.0418879017234,-0.0261799395084,0.104719758034
1126,1644543082826582193,0.00980664975941,-9.62032318115,0.0980664938688,acc,,,
1127,1644543082826898575,,,,gyr,-0.0349065847695,-0.0191986225545,-0.218166157603
1128,1644543082827401400,,,,gyr,0.0436332300305,-0.115191727877,0.0471238903701
1129,1644543082827902079,,,,gyr,-0.0279252678156,0.0610865242779,-0.00349065847695
1130,1644543082828452826,,,,gyr,0.132645025849,-0.104719758034,0.0506145469844
1131,1644543082828597069,-0.0294199492782,-9.61051654816,0.0980664938688,acc,,,
1132,1644543082828905582,,,,gyr,-0.0349065847695,0.0785398185253,0.0209439508617
1133,1644543082829408407,,,,gyr,0.00523598771542,-0.0942477807403,-0.0191986225545
1134,1644543082829909086,,,,gyr,0.0104719754308,-0.069813169539,-0.109955742955
1135,1644543082830411911,,,,gyr,0.0296705961227,-0.0523598790169,0.0506145469844
1136,1644543082830614090,0.0,-9.67916297913,0.137293100357,acc,,,
1137,1644543082830960512,,,,gyr,-0.0715584978461,-0.0174532923847,-0.0506145469844
1138,1644543082831415176,,,,gyr,0.0558505356312,-0.0837758034468,0.0436332300305
1139,1644543082831918001,,,,gyr,-0.0506145469844,-0.0872664600611,-0.0349065847695
1140,1644543082832418680,,,,gyr,0.104719758034,-0.0226892791688,-0.0174532923847
1141,1644543082832630873,0.0392265990376,-9.62032318115,0.0980664938688,acc,,,
1142,1644543082832921505,,,,gyr,-0.0837758034468,-0.104719758034,0.00349065847695
1143,1644543082833470106,,,,gyr,0.0069813169539,0.0349065847695,-0.0261799395084
1144,1644543082833924770,,,,gyr,0.0471238903701,-0.211184844375,0.0436332300305
1145,1644543082834427595,,,,gyr,0.0174532923847,-0.0296705961227,0.0506145469844
1146,1644543082834647894,0.0392265990376,-9.64974308014,0.176519691944,acc,,,
1147,1644543082834928274,,,,gyr,-0.0471238903701,-0.0279252678156,-0.00174532923847
1148,1644543082835430861,,,,gyr,0.0314159244299,-0.0942477807403,-0.0680678412318
1149,1644543082835979700,,,,gyr,0.0680678412318,-0.0872664600611,0.00523598771542
1150,1644543082836434364,,,,gyr,-0.104719758034,0.00174532923847,0.0226892791688
1151,1644543082836664677,0.833565235138,-9.80665016174,0.686465501785,acc,,,
1152,1644543082836936951,,,,gyr,-0.0296705961227,-0.144862323999,0.0872664600611
1153,1644543082837437630,,,,gyr,-0.120427720249,0.0191986225545,0.122173048556
1154,1644543082837940454,,,,gyr,-0.0645771846175,-0.00523598771542,0.104719758034
1155,1644543082838489294,,,,gyr,-0.0349065847695,-0.0471238903701,0.0418879017234
1156,1644543082838679790,-0.166713044047,-9.49283695221,0.598205626011,acc,,,
1157,1644543082838944197,,,,gyr,-0.0104719754308,-0.0506145469844,0.144862323999
1158,1644543082839446783,,,,gyr,0.0139626339078,0.0,-0.118682384491
1159,1644543082839949369,,,,gyr,-0.0279252678156,-0.104719758034,0.141371667385
1160,1644543082840450287,,,,gyr,-0.0104719754308,-0.0279252678156,-0.0558505356312
1161,1644543082840692282,-0.843371868134,-10.1106557846,-0.0392265990376,acc,,,
1162,1644543082840999126,,,,gyr,-0.102974422276,0.0383972451091,-0.0785398185253
1163,1644543082841453552,,,,gyr,0.0802851468325,-0.00872664619237,0.0855211317539
1164,1644543082841956377,,,,gyr,-0.0296705961227,-0.0296705961227,0.123918376863
1165,1644543082842457056,,,,gyr,-0.0296705961227,-0.0471238903701,-0.0139626339078
1166,1644543082842711449,0.12748645246,-9.16921710968,0.343232750893,acc,,,
1167,1644543082842959642,,,,gyr,-0.0261799395084,0.0,-0.0837758034468
1168,1644543082843508482,,,,gyr,-0.0418879017234,-0.00523598771542,0.0558505356312
1169,1644543082843963146,,,,gyr,0.0383972451091,-0.0925024524331,0.0593411922455
1170,1644543082844465733,,,,gyr,-0.0645771846175,-0.0191986225545,0.0872664600611
1171,1644543082844728231,0.38245934248,-9.34573745728,0.00980664975941,acc,,,
1172,1644543082844966650,,,,gyr,0.0261799395084,-0.0209439508617,-0.0715584978461
1173,1644543082845469236,,,,gyr,-0.0436332300305,-0.0349065847695,0.0558505356312
1174,1644543082846018076,,,,gyr,-0.0209439508617,-0.0209439508617,0.0506145469844
1175,1644543082846472740,,,,gyr,-0.0837758034468,0.0209439508617,0.0069813169539
1176,1644543082846743107,-0.166713044047,-10.4146623611,0.362846046686,acc,,,
1177,1644543082846975565,,,,gyr,0.0296705961227,-0.0523598790169,0.0785398185253
1178,1644543082847476006,,,,gyr,-0.0523598790169,-0.0209439508617,-0.0261799395084
1179,1644543082847979069,,,,gyr,0.00174532923847,-0.00174532923847,0.0558505356312
1180,1644543082848527670,,,,gyr,-0.0645771846175,-0.0174532923847,0.0104719754308
1181,1644543082848762035,0.225552946329,-9.5222568512,0.313812792301,acc,,,
1182,1644543082848982334,,,,gyr,0.00872664619237,-0.0558505356312,-0.0296705961227
1183,1644543082849485159,,,,gyr,0.00174532923847,-0.0593411922455,0.102974422276
1184,1644543082849985838,,,,gyr,-0.144862323999,0.0471238903701,0.0523598790169
1185,1644543082850488424,,,,gyr,0.0418879017234,-0.102974422276,0.122173048556
1186,1644543082850776911,0.166713044047,-9.17902374268,0.196132987738,acc,,,
1187,1644543082851037264,,,,gyr,-0.0715584978461,-0.0104719754308,0.0314159244299
1188,1644543082851491928,,,,gyr,0.0104719754308,0.0296705961227,0.0296705961227
1189,1644543082851994514,,,,gyr,-0.0593411922455,-0.0750491544604,0.0610865242779
1190,1644543082852495432,,,,gyr,-0.0104719754308,-0.0785398185253,0.0837758034468
1191,1644543082852791786,-0.294199496508,-10.1596889496,0.166713044047,acc,,,
1192,1644543082852998018,,,,gyr,-0.0785398185253,0.0785398185253,-0.0977384373546
1193,1644543082853546858,,,,gyr,0.0104719754308,-0.101229093969,0.0523598790169
1194,1644543082854001522,,,,gyr,-0.0383972451091,0.0296705961227,0.0383972451091
1195,1644543082854504108,,,,gyr,-0.0209439508617,-0.0959931090474,0.0349065847695
1196,1644543082854808569,-0.0294199492782,-9.5222568512,0.12748645246,acc,,,
1197,1644543082855004787,,,,gyr,-0.0418879017234,0.0174532923847,0.0296705961227
1198,1644543082855507612,,,,gyr,-0.0139626339078,-0.0296705961227,0.0471238903701
1199,1644543082856056452,,,,gyr,0.0139626339078,-0.00523598771542,-0.0418879017234
1200,1644543082856511116,,,,gyr,-0.0593411922455,-0.0314159244299,0.136135682464
1201,1644543082856827736,0.176519691944,-9.38496398926,0.196132987738,acc,,,
1202,1644543082857013941,,,,gyr,-0.0296705961227,-0.0558505356312,-0.0436332300305
1203,1644543082857514620,,,,gyr,-0.0349065847695,0.0191986225545,0.111701071262
1204,1644543082858017445,,,,gyr,-0.069813169539,-0.0104719754308,-0.00523598771542
1205,1644543082858566046,,,,gyr,0.0436332300305,-0.0471238903701,0.0296705961227
1206,1644543082858842611,-0.0980664938688,-9.80665016174,0.166713044047,acc,,,
1207,1644543082859020710,,,,gyr,-0.069813169539,-0.0436332300305,0.0349065847695
1208,1644543082859523535,,,,gyr,-0.00349065847695,-0.0593411922455,-0.0191986225545
1209,1644543082860024214,,,,gyr,-0.0314159244299,0.118682384491,0.0523598790169
1210,1644543082860526800,,,,gyr,-0.0436332300305,-0.167551606894,0.0593411922455
1211,1644543082860859394,-0.0784531980753,-9.62032318115,0.137293100357,acc,,,
1212,1644543082861075640,,,,gyr,0.0139626339078,0.0471238903701,-0.0802851468325
1213,1644543082861530304,,,,gyr,-0.102974422276,-0.069813169539,0.0558505356312
1214,1644543082862032890,,,,gyr,0.0349065847695,-0.0069813169539,0.0191986225545
1215,1644543082862533808,,,,gyr,-0.0191986225545,-0.0296705961227,-0.0174532923847
1216,1644543082862874269,-0.0294199492782,-9.35554409027,0.0,acc,,,
1217,1644543082863036394,,,,gyr,-0.00349065847695,-0.0837758034468,0.0680678412318
1218,1644543082863585234,,,,gyr,-0.0767944902182,-0.0104719754308,0.0383972451091
1219,1644543082864039898,,,,gyr,0.0942477807403,-0.0645771846175,-0.0349065847695
1220,1644543082864542723,,,,gyr,-0.104719758034,0.0471238903701,-0.0349065847695
1221,1644543082864891052,-0.0980664938688,-9.62032318115,0.137293100357,acc,,,
1222,1644543082865043163,,,,gyr,-0.0226892791688,-0.123918376863,0.0750491544604
1223,1644543082865546227,,,,gyr,0.0314159244299,0.0296705961227,-0.0802851468325
1224,1644543082866094828,,,,gyr,-0.0802851468325,-0.0593411922455,0.122173048556
1225,1644543082866549492,,,,gyr,0.0680678412318,-0.148352980614,-0.0296705961227
1226,1644543082866905928,-0.0980664938688,-9.75761604309,-0.0294199492782,acc,,,
1227,1644543082867052317,,,,gyr,-0.0523598790169,-0.0069813169539,-0.0418879017234
1228,1644543082867552996,,,,gyr,-0.0296705961227,-0.0349065847695,0.0977384373546
1229,1644543082868055582,,,,gyr,0.0593411922455,-0.123918376863,-0.0977384373546
1230,1644543082868604422,,,,gyr,-0.0715584978461,0.00523598771542,0.122173048556
1231,1644543082868924856,0.451105892658,-9.24767112732,0.402072638273,acc,,,
1232,1644543082869059086,,,,gyr,0.0279252678156,0.0349065847695,-0.00872664619237
1233,1644543082869561672,,,,gyr,-0.0296705961227,-0.120427720249,-0.00872664619237
1234,1644543082870062590,,,,gyr,0.0261799395084,-0.0523598790169,0.0558505356312
1235,1644543082870565176,,,,gyr,-0.0418879017234,0.0139626339078,-0.0139626339078
1236,1644543082870939732,-0.470719188452,-9.61051654816,0.00980664975941,acc,,,
1237,1644543082871114016,,,,gyr,0.0383972451091,-0.069813169539,-0.0750491544604
1238,1644543082871568680,,,,gyr,-0.00872664619237,-0.0558505356312,0.157079637051
1239,1644543082872071266,,,,gyr,-0.00872664619237,-0.0296705961227,-0.0942477807403
1240,1644543082872571945,,,,gyr,-0.00523598771542,-0.0471238903701,0.069813169539
1241,1644543082872958660,0.0392265990376,-9.94394302368,0.38245934248,acc,,,
1242,1644543082873074770,,,,gyr,-0.0139626339078,0.0104719754308,-0.0750491544604
1243,1644543082873623610,,,,gyr,-0.0383972451091,-0.0349065847695,0.0785398185253
1244,1644543082874078274,,,,gyr,0.00349065847695,-0.069813169539,0.118682384491
1245,1644543082874581099,,,,gyr,0.0191986225545,-0.0436332300305,-0.0471238903701
1246,1644543082874971390,0.00980664975941,-8.99269771576,0.00980664975941,acc,,,
1247,1644543082875081778,,,,gyr,0.0837758034468,-0.0959931090474,-0.0226892791688
1248,1644543082875584364,,,,gyr,-0.0610865242779,0.0209439508617,0.0104719754308
1249,1644543082876133204,,,,gyr,0.0174532923847,-0.0872664600611,-0.0296705961227
1250,1644543082876587868,,,,gyr,-0.0279252678156,0.00349065847695,0.0715584978461
1251,1644543082876990557,0.245166242123,-10.0125894547,0.509945809841,acc,,,
1252,1644543082877090693,,,,gyr,0.0,-0.0436332300305,-0.0209439508617
1253,1644543082877591372,,,,gyr,0.00872664619237,-0.0314159244299,0.0959931090474
1254,1644543082878093958,,,,gyr,-0.0383972451091,0.0261799395084,0.0104719754308
1255,1644543082878642797,,,,gyr,0.0383972451091,-0.0872664600611,0.0191986225545
1256,1644543082879007339,-0.00980664975941,-9.53206348419,0.294199496508,acc,,,
1257,1644543082879097462,,,,gyr,-0.0418879017234,-0.0349065847695,0.0
1258,1644543082879600048,,,,gyr,-0.00349065847695,0.0471238903701,0.0349065847695
1259,1644543082880100727,,,,gyr,0.0104719754308,0.00174532923847,0.0610865242779
1260,1644543082880603552,,,,gyr,0.0104719754308,-0.0767944902182,-0.0104719754308
1261,1644543082881020308,-0.470719188452,-9.70858287811,0.0,acc,,,
1262,1644543082881152391,,,,gyr,-0.0349065847695,0.0471238903701,-0.0890117883682
1263,1644543082881606817,,,,gyr,-0.00523598771542,-0.106465086341,0.111701071262
1264,1644543082882109880,,,,gyr,-0.0104719754308,0.00872664619237,-0.0296705961227
1265,1644543082882610321,,,,gyr,0.0261799395084,0.0209439508617,0.0349065847695
1266,1644543082883038998,-0.0294199492782,-9.61051654816,0.176519691944,acc,,,
1267,1644543082883113384,,,,gyr,-0.0226892791688,-0.0872664600611,-0.00174532923847
1268,1644543082883661747,,,,gyr,0.0296705961227,0.0645771846175,-0.0977384373546
1269,1644543082884116650,,,,gyr,-0.0349065847695,-0.069813169539,0.0139626339078
1270,1644543082884619474,,,,gyr,-0.00174532923847,-0.127409040928,0.162315621972
1271,1644543082885056019,0.362846046686,-9.48303031921,0.0686465501785,acc,,,
1272,1644543082885120153,,,,gyr,0.0314159244299,0.0191986225545,-0.0104719754308
1273,1644543082885622740,,,,gyr,0.00872664619237,0.0191986225545,-0.0436332300305
1274,1644543082886171579,,,,gyr,0.0523598790169,-0.0610865242779,0.0209439508617
1275,1644543082886626244,,,,gyr,-0.0837758034468,-0.0349065847695,0.0296705961227
1276,1644543082887070894,-0.00980664975941,-9.96355628967,0.362846046686,acc,,,
1277,1644543082887128830,,,,gyr,0.0558505356312,0.0314159244299,-0.0506145469844
1278,1644543082887629747,,,,gyr,-0.0645771846175,-0.0523598790169,0.0785398185253
1279,1644543082888132334,,,,gyr,-0.0261799395084,0.00523598771542,0.00872664619237
1280,1644543082888681173,,,,gyr,0.0104719754308,-0.0872664600611,0.0471238903701
1281,1644543082889087677,-0.196132987738,-9.5222568512,0.12748645246,acc,,,
1282,1644543082889135838,,,,gyr,0.069813169539,-0.0436332300305,0.0436332300305
1283,1644543082889638424,,,,gyr,-0.106465086341,0.0785398185253,-0.153588980436
1284,1644543082890139103,,,,gyr,0.0558505356312,-0.120427720249,0.106465086341
1285,1644543082890641928,,,,gyr,-0.0139626339078,0.069813169539,0.0104719754308
1286,1644543082891104698,-0.12748645246,-9.56148338318,0.196132987738,acc,,,
1287,1644543082891190767,,,,gyr,0.0314159244299,-0.0645771846175,0.0069813169539
1288,1644543082891645432,,,,gyr,-0.0139626339078,0.0349065847695,0.0104719754308
1289,1644543082892148256,,,,gyr,-0.0977384373546,-0.0139626339078,-0.0069813169539
1290,1644543082892648935,,,,gyr,0.0680678412318,-0.069813169539,0.0349065847695
1291,1644543082893119574,-0.0392265990376,-9.78703689575,0.196132987738,acc,,,
1292,1644543082893151522,,,,gyr,-0.0296705961227,0.0296705961227,-0.0104719754308
1293,1644543082893700361,,,,gyr,0.0802851468325,-0.0436332300305,0.0872664600611
1294,1644543082894155025,,,,gyr,-0.122173048556,0.0,-0.0523598790169
1295,1644543082894657612,,,,gyr,0.136135682464,-0.0645771846175,0.0715584978461
1296,1644543082895138502,0.225552946329,-9.64974308014,0.294199496508,acc,,,
1297,1644543082895158529,,,,gyr,-0.0890117883682,0.0139626339078,-0.0872664600611
1298,1644543082895661116,,,,gyr,-0.0104719754308,0.0209439508617,0.0610865242779
1299,1644543082896209955,,,,gyr,-0.0174532923847,-0.0349065847695,-0.0226892791688
1300,1644543082896664619,,,,gyr,0.0383972451091,-0.0139626339078,0.102974422276
1301,1644543082897153378,-0.12748645246,-9.64974308014,0.166713044047,acc,,,
1302,1644543082897167206,,,,gyr,-0.0261799395084,-0.0069813169539,0.0226892791688
1303,1644543082897667885,,,,gyr,0.0383972451091,0.0418879017234,-0.0680678412318
1304,1644543082898170710,,,,gyr,0.0,0.0,0.0872664600611
1305,1644543082898719549,,,,gyr,-0.0383972451091,-0.00523598771542,-0.0610865242779
1306,1644543082899168253,-0.264779537916,-9.7478094101,0.137293100357,acc,,,
1307,1644543082899173975,,,,gyr,-0.00872664619237,-0.0523598790169,-0.0436332300305
1308,1644543082899677038,,,,gyr,-0.0139626339078,0.0436332300305,0.130899697542
1309,1644543082900177717,,,,gyr,0.0,-0.0139626339078,-0.0610865242779
1310,1644543082900680304,,,,gyr,0.0314159244299,-0.109955742955,0.104719758034
1311,1644543082901186943,0.225552946329,-9.61051654816,0.225552946329,acc,,,
1312,1644543082901229143,,,,gyr,-0.0436332300305,0.0837758034468,-0.0436332300305
1313,1644543082901683807,,,,gyr,-0.00349065847695,0.0,0.0890117883682
1314,1644543082902186632,,,,gyr,0.0523598790169,-0.0174532923847,0.0104719754308
1315,1644543082902687311,,,,gyr,-0.00174532923847,-0.00174532923847,0.0104719754308
1316,1644543082903189898,,,,gyr,-0.0872664600611,0.0296705961227,-0.0139626339078
1317,1644543082903201818,0.0,-9.57129001617,0.0980664938688,acc,,,
1318,1644543082903738737,,,,gyr,0.0471238903701,0.0383972451091,0.00523598771542
1319,1644543082904193401,,,,gyr,-0.0349065847695,-0.0436332300305,0.0890117883682
1320,1644543082904695988,,,,gyr,0.0680678412318,-0.0191986225545,-0.069813169539
1321,1644543082905196667,,,,gyr,-0.118682384491,0.0436332300305,0.0471238903701
1322,1644543082905216694,-0.402072638273,-9.94394302368,0.274586200714,acc,,,
1323,1644543082905699492,,,,gyr,0.069813169539,-0.0610865242779,-0.0523598790169
1324,1644543082906248331,,,,gyr,-0.101229093969,0.0645771846175,0.0383972451091
1325,1644543082906702995,,,,gyr,0.0750491544604,-0.0785398185253,0.0436332300305
1326,1644543082907203674,,,,gyr,0.0506145469844,0.0,-0.0104719754308
1327,1644543082907233715,-0.0294199492782,-9.34573745728,0.0392265990376,acc,,,
1328,1644543082907706261,,,,gyr,-0.0977384373546,0.0209439508617,0.0593411922455
1329,1644543082908209324,,,,gyr,0.0383972451091,-0.0436332300305,0.0296705961227
1330,1644543082908757925,,,,gyr,0.00349065847695,-0.0226892791688,-0.0872664600611
1331,1644543082909212589,,,,gyr,-0.00523598771542,0.0279252678156,0.0959931090474
1332,1644543082909252644,0.12748645246,-9.48303031921,0.0784531980753,acc,,,
1333,1644543082909715414,,,,gyr,0.0209439508617,0.0436332300305,0.0104719754308
1334,1644543082910216093,,,,gyr,-0.00349065847695,-0.0610865242779,-0.0191986225545
1335,1644543082910718679,,,,gyr,0.0104719754308,-0.0279252678156,0.0785398185253
1336,1644543082911267519,,,,gyr,-0.0506145469844,0.0593411922455,-0.157079637051
1337,1644543082911269426,0.12748645246,-9.88510322571,0.38245934248,acc,,,
1338,1644543082911722183,,,,gyr,0.0750491544604,-0.0209439508617,0.0349065847695
1339,1644543082912224770,,,,gyr,-0.139626339078,-0.0436332300305,0.176278248429
1340,1644543082912725687,,,,gyr,0.069813169539,-0.0139626339078,-0.0139626339078
1341,1644543082913228273,,,,gyr,-0.0715584978461,0.0174532923847,0.0680678412318
1342,1644543082913284540,-0.0686465501785,-9.64974308014,0.0980664938688,acc,,,
1343,1644543082913777113,,,,gyr,0.0349065847695,-0.0069813169539,-0.0523598790169
1344,1644543082914231777,,,,gyr,0.0593411922455,-0.0349065847695,0.0890117883682
1345,1644543082914734364,,,,gyr,0.0104719754308,-0.0261799395084,0.069813169539
1346,1644543082915235043,,,,gyr,-0.0593411922455,0.0209439508617,-0.136135682464
1347,1644543082915301323,-0.137293100357,-9.38496398926,0.196132987738,acc,,,
1348,1644543082915737867,,,,gyr,-0.00174532923847,0.0069813169539,0.0680678412318
1349,1644543082916286707,,,,gyr,-0.0174532923847,0.0383972451091,0.179768905044
1350,1644543082916741371,,,,gyr,0.0069813169539,-0.106465086341,-0.183259576559
1351,1644543082917242289,,,,gyr,-0.0523598790169,0.130899697542,0.185004904866
1352,1644543082917318106,0.225552946329,-9.80665016174,0.274586200714,acc,,,
1353,1644543082917744875,,,,gyr,0.0523598790169,-0.0471238903701,-0.0558505356312
1354,1644543082918247461,,,,gyr,-0.122173048556,0.0226892791688,0.137881010771
1355,1644543082918796301,,,,gyr,0.0593411922455,0.00174532923847,-0.0261799395084
1356,1644543082919250965,,,,gyr,0.0174532923847,-0.0785398185253,0.0959931090474
1357,1644543082919334888,0.176519691944,-9.7478094101,0.137293100357,acc,,,
1358,1644543082919751644,,,,gyr,-0.104719758034,0.0261799395084,0.0418879017234
1359,1644543082920254469,,,,gyr,0.0523598790169,0.0785398185253,0.0436332300305
1360,1644543082920757055,,,,gyr,-0.0383972451091,-0.130899697542,0.0436332300305
1361,1644543082921305895,,,,gyr,0.0174532923847,0.104719758034,0.0279252678156
1362,1644543082921349764,0.0784531980753,-9.58109664917,0.245166242123,acc,,,
1363,1644543082921760559,,,,gyr,-0.0523598790169,-0.0610865242779,0.0558505356312
1364,1644543082922261238,,,,gyr,0.0296705961227,0.0349065847695,0.0645771846175
1365,1644543082922763824,,,,gyr,-0.0191986225545,-0.0680678412318,0.127409040928
1366,1644543082923266649,,,,gyr,-0.0104719754308,0.0645771846175,0.0209439508617
1367,1644543082923364639,-0.0784531980753,-9.71838951111,0.196132987738,acc,,,
1368,1644543082923815489,,,,gyr,-0.0139626339078,-0.0174532923847,0.0471238903701
1369,1644543082924269915,,,,gyr,-0.0104719754308,0.0226892791688,0.0471238903701
1370,1644543082924770832,,,,gyr,-0.0680678412318,-0.0436332300305,0.102974422276
1371,1644543082925273657,,,,gyr,0.0750491544604,-0.0349065847695,0.0349065847695
1372,1644543082925383806,0.12748645246,-9.70858287811,0.245166242123,acc,,,
1373,1644543082925776482,,,,gyr,0.0139626339078,0.0104719754308,0.0349065847695
1374,1644543082926325083,,,,gyr,-0.0436332300305,-0.00349065847695,0.0558505356312
1375,1644543082926779747,,,,gyr,-0.0279252678156,0.0139626339078,0.102974422276
1376,1644543082927282572,,,,gyr,0.0104719754308,-0.0349065847695,0.0523598790169
1377,1644543082927398682,0.0686465501785,-9.58109664917,0.12748645246,acc,,,
1378,1644543082927783251,,,,gyr,-0.0314159244299,0.0139626339078,0.0418879017234
1379,1644543082928285837,,,,gyr,-0.0069813169539,-0.0558505356312,0.11344639957
1380,1644543082928834677,,,,gyr,-0.0558505356312,0.0767944902182,0.0226892791688
1381,1644543082929289341,,,,gyr,0.0610865242779,-0.0471238903701,0.144862323999
1382,1644543082929413557,-0.166713044047,-9.71838951111,0.196132987738,acc,,,
1383,1644543082929791927,,,,gyr,-0.0593411922455,-0.0296705961227,0.0296705961227
1384,1644543082930292606,,,,gyr,-0.0977384373546,0.0349065847695,0.162315621972
1385,1644543082930795431,,,,gyr,0.0925024524331,-0.0506145469844,-0.069813169539
1386,1644543082931344271,,,,gyr,0.0,-0.0296705961227,0.202458187938
1387,1644543082931430340,-0.166713044047,-9.64974308014,0.176519691944,acc,,,
1388,1644543082931798935,,,,gyr,-0.0977384373546,0.0,-0.0942477807403
1389,1644543082932301760,,,,gyr,0.0279252678156,-0.0209439508617,0.223402142525
1390,1644543082932802439,,,,gyr,-0.00872664619237,-0.0349065847695,0.0645771846175
1391,1644543082933305264,,,,gyr,-0.00174532923847,0.0349065847695,-0.0558505356312
1392,1644543082933447361,0.00980664975941,-9.64974308014,0.245166242123,acc,,,
1393,1644543082933853865,,,,gyr,-0.0139626339078,0.00523598771542,0.21991148591
1394,1644543082934308529,,,,gyr,-0.0139626339078,-0.0139626339078,-0.0436332300305
1395,1644543082934811354,,,,gyr,0.0349065847695,-0.0209439508617,0.118682384491
1396,1644543082935312033,,,,gyr,-0.0523598790169,-0.00174532923847,0.0139626339078
1397,1644543082935464144,0.0686465501785,-9.66935634613,0.264779537916,acc,,,
1398,1644543082935814619,,,,gyr,-0.00349065847695,-0.0069813169539,0.0418879017234
1399,1644543082936363459,,,,gyr,-0.00174532923847,-0.0104719754308,0.144862323999
1400,1644543082936818123,,,,gyr,-0.0296705961227,-0.0506145469844,0.158824965358
1401,1644543082937318802,,,,gyr,0.0139626339078,0.0436332300305,-0.0383972451091
1402,1644543082937481165,-0.402072638273,-9.62032318115,0.12748645246,acc,,,
1403,1644543082937821627,,,,gyr,0.00523598771542,0.00523598771542,0.0750491544604
1404,1644543082938324213,,,,gyr,-0.00523598771542,0.069813169539,0.0593411922455
1405,1644543082938873053,,,,gyr,-0.0104719754308,-0.069813169539,0.0296705961227
1406,1644543082939327717,,,,gyr,-0.0436332300305,0.0,0.0436332300305
1407,1644543082939495802,-0.196132987738,-9.48303031921,0.166713044047,acc,,,
1408,1644543082939828396,,,,gyr,0.0837758034468,0.0139626339078,0.0802851468325
1409,1644543082940330982,,,,gyr,-0.0977384373546,-0.0558505356312,0.0349065847695
1410,1644543082940834045,,,,gyr,0.0296705961227,0.0837758034468,0.0750491544604
1411,1644543082941382647,,,,gyr,-0.0069813169539,-0.0872664600611,0.104719758034
1412,1644543082941512823,-0.451105892658,-9.7478094101,0.274586200714,acc,,,
1413,1644543082941837311,,,,gyr,-0.0296705961227,0.069813169539,-0.0506145469844
1414,1644543082942338228,,,,gyr,0.0436332300305,-0.0349065847695,-0.0349065847695
1415,1644543082942840815,,,,gyr,-0.0139626339078,0.069813169539,0.130899697542
1416,1644543082943343401,,,,gyr,0.00349065847695,-0.069813169539,0.0069813169539
1417,1644543082943529844,-0.0980664938688,-9.78703689575,0.245166242123,acc,,,
1418,1644543082943892241,,,,gyr,0.0,0.0314159244299,0.0890117883682
1419,1644543082944346905,,,,gyr,-0.0471238903701,0.0226892791688,-0.0872664600611
1420,1644543082944847584,,,,gyr,0.0837758034468,-0.0610865242779,0.0680678412318
1421,1644543082945350409,,,,gyr,-0.0942477807403,0.0785398185253,0.115191727877
1422,1644543082945546627,-0.0980664938688,-9.5222568512,0.274586200714,acc,,,
1423,1644543082945852995,,,,gyr,0.0104719754308,-0.0506145469844,0.0139626339078
1424,1644543082946401834,,,,gyr,0.0349065847695,0.0104719754308,0.0104719754308
1425,1644543082946856499,,,,gyr,0.0069813169539,0.0349065847695,0.0296705961227
1426,1644543082947357178,,,,gyr,-0.0471238903701,-0.0785398185253,0.0471238903701
1427,1644543082947561502,-0.490332484245,-9.61051654816,0.176519691944,acc,,,
1428,1644543082947859764,,,,gyr,0.0104719754308,0.0959931090474,-0.0209439508617
1429,1644543082948362827,,,,gyr,-0.0279252678156,-0.069813169539,0.069813169539
1430,1644543082948911428,,,,gyr,0.0523598790169,-0.0069813169539,-0.069813169539
1431,1644543082949366093,,,,gyr,-0.129154369235,0.0349065847695,-0.00349065847695
1432,1644543082949578285,-0.509945809841,-9.7478094101,0.166713044047,acc,,,
1433,1644543082949867010,,,,gyr,0.106465086341,-0.069813169539,0.0837758034468
1434,1644543082950369596,,,,gyr,-0.0785398185253,0.0785398185253,-0.0785398185253
1435,1644543082950872421,,,,gyr,0.0226892791688,0.0174532923847,0.0104719754308
1436,1644543082951421261,,,,gyr,-0.0296705961227,-0.115191727877,0.0436332300305
1437,1644543082951595306,-0.637432217598,-9.34573745728,0.196132987738,acc,,,
1438,1644543082952376366,,,,gyr,0.0174532923847,-0.106465086341,0.0
1439,1644543082952879190,,,,gyr,-0.0506145469844,0.0558505356312,-0.00523598771542
1440,1644543082953381777,,,,gyr,0.0750491544604,-0.0506145469844,-0.0174532923847
1441,1644543082953612328,0.0392265990376,-9.62032318115,0.264779537916,acc,,,
1442,1644543082953930616,,,,gyr,-0.0296705961227,0.0104719754308,-0.122173048556
1443,1644543082954385281,,,,gyr,0.0558505356312,-0.0610865242779,0.0296705961227
1444,1644543082954885960,,,,gyr,-0.122173048556,0.0890117883682,-0.0785398185253
1445,1644543082955388784,,,,gyr,0.11344639957,-0.104719758034,0.0837758034468
1446,1644543082955629110,-0.490332484245,-9.64974308014,0.264779537916,acc,,,
1447,1644543082955891609,,,,gyr,0.0209439508617,0.0209439508617,-0.0383972451091
1448,1644543082956440210,,,,gyr,-0.11344639957,0.0436332300305,-0.191986218095
1449,1644543082956895113,,,,gyr,0.00872664619237,-0.0506145469844,-0.0296705961227
1450,1644543082957395792,,,,gyr,0.0209439508617,-0.0436332300305,-0.0977384373546
1451,1644543082957643986,-0.804145276546,-9.62032318115,0.245166242123,acc,,,
1452,1644543082957898378,,,,gyr,-0.0383972451091,0.0436332300305,0.0959931090474
1453,1644543082958401203,,,,gyr,0.0209439508617,-0.00174532923847,-0.284488677979
1454,1644543082958950043,,,,gyr,-0.0296705961227,0.0209439508617,-0.0436332300305
1455,1644543082959404469,,,,gyr,0.141371667385,-0.0261799395084,0.0680678412318
1456,1644543082959661007,-0.38245934248,-9.31631755829,0.176519691944,acc,,,
1457,1644543082959905386,,,,gyr,-0.0890117883682,-0.0279252678156,-0.11344639957
1458,1644543082960407972,,,,gyr,0.0349065847695,-0.0523598790169,-0.209439516068
1459,1644543082960910559,,,,gyr,-0.0191986225545,0.0436332300305,0.0610865242779
1460,1644543082961459398,,,,gyr,0.0174532923847,-0.0191986225545,-0.211184844375
1461,1644543082961677790,-0.264779537916,-9.61051654816,0.225552946329,acc,,,
1462,1644543082961914063,,,,gyr,-0.0645771846175,-0.0069813169539,-0.0349065847695
1463,1644543082962414742,,,,gyr,0.069813169539,0.0680678412318,-0.115191727877
1464,1644543082962917566,,,,gyr,-0.0139626339078,-0.0942477807403,-0.0506145469844
1465,1644543082963418245,,,,gyr,0.00174532923847,0.0174532923847,-0.25830873847
1466,1644543082963694572,-0.176519691944,-9.80665016174,0.362846046686,acc,,,
1467,1644543082963968992,,,,gyr,0.0226892791688,0.00349065847695,-0.0645771846175
1468,1644543082964423895,,,,gyr,0.0139626339078,0.0349065847695,0.0209439508617
1469,1644543082964924574,,,,gyr,-0.0715584978461,-0.0174532923847,-0.176278248429
1470,1644543082965427160,,,,gyr,0.00523598771542,-0.0523598790169,-0.249582082033
1471,1644543082965709448,-0.833565235138,-9.38496398926,0.0686465501785,acc,,,
1472,1644543082965928078,,,,gyr,0.0959931090474,0.0104719754308,-0.0226892791688
1473,1644543082966478825,,,,gyr,-0.130899697542,0.0174532923847,-0.179768905044
1474,1644543082966933250,,,,gyr,0.0715584978461,-0.109955742955,-0.197222203016
1475,1644543082967434168,,,,gyr,0.0349065847695,0.069813169539,-0.193731546402
1476,1644543082967726469,-0.843371868134,-9.49283695221,0.12748645246,acc,,,
1477,1644543082967936754,,,,gyr,-0.0174532923847,-0.0558505356312,-0.205948844552
1478,1644543082968439341,,,,gyr,0.0069813169539,-0.0418879017234,-0.200712859631
1479,1644543082968988180,,,,gyr,0.00872664619237,0.00523598771542,-0.0785398185253
1480,1644543082969442844,,,,gyr,-0.0261799395084,-0.0610865242779,-0.205948844552
1481,1644543082969743490,0.0392265990376,-9.67916297913,0.362846046686,acc,,,
1482,1644543082969943523,,,,gyr,0.0296705961227,0.0349065847695,-0.202458187938
1483,1644543082970446348,,,,gyr,-0.0174532923847,-0.0872664600611,-0.228638127446
1484,1644543082970947027,,,,gyr,0.00523598771542,0.0104719754308,-0.0977384373546
1485,1644543082971497774,,,,gyr,0.0383972451091,0.0296705961227,-0.191986218095
1486,1644543082971758366,-0.362846046686,-9.45361042023,0.166713044047,acc,,,
1487,1644543082971952677,,,,gyr,-0.00523598771542,-0.0506145469844,-0.287979334593
1488,1644543082972453356,,,,gyr,0.0506145469844,-0.0104719754308,-0.132645025849
1489,1644543082972955942,,,,gyr,-0.0925024524331,-0.0645771846175,-0.223402142525
1490,1644543082973456860,,,,gyr,0.118682384491,-0.0226892791688,0.0296705961227
1491,1644543082973775148,6.08012294769,-10.1596889496,-0.362846046686,acc,,,
1492,1644543082974007607,,,,gyr,0.0261799395084,0.0383972451091,0.0925024524331
1493,1644543082974462271,,,,gyr,0.0872664600611,-0.0645771846175,0.0715584978461
1494,1644543082974962950,,,,gyr,-0.0872664600611,0.0296705961227,0.21991148591
1495,1644543082975465536,,,,gyr,-0.141371667385,-0.0226892791688,0.130899697542
1496,1644543082975791931,2.26533603668,-11.0422878265,2.28494930267,acc,,,
1497,1644543082975966215,,,,gyr,-0.0069813169539,-0.0349065847695,0.193731546402
1498,1644543082976517200,,,,gyr,0.0715584978461,0.0261799395084,0.0785398185253
1499,1644543082976971626,,,,gyr,0.00349065847695,0.00523598771542,0.0069813169539
1500,1644543082977472305,,,,gyr,-0.0296705961227,-0.111701071262,-0.0942477807403
1501,1644543082977806807,-4.04033946991,-9.03192424774,-0.137293100357,acc,,,
1502,1644543082977975130,,,,gyr,0.0069813169539,0.069813169539,-0.174532920122
1503,1644543082978475809,,,,gyr,0.0593411922455,-0.0174532923847,-0.0174532923847
1504,1644543082979026556,,,,gyr,0.0506145469844,0.00174532923847,-0.0471238903701
1505,1644543082979481459,,,,gyr,-0.0802851468325,-0.0523598790169,0.136135682464
1506,1644543082979823828,-0.872791826725,-10.4146623611,0.529559075832,acc,,,
1507,1644543082979981899,,,,gyr,0.0610865242779,0.0471238903701,-0.0139626339078
1508,1644543082980484962,,,,gyr,-0.136135682464,-0.0436332300305,0.0610865242779
1509,1644543082980985641,,,,gyr,-0.0506145469844,-0.00174532923847,-0.0296705961227
1510,1644543082981536388,,,,gyr,0.132645025849,0.00523598771542,-0.202458187938
1511,1644543082981838703,-4.19724607468,-6.89407491684,-1.31409108639,acc,,,
1512,1644543082981991053,,,,gyr,0.0715584978461,0.0349065847695,-0.115191727877
1513,1644543082982491732,,,,gyr,-0.0436332300305,0.0279252678156,-0.289724647999
1514,1644543082982994318,,,,gyr,-0.0593411922455,0.0837758034468,-0.179768905044
1515,1644543082983495235,,,,gyr,0.069813169539,-0.111701071262,-0.226892799139
1516,1644543082983857632,4.85429143906,-10.0322027206,0.176519691944,acc,,,
1517,1644543082984045982,,,,gyr,0.111701071262,-0.0104719754308,-0.137881010771
