,field.header.stamp,field.linear_acceleration.x,field.linear_acceleration.y,field.linear_acceleration.z,type,field.angular_velocity.x,field.angular_velocity.y,field.angular_velocity.z
0,1644542388414987803,0.598205626011,-9.62032318115,0.245166242123,acc,,,
1,1644542388416251659,,,,gyr,-0.00523598771542,0.0,0.00174532923847
2,1644542388417003632,0.598205626011,-9.64974308014,0.225552946329,acc,,,
3,1644542388419017553,0.57859236002,-9.64974308014,0.196132987738,acc,,,
4,1644542388421031475,0.57859236002,-9.61051654816,0.196132987738,acc,,,
5,1644542388421263456,,,,gyr,0.0,0.0,0.00174532923847
6,1644542388423047304,0.598205626011,-9.66935634613,0.166713044047,acc,,,
7,1644542388425061226,0.558979034424,-9.62032318115,0.245166242123,acc,,,
8,1644542388426273108,,,,gyr,-0.00523598771542,-0.00349065847695,0.00174532923847
9,1644542388427075148,0.509945809841,-9.56148338318,0.245166242123,acc,,,
10,1644542388429091215,0.558979034424,-9.61051654816,0.137293100357,acc,,,
11,1644542388431105137,0.558979034424,-9.62032318115,0.137293100357,acc,,,
12,1644542388431287050,,,,gyr,-0.00349065847695,-0.00174532923847,0.0
13,1644542388433119059,0.598205626011,-9.62032318115,0.176519691944,acc,,,
14,1644542388435135126,0.57859236002,-9.64974308014,0.196132987738,acc,,,
15,1644542388436296940,,,,gyr,-0.00349065847695,-0.00349065847695,0.00174532923847
16,1644542388437148809,0.558979034424,-9.64974308014,0.137293100357,acc,,,
17,1644542388439164877,0.558979034424,-9.58109664917,0.0980664938688,acc,,,
18,1644542388441178799,0.549172401428,-9.56148338318,0.137293100357,acc,,,
19,1644542388441308498,,,,gyr,-0.00523598771542,0.0,0.00174532923847
20,1644542388443194628,0.57859236002,-9.57129001617,0.137293100357,acc,,,
21,1644542388445208549,0.549172401428,-9.56148338318,0.137293100357,acc,,,
22,1644542388446320534,,,,gyr,-0.00174532923847,-0.00174532923847,0.0
23,1644542388451332331,,,,gyr,0.0,0.0,0.0
24,1644542388456343889,,,,gyr,-0.00523598771542,0.0,0.00349065847695
25,1644542388461355925,,,,gyr,-0.00523598771542,-0.00174532923847,-0.00174532923847
26,1644542388466367722,,,,gyr,0.0,0.00174532923847,0.0
27,1644542388471379280,,,,gyr,-0.00349065847695,-0.00349065847695,0.00174532923847
28,1644542388476391315,,,,gyr,-0.00349065847695,-0.00523598771542,0.00174532923847
29,1644542388481403112,,,,gyr,0.0,0.0,0.0
30,1644542388486414909,,,,gyr,0.0,-0.00174532923847,0.0
31,1644542388491424561,,,,gyr,-0.0069813169539,-0.00349065847695,0.00174532923847
32,1644542389180496693,0.627625584602,-9.61051654816,0.12748645246,acc,,,
33,1644542389182510614,0.627625584602,-9.66935634613,0.0686465501785,acc,,,
34,1644542389183028460,,,,gyr,-0.00174532923847,0.0,-0.00349065847695
35,1644542389184524298,0.627625584602,-9.66935634613,0.0686465501785,acc,,,
36,1644542389186540365,0.637432217598,-9.61051654816,0.12748645246,acc,,,
37,1644542389188040257,,,,gyr,-0.00349065847695,0.0,0.0
38,1644542389188554287,0.598205626011,-9.66935634613,0.137293100357,acc,,,
39,1644542389190568209,0.57859236002,-9.64974308014,0.137293100357,acc,,,
40,1644542389192584038,0.57859236002,-9.61051654816,0.12748645246,acc,,,
41,1644542389193050146,,,,gyr,-0.00174532923847,-0.00349065847695,0.00349065847695
42,1644542389194597960,0.627625584602,-9.70858287811,0.166713044047,acc,,,
43,1644542389196611881,0.558979034424,-9.62032318115,0.12748645246,acc,,,
44,1644542389198061705,,,,gyr,-0.00174532923847,0.0,0.00174532923847
45,1644542389198627710,0.549172401428,-9.62032318115,0.12748645246,acc,,,
46,1644542389200641632,0.57859236002,-9.67916297913,0.137293100357,acc,,,
47,1644542389202655554,0.598205626011,-9.58109664917,0.166713044047,acc,,,
48,1644542389203073502,,,,gyr,-0.00523598771542,-0.00174532923847,0.0
49,1644542389204669476,0.57859236002,-9.61051654816,0.12748645246,acc,,,
50,1644542389206685305,0.598205626011,-9.62032318115,0.176519691944,acc,,,
51,1644542389208085537,,,,gyr,-0.00349065847695,0.0,0.00523598771542
52,1644542389208699226,0.549172401428,-9.62032318115,0.176519691944,acc,,,
53,1644542389210713148,0.57859236002,-9.58109664917,0.12748645246,acc,,,
54,1644542389212727070,0.57859236002,-9.62032318115,0.137293100357,acc,,,
55,1644542389213097095,,,,gyr,-0.00349065847695,0.0,0.0
56,1644542389214740992,0.549172401428,-9.62032318115,0.166713044047,acc,,,
57,1644542389216754913,0.549172401428,-9.62032318115,0.137293100357,acc,,,
58,1644542389218108892,,,,gyr,0.0,0.0,0.00349065847695
59,1644542389218770981,0.549172401428,-9.62032318115,0.166713044047,acc,,,
60,1644542389220784903,0.558979034424,-9.62032318115,0.137293100357,acc,,,
61,1644542389222798824,0.558979034424,-9.64974308014,0.137293100357,acc,,,
62,1644542389223120689,,,,gyr,0.0,0.0,0.0
63,1644542389224812746,0.549172401428,-9.64974308014,0.176519691944,acc,,,
64,1644542389226826668,0.529559075832,-9.62032318115,0.0980664938688,acc,,,
65,1644542389228132486,,,,gyr,-0.00174532923847,0.00174532923847,0.0
66,1644542389228840590,0.549172401428,-9.61051654816,0.137293100357,acc,,,
67,1644542389230856419,0.558979034424,-9.64974308014,0.196132987738,acc,,,
68,1644542389232870340,0.549172401428,-9.61051654816,0.137293100357,acc,,,
69,1644542389233144283,,,,gyr,-0.00523598771542,-0.00174532923847,0.0
70,1644542389234884262,0.549172401428,-9.61051654816,0.196132987738,acc,,,
71,1644542389236898184,0.549172401428,-9.61051654816,0.176519691944,acc,,,
72,1644542389238156080,,,,gyr,-0.00523598771542,-0.00174532923847,0.00349065847695
73,1644542389238912106,0.549172401428,-9.58109664917,0.176519691944,acc,,,
74,1644542389240927935,0.558979034424,-9.64974308014,0.225552946329,acc,,,
75,1644542389242941856,0.57859236002,-9.64974308014,0.225552946329,acc,,,
76,1644542389243167639,,,,gyr,0.0,0.0,0.0
77,1644542389244955778,0.57859236002,-9.58109664917,0.225552946329,acc,,,
78,1644542389246969700,0.57859236002,-9.62032318115,0.196132987738,acc,,,
79,1644542389248179674,,,,gyr,-0.00174532923847,-0.00349065847695,0.0
80,1644542389248983622,0.549172401428,-9.62032318115,0.196132987738,acc,,,
81,1644542389250999451,0.558979034424,-9.61051654816,0.196132987738,acc,,,
82,1644542389253013372,0.549172401428,-9.61051654816,0.225552946329,acc,,,
83,1644542389253191471,,,,gyr,-0.00349065847695,-0.00174532923847,-0.00174532923847
84,1644542389255027294,0.598205626011,-9.58109664917,0.245166242123,acc,,,
85,1644542389257041216,0.549172401428,-9.62032318115,0.245166242123,acc,,,
86,1644542389258201122,,,,gyr,-0.00174532923847,0.0,-0.00349065847695
87,1644542389259055138,0.549172401428,-9.62032318115,0.225552946329,acc,,,
88,1644542389261070967,0.558979034424,-9.66935634613,0.196132987738,acc,,,
89,1644542389263084888,0.558979034424,-9.64974308014,0.225552946329,acc,,,
90,1644542389263212919,,,,gyr,0.0,0.0,0.0
91,1644542389265098810,0.627625584602,-9.62032318115,0.176519691944,acc,,,
92,1644542389267112732,0.598205626011,-9.64974308014,0.225552946329,acc,,,
93,1644542389268224955,,,,gyr,0.0,-0.00174532923847,0.0
94,1644542389269126654,0.637432217598,-9.62032318115,0.264779537916,acc,,,
95,1644542389271142483,0.627625584602,-9.62032318115,0.225552946329,acc,,,
96,1644542389273156404,0.57859236002,-9.61051654816,0.274586200714,acc,,,
97,1644542389273236513,,,,gyr,0.0,-0.00174532923847,0.0
98,1644542389275170326,0.57859236002,-9.66935634613,0.274586200714,acc,,,
99,1644542389277184248,0.598205626011,-9.66935634613,0.313812792301,acc,,,
100,1644542389278248310,,,,gyr,-0.00523598771542,-0.00174532923847,0.00174532923847
101,1644542389279198170,0.598205626011,-9.62032318115,0.196132987738,acc,,,
102,1644542389281213999,0.598205626011,-9.67916297913,0.274586200714,acc,,,
103,1644542389283227921,0.598205626011,-9.66935634613,0.225552946329,acc,,,
104,1644542389283260107,,,,gyr,-0.00349065847695,0.0,0.0
105,1644542389285241842,0.57859236002,-9.64974308014,0.225552946329,acc,,,
106,1644542389287255764,0.627625584602,-9.61051654816,0.264779537916,acc,,,
107,1644542389288271904,,,,gyr,-0.00174532923847,-0.00174532923847,0.0
108,1644542389289269686,0.57859236002,-9.64974308014,0.245166242123,acc,,,
109,1644542389291283607,0.598205626011,-9.62032318115,0.225552946329,acc,,,
110,1644542389293283701,,,,gyr,0.0,0.0,0.0
111,1644542389293297529,0.57859236002,-9.62032318115,0.245166242123,acc,,,
112,1644542389295311451,0.627625584602,-9.64974308014,0.294199496508,acc,,,
113,1644542389297325373,0.57859236002,-9.62032318115,0.196132987738,acc,,,
114,1644542389298295498,,,,gyr,-0.00174532923847,0.0,0.0
115,1644542389299339294,0.627625584602,-9.64974308014,0.245166242123,acc,,,
116,1644542389301353216,0.627625584602,-9.66935634613,0.196132987738,acc,,,
117,1644542389303307295,,,,gyr,0.0,-0.00174532923847,0.00523598771542
118,1644542389303367138,0.598205626011,-9.64974308014,0.225552946329,acc,,,
119,1644542389305382967,0.598205626011,-9.66935634613,0.176519691944,acc,,,
120,1644542389307396889,0.598205626011,-9.64974308014,0.176519691944,acc,,,
121,1644542389308319092,,,,gyr,0.0,0.0,0.0
122,1644542389309410810,0.558979034424,-9.62032318115,0.176519691944,acc,,,
123,1644542389311424732,0.598205626011,-9.66935634613,0.176519691944,acc,,,
124,1644542389313330889,,,,gyr,0.0,-0.00174532923847,0.00349065847695
125,1644542389313438654,0.598205626011,-9.61051654816,0.196132987738,acc,,,
126,1644542389315452576,0.549172401428,-9.62032318115,0.166713044047,acc,,,
127,1644542389317466497,0.57859236002,-9.62032318115,0.225552946329,acc,,,
128,1644542389318342447,,,,gyr,0.0,-0.00174532923847,0.0
129,1644542389319480419,0.57859236002,-9.58109664917,0.12748645246,acc,,,
130,1644542389321494341,0.598205626011,-9.64974308014,0.196132987738,acc,,,
131,1644542389323352337,,,,gyr,-0.00174532923847,0.0,0.0
132,1644542389323508263,0.558979034424,-9.64974308014,0.0784531980753,acc,,,
133,1644542389325522184,0.57859236002,-9.57129001617,0.137293100357,acc,,,
134,1644542389327538252,0.57859236002,-9.61051654816,0.176519691944,acc,,,
135,1644542389328364372,,,,gyr,-0.00174532923847,0.0,0.00174532923847
136,1644542389329552174,0.598205626011,-9.62032318115,0.12748645246,acc,,,
137,1644542389331566095,0.598205626011,-9.61051654816,0.137293100357,acc,,,
138,1644542389333375931,,,,gyr,-0.00174532923847,0.0,0.00174532923847
139,1644542389333580017,0.549172401428,-9.61051654816,0.0980664938688,acc,,,
140,1644542389335593939,0.529559075832,-9.61051654816,0.12748645246,acc,,,
141,1644542389337607861,0.57859236002,-9.57129001617,0.0686465501785,acc,,,
142,1644542389338387728,,,,gyr,0.0,0.0,0.0
143,1644542389339621782,0.558979034424,-9.61051654816,0.0980664938688,acc,,,
144,1644542389341637611,0.549172401428,-9.58109664917,0.137293100357,acc,,,
145,1644542389343399763,,,,gyr,0.0,0.0,0.00174532923847
146,1644542389343651533,0.57859236002,-9.62032318115,0.137293100357,acc,,,
147,1644542389345665455,0.529559075832,-9.58109664917,0.12748645246,acc,,,
148,1644542389347679377,0.549172401428,-9.61051654816,0.12748645246,acc,,,
149,1644542389348411322,,,,gyr,-0.00174532923847,0.0,0.0
150,1644542389349693298,0.549172401428,-9.62032318115,0.137293100357,acc,,,
151,1644542389351707220,0.549172401428,-9.61051654816,0.0980664938688,acc,,,
152,1644542389353423119,,,,gyr,-0.00174532923847,-0.00174532923847,0.00349065847695
153,1644542389353721142,0.549172401428,-9.61051654816,0.166713044047,acc,,,
154,1644542389355735064,0.57859236002,-9.58109664917,0.12748645246,acc,,,
155,1644542389357748985,0.549172401428,-9.58109664917,0.12748645246,acc,,,
156,1644542389358435154,,,,gyr,0.0,-0.00349065847695,0.0
157,1644542389359762907,0.529559075832,-9.62032318115,0.137293100357,acc,,,
158,1644542389361776829,0.529559075832,-9.62032318115,0.12748645246,acc,,,
159,1644542389363446712,,,,gyr,-0.00349065847695,0.00174532923847,0.0
160,1644542389363790751,0.57859236002,-9.61051654816,0.0980664938688,acc,,,
161,1644542389365804672,0.558979034424,-9.64974308014,0.137293100357,acc,,,
162,1644542389367818594,0.57859236002,-9.62032318115,0.137293100357,acc,,,
163,1644542389368458509,,,,gyr,-0.00349065847695,-0.00349065847695,0.0
164,1644542389369834423,0.57859236002,-9.58109664917,0.225552946329,acc,,,
165,1644542389371848345,0.598205626011,-9.64974308014,0.166713044047,acc,,,
166,1644542389373470306,,,,gyr,-0.00349065847695,0.0,0.00174532923847
167,1644542389373862267,0.598205626011,-9.62032318115,0.225552946329,acc,,,
168,1644542389375876188,0.549172401428,-9.67916297913,0.225552946329,acc,,,
169,1644542389377892017,0.627625584602,-9.64974308014,0.225552946329,acc,,,
170,1644542389378482103,,,,gyr,-0.00174532923847,0.0,0.0
171,1644542389379905939,0.598205626011,-9.61051654816,0.176519691944,acc,,,
172,1644542389381919861,0.57859236002,-9.64974308014,0.166713044047,acc,,,
173,1644542389383493900,,,,gyr,0.0,0.0,0.0
174,1644542389383933783,0.627625584602,-9.64974308014,0.176519691944,acc,,,
175,1644542389385947704,0.598205626011,-9.70858287811,0.245166242123,acc,,,
176,1644542389387961626,0.637432217598,-9.62032318115,0.274586200714,acc,,,
177,1644542389388503551,,,,gyr,-0.00174532923847,0.00349065847695,0.0
178,1644542389389977455,0.598205626011,-9.64974308014,0.196132987738,acc,,,
179,1644542389391991377,0.637432217598,-9.62032318115,0.245166242123,acc,,,
180,1644542389393515348,,,,gyr,0.0,-0.00349065847695,0.0
181,1644542389394005299,0.598205626011,-9.66935634613,0.196132987738,acc,,,
182,1644542389396019220,0.637432217598,-9.64974308014,0.245166242123,acc,,,
183,1644542389398033142,0.598205626011,-9.62032318115,0.264779537916,acc,,,
184,1644542389398527384,,,,gyr,-0.00349065847695,0.00174532923847,0.0
185,1644542389400049210,0.627625584602,-9.66935634613,0.176519691944,acc,,,
186,1644542389402063131,0.598205626011,-9.64974308014,0.245166242123,acc,,,
187,1644542389403539181,,,,gyr,0.0,0.00174532923847,0.00174532923847
188,1644542389404077053,0.598205626011,-9.64974308014,0.225552946329,acc,,,
189,1644542389406090975,0.57859236002,-9.64974308014,0.196132987738,acc,,,
190,1644542389408107042,0.637432217598,-9.67916297913,0.225552946329,acc,,,
191,1644542389408550739,,,,gyr,-0.00349065847695,0.0,0.00174532923847
192,1644542389410120964,0.637432217598,-9.64974308014,0.264779537916,acc,,,
193,1644542389412134647,0.558979034424,-9.64974308014,0.274586200714,acc,,,
194,1644542389413562775,,,,gyr,-0.00174532923847,0.0,0.0
195,1644542389414148569,0.627625584602,-9.64974308014,0.245166242123,acc,,,
196,1644542389416162491,0.627625584602,-9.66935634613,0.245166242123,acc,,,
197,1644542389418176413,0.598205626011,-9.66935634613,0.225552946329,acc,,,
198,1644542389418574572,,,,gyr,-0.00174532923847,0.0,0.00523598771542
199,1644542389420192480,0.627625584602,-9.66935634613,0.245166242123,acc,,,
200,1644542389422206402,0.598205626011,-9.58109664917,0.196132987738,acc,,,
201,1644542389423586130,,,,gyr,-0.00174532923847,0.0,0.0
202,1644542389424220324,0.598205626011,-9.62032318115,0.274586200714,acc,,,
203,1644542389426236153,0.558979034424,-9.64974308014,0.245166242123,acc,,,
204,1644542389428250074,0.598205626011,-9.61051654816,0.245166242123,acc,,,
205,1644542389428598166,,,,gyr,-0.00349065847695,0.0,0.00349065847695
206,1644542389430263996,0.627625584602,-9.66935634613,0.196132987738,acc,,,
207,1644542389432277918,0.549172401428,-9.61051654816,0.294199496508,acc,,,
208,1644542389433609962,,,,gyr,-0.00349065847695,-0.00349065847695,0.0
209,1644542389434291840,0.558979034424,-9.66935634613,0.264779537916,acc,,,
210,1644542389436307669,0.549172401428,-9.62032318115,0.225552946329,acc,,,
211,1644542389438321590,0.558979034424,-9.61051654816,0.196132987738,acc,,,
212,1644542389438621521,,,,gyr,-0.00174532923847,-0.00174532923847,0.0
213,1644542389440335512,0.549172401428,-9.61051654816,0.225552946329,acc,,,
214,1644542389442349434,0.549172401428,-9.58109664917,0.264779537916,acc,,,
215,1644542389443633318,,,,gyr,-0.0069813169539,0.0,0.0
216,1644542389444365501,0.549172401428,-9.61051654816,0.166713044047,acc,,,
217,1644542389446379423,0.509945809841,-9.62032318115,0.264779537916,acc,,,
218,1644542389448393345,0.549172401428,-9.61051654816,0.264779537916,acc,,,
219,1644542389448643208,,,,gyr,0.0,-0.00523598771542,0.00523598771542
220,1644542389450407267,0.57859236002,-9.61051654816,0.225552946329,acc,,,
221,1644542389452423096,0.529559075832,-9.61051654816,0.245166242123,acc,,,
222,1644542389453655005,,,,gyr,-0.00174532923847,0.0,0.0
223,1644542389454437017,0.549172401428,-9.62032318115,0.176519691944,acc,,,
224,1644542389456450939,0.529559075832,-9.58109664917,0.176519691944,acc,,,
225,1644542389458464861,0.549172401428,-9.56148338318,0.245166242123,acc,,,
226,1644542389458666801,,,,gyr,-0.00349065847695,0.0,0.00349065847695
227,1644542389460480690,0.57859236002,-9.58109664917,0.176519691944,acc,,,
228,1644542389462494612,0.558979034424,-9.61051654816,0.166713044047,acc,,,
229,1644542389463678598,,,,gyr,0.0,0.0,-0.00174532923847
230,1644542389464508533,0.529559075832,-9.64974308014,0.0980664938688,acc,,,
231,1644542389466522455,0.549172401428,-9.64974308014,0.196132987738,acc,,,
232,1644542389468538284,0.529559075832,-9.58109664917,0.176519691944,acc,,,
233,1644542389468690395,,,,gyr,-0.00174532923847,0.0,0.0
234,1644542389470552206,0.558979034424,-9.64974308014,0.196132987738,acc,,,
235,1644542389472566128,0.558979034424,-9.61051654816,0.166713044047,acc,,,
236,1644542389473702192,,,,gyr,0.0,-0.00174532923847,0.0
237,1644542389474582195,0.57859236002,-9.62032318115,0.166713044047,acc,,,
238,1644542389476596117,0.549172401428,-9.61051654816,0.0980664938688,acc,,,
239,1644542389478610039,0.549172401428,-9.62032318115,0.12748645246,acc,,,
240,1644542389478714228,,,,gyr,0.0,-0.00349065847695,0.0
241,1644542389480625868,0.598205626011,-9.61051654816,0.166713044047,acc,,,
242,1644542389482639790,0.627625584602,-9.66935634613,0.137293100357,acc,,,
243,1644542389483725786,,,,gyr,-0.00174532923847,-0.00174532923847,0.0
244,1644542389484653711,0.598205626011,-9.62032318115,0.0980664938688,acc,,,
245,1644542389486667633,0.57859236002,-9.64974308014,0.12748645246,acc,,,
246,1644542389488681555,0.666852176189,-9.64974308014,0.176519691944,acc,,,
247,1644542389488737583,,,,gyr,-0.00523598771542,-0.00174532923847,-0.00174532923847
248,1644542389490697622,0.57859236002,-9.62032318115,0.12748645246,acc,,,
249,1644542389492711544,0.627625584602,-9.64974308014,0.12748645246,acc,,,
250,1644542389493749619,,,,gyr,-0.00174532923847,0.0,0.0
251,1644542389494725227,0.598205626011,-9.61051654816,0.166713044047,acc,,,
252,1644542389496739149,0.598205626011,-9.67916297913,0.176519691944,acc,,,
253,1644542389498753071,0.598205626011,-9.64974308014,0.12748645246,acc,,,
254,1644542389498761177,,,,gyr,-0.00523598771542,-0.00174532923847,0.00349065847695
255,1644542389500769138,0.637432217598,-9.64974308014,0.0784531980753,acc,,,
256,1644542389502783060,0.598205626011,-9.64974308014,0.12748645246,acc,,,
257,1644542389503772974,,,,gyr,0.0,0.0,0.0
258,1644542389504796982,0.598205626011,-9.66935634613,0.137293100357,acc,,,
259,1644542389506812811,0.598205626011,-9.66935634613,0.12748645246,acc,,,
260,1644542389508784771,,,,gyr,0.0,0.0,0.00349065847695
261,1644542389508826971,0.598205626011,-9.64974308014,0.166713044047,acc,,,
262,1644542389510840893,0.627625584602,-9.66935634613,0.12748645246,acc,,,
263,1644542389512856722,0.57859236002,-9.61051654816,0.12748645246,acc,,,
264,1644542389513796568,,,,gyr,-0.00174532923847,0.0,0.0
265,1644542389514870644,0.627625584602,-9.64974308014,0.176519691944,acc,,,
266,1644542389516884565,0.598205626011,-9.64974308014,0.166713044047,acc,,,
267,1644542389518806458,,,,gyr,-0.00349065847695,-0.00349065847695,0.0
268,1644542389518900394,0.627625584602,-9.62032318115,0.176519691944,acc,,,
269,1644542389520914316,0.598205626011,-9.64974308014,0.137293100357,acc,,,
270,1644542389522928238,0.57859236002,-9.64974308014,0.137293100357,acc,,,
271,1644542389523818016,,,,gyr,0.0,-0.00174532923847,0.00349065847695
272,1644542389524942160,0.558979034424,-9.61051654816,0.196132987738,acc,,,
273,1644542389526957989,0.558979034424,-9.61051654816,0.264779537916,acc,,,
274,1644542389528830051,,,,gyr,-0.00174532923847,0.0,-0.00174532923847
275,1644542389528971910,0.57859236002,-9.62032318115,0.245166242123,acc,,,
276,1644542389530985832,0.558979034424,-9.67916297913,0.176519691944,acc,,,
277,1644542389532999754,0.598205626011,-9.62032318115,0.264779537916,acc,,,
278,1644542389533841848,,,,gyr,-0.00174532923847,0.00174532923847,0.0
279,1644542389535013676,0.549172401428,-9.61051654816,0.245166242123,acc,,,
280,1644542389537029505,0.627625584602,-9.64974308014,0.264779537916,acc,,,
281,1644542389538853407,,,,gyr,-0.00174532923847,0.0,0.0
282,1644542389539043427,0.627625584602,-9.66935634613,0.264779537916,acc,,,
283,1644542389541057587,0.558979034424,-9.62032318115,0.225552946329,acc,,,
284,1644542389543073416,0.558979034424,-9.62032318115,0.245166242123,acc,,,
285,1644542389543865442,,,,gyr,-0.00174532923847,0.0,0.0
286,1644542389545087337,0.558979034424,-9.58109664917,0.264779537916,acc,,,
287,1644542389547101259,0.598205626011,-9.58109664917,0.245166242123,acc,,,
288,1644542389548877239,,,,gyr,0.0,0.0,0.00174532923847
289,1644542389549117088,0.529559075832,-9.61051654816,0.245166242123,acc,,,
290,1644542389551131010,0.558979034424,-9.62032318115,0.274586200714,acc,,,
291,1644542389553144932,0.529559075832,-9.61051654816,0.264779537916,acc,,,
292,1644542389553888798,,,,gyr,-0.00174532923847,0.0,0.00174532923847
293,1644542389555158854,0.549172401428,-9.58109664917,0.245166242123,acc,,,
294,1644542389557174921,0.549172401428,-9.64974308014,0.274586200714,acc,,,
295,1644542389558900833,,,,gyr,-0.00349065847695,0.0,0.0
296,1644542389559188604,0.598205626011,-9.62032318115,0.245166242123,acc,,,
297,1644542389561202526,0.549172401428,-9.62032318115,0.225552946329,acc,,,
298,1644542389563218594,0.57859236002,-9.58109664917,0.245166242123,acc,,,
299,1644542389563912630,,,,gyr,0.0,0.00174532923847,0.00349065847695
300,1644542389565232515,0.558979034424,-9.58109664917,0.245166242123,acc,,,
301,1644542389567246675,0.558979034424,-9.62032318115,0.225552946329,acc,,,
302,1644542389568924427,,,,gyr,-0.00174532923847,-0.00174532923847,0.0
303,1644542389569260597,0.558979034424,-9.62032318115,0.225552946329,acc,,,
304,1644542389571276426,0.558979034424,-9.61051654816,0.196132987738,acc,,,
305,1644542389573290348,0.57859236002,-9.62032318115,0.264779537916,acc,,,
306,1644542389573936224,,,,gyr,-0.00174532923847,0.00174532923847,0.00174532923847
307,1644542389575304270,0.627625584602,-9.64974308014,0.294199496508,acc,,,
308,1644542389577320099,0.558979034424,-9.61051654816,0.313812792301,acc,,,
309,1644542389578948021,,,,gyr,-0.00523598771542,0.00174532923847,0.00174532923847
310,1644542389579334021,0.598205626011,-9.66935634613,0.313812792301,acc,,,
311,1644542389581347942,0.627625584602,-9.66935634613,0.362846046686,acc,,,
312,1644542389583361864,0.666852176189,-9.71838951111,0.38245934248,acc,,,
313,1644542389583957672,,,,gyr,-0.0209439508617,-0.00349065847695,0.0104719754308
314,1644542389585377693,0.637432217598,-9.67916297913,0.38245934248,acc,,,
315,1644542389587391615,0.666852176189,-9.67916297913,0.313812792301,acc,,,
316,1644542389588969707,,,,gyr,-0.0558505356312,-0.0104719754308,0.0296705961227
317,1644542389589405537,0.725692093372,-9.70858287811,0.343232750893,acc,,,
318,1644542389591419458,0.686465501785,-9.75761604309,0.402072638273,acc,,,
319,1644542389593435526,0.598205626011,-9.66935634613,0.313812792301,acc,,,
320,1644542389593981504,,,,gyr,-0.0890117883682,-0.0209439508617,0.0418879017234
321,1644542389595449448,0.598205626011,-9.71838951111,0.294199496508,acc,,,
322,1644542389597463369,0.529559075832,-9.61051654816,0.137293100357,acc,,,
323,1644542389598993063,,,,gyr,-0.123918376863,-0.0296705961227,0.0610865242779
324,1644542389599479198,0.490332484245,-9.58109664917,0.0784531980753,acc,,,
325,1644542389601493120,0.490332484245,-9.57129001617,0.0784531980753,acc,,,
326,1644542389603507042,0.490332484245,-9.57129001617,0.0294199492782,acc,,,
327,1644542389604005098,,,,gyr,-0.130899697542,-0.0314159244299,0.0645771846175
328,1644542389605520964,0.490332484245,-9.57129001617,0.0294199492782,acc,,,
329,1644542389607536793,0.490332484245,-9.57129001617,0.0686465501785,acc,,,
330,1644542389609016895,,,,gyr,-0.101229093969,-0.0296705961227,0.0471238903701
331,1644542389609550714,0.509945809841,-9.58109664917,0.0686465501785,acc,,,
332,1644542389611564636,0.529559075832,-9.58109664917,0.0392265990376,acc,,,
333,1644542389613580465,0.529559075832,-9.61051654816,0.0686465501785,acc,,,
334,1644542389614028454,,,,gyr,-0.069813169539,-0.0139626339078,0.0349065847695
335,1644542389615594387,0.549172401428,-9.61051654816,0.0392265990376,acc,,,
336,1644542389617610693,0.558979034424,-9.61051654816,0.0686465501785,acc,,,
337,1644542389619040489,,,,gyr,-0.0523598790169,-0.0104719754308,0.0296705961227
338,1644542389619624615,0.549172401428,-9.64974308014,0.137293100357,acc,,,
339,1644542389621638536,0.637432217598,-9.66935634613,0.12748645246,acc,,,
340,1644542389623654366,0.57859236002,-9.61051654816,0.0784531980753,acc,,,
341,1644542389624052286,,,,gyr,-0.0349065847695,-0.0069813169539,0.0174532923847
342,1644542389625668287,0.57859236002,-9.62032318115,0.0784531980753,acc,,,
343,1644542389627684116,0.558979034424,-9.61051654816,0.0392265990376,acc,,,
344,1644542389629064083,,,,gyr,-0.0261799395084,-0.00523598771542,0.0139626339078
345,1644542389629698038,0.529559075832,-9.61051654816,0.0784531980753,acc,,,
346,1644542389631711960,0.57859236002,-9.61051654816,0.0686465501785,acc,,,
347,1644542389633727789,0.57859236002,-9.62032318115,0.0686465501785,acc,,,
348,1644542389634075880,,,,gyr,-0.0209439508617,-0.00523598771542,0.0069813169539
349,1644542389635741711,0.598205626011,-9.66935634613,0.12748645246,acc,,,
350,1644542389637757778,0.598205626011,-9.62032318115,0.0784531980753,acc,,,
351,1644542389639087677,,,,gyr,-0.0139626339078,-0.00523598771542,0.00872664619237
352,1644542389639771700,0.598205626011,-9.66935634613,0.0686465501785,acc,,,
353,1644542389641785622,0.57859236002,-9.64974308014,0.0686465501785,acc,,,
354,1644542389643799543,0.57859236002,-9.62032318115,0.12748645246,acc,,,
355,1644542389644099474,,,,gyr,-0.0139626339078,-0.00523598771542,0.0069813169539
356,1644542389645815372,0.558979034424,-9.62032318115,0.12748645246,acc,,,
357,1644542389647829294,0.558979034424,-9.66935634613,0.12748645246,acc,,,
358,1644542389649109364,,,,gyr,-0.0174532923847,-0.00523598771542,0.0069813169539
359,1644542389649843216,0.57859236002,-9.71838951111,0.137293100357,acc,,,
360,1644542389651859045,0.598205626011,-9.66935634613,0.137293100357,acc,,,
361,1644542389653872967,0.598205626011,-9.66935634613,0.196132987738,acc,,,
362,1644542389654121161,,,,gyr,-0.0174532923847,-0.0069813169539,0.00872664619237
363,1644542389655886889,0.627625584602,-9.66935634613,0.166713044047,acc,,,
364,1644542389657902718,0.57859236002,-9.70858287811,0.176519691944,acc,,,
365,1644542389659132719,,,,gyr,-0.0296705961227,-0.00872664619237,0.0174532923847
366,1644542389659916639,0.57859236002,-9.67916297913,0.176519691944,acc,,,
367,1644542389661930561,0.598205626011,-9.66935634613,0.137293100357,acc,,,
368,1644542389663944483,0.57859236002,-9.62032318115,0.176519691944,acc,,,
369,1644542389664144516,,,,gyr,-0.0436332300305,-0.0104719754308,0.0226892791688
370,1644542389665960312,0.549172401428,-9.67916297913,0.176519691944,acc,,,
371,1644542389667974234,0.549172401428,-9.67916297913,0.196132987738,acc,,,
372,1644542389669156075,,,,gyr,-0.0645771846175,-0.0139626339078,0.0314159244299
373,1644542389669988155,0.549172401428,-9.64974308014,0.0980664938688,acc,,,
374,1644542389672003984,0.529559075832,-9.64974308014,0.196132987738,acc,,,
375,1644542389674017906,0.529559075832,-9.64974308014,0.166713044047,acc,,,
376,1644542389674167633,,,,gyr,-0.0767944902182,-0.0226892791688,0.0383972451091
377,1644542389676031590,0.549172401428,-9.62032318115,0.176519691944,acc,,,
378,1644542389678045511,0.529559075832,-9.62032318115,0.166713044047,acc,,,
379,1644542389679179430,,,,gyr,-0.0855211317539,-0.0296705961227,0.0471238903701
380,1644542389680061340,0.529559075832,-9.66935634613,0.196132987738,acc,,,
381,1644542389682075262,0.549172401428,-9.66935634613,0.245166242123,acc,,,
382,1644542389684089184,0.529559075832,-9.66935634613,0.245166242123,acc,,,
383,1644542389684190989,,,,gyr,-0.101229093969,-0.0296705961227,0.0523598790169
384,1644542389686104774,0.549172401428,-9.70858287811,0.274586200714,acc,,,
385,1644542389688118696,0.529559075832,-9.66935634613,0.196132987738,acc,,,
386,1644542389689202547,,,,gyr,-0.111701071262,-0.0349065847695,0.0558505356312
387,1644542389690132618,0.529559075832,-9.67916297913,0.196132987738,acc,,,
388,1644542389692148447,0.558979034424,-9.66935634613,0.245166242123,acc,,,
389,1644542389694162369,0.529559075832,-9.58109664917,0.176519691944,acc,,,
390,1644542389694214344,,,,gyr,-0.130899697542,-0.0383972451091,0.0680678412318
391,1644542389696176052,0.490332484245,-9.62032318115,0.166713044047,acc,,,
392,1644542389698191881,0.490332484245,-9.58109664917,0.0980664938688,acc,,,
393,1644542389699225903,,,,gyr,-0.137881010771,-0.0418879017234,0.0715584978461
394,1644542389700205803,0.470719188452,-9.56148338318,0.12748645246,acc,,,
395,1644542389702219725,0.451105892658,-9.58109664917,0.0392265990376,acc,,,
396,1644542389704233646,0.470719188452,-9.58109664917,0.0686465501785,acc,,,
397,1644542389704237700,,,,gyr,-0.137881010771,-0.0436332300305,0.069813169539
398,1644542389706247807,0.451105892658,-9.58109664917,0.0392265990376,acc,,,
399,1644542389708263874,0.421685934067,-9.53206348419,0.0392265990376,acc,,,
400,1644542389709247828,,,,gyr,-0.122173048556,-0.0349065847695,0.0610865242779
401,1644542389710277796,0.421685934067,-9.61051654816,0.0294199492782,acc,,,
402,1644542389712291956,0.470719188452,-9.53206348419,0.0,acc,,,
403,1644542389714260101,,,,gyr,-0.0942477807403,-0.0279252678156,0.0471238903701
404,1644542389714307785,0.451105892658,-9.57129001617,0.00980664975941,acc,,,
405,1644542389716321945,0.509945809841,-9.58109664917,-0.0294199492782,acc,,,
406,1644542389718336105,0.451105892658,-9.58109664917,-0.0686465501785,acc,,,
407,1644542389719271898,,,,gyr,-0.0610865242779,-0.0139626339078,0.0296705961227
408,1644542389720350027,0.470719188452,-9.58109664917,-0.00980664975941,acc,,,
409,1644542389722364187,0.470719188452,-9.57129001617,-0.0294199492782,acc,,,
410,1644542389724284172,,,,gyr,-0.0279252678156,-0.00523598771542,0.0139626339078
411,1644542389724380016,0.490332484245,-9.61051654816,0.0294199492782,acc,,,
412,1644542389726394176,0.509945809841,-9.58109664917,0.0686465501785,acc,,,
413,1644542389728410482,0.529559075832,-9.61051654816,0.0686465501785,acc,,,
414,1644542389729296446,,,,gyr,0.00174532923847,0.0,0.0
415,1644542389730424404,0.470719188452,-9.62032318115,0.0392265990376,acc,,,
416,1644542389732436419,0.549172401428,-9.58109664917,0.0,acc,,,
417,1644542389734308243,,,,gyr,0.0191986225545,0.00523598771542,-0.00872664619237
418,1644542389734452486,0.470719188452,-9.56148338318,-0.00980664975941,acc,,,
419,1644542389736466646,0.509945809841,-9.64974308014,0.0,acc,,,
420,1644542389738480568,0.529559075832,-9.61051654816,-0.0294199492782,acc,,,
421,1644542389739320517,,,,gyr,0.0436332300305,0.0069813169539,-0.0226892791688
422,1644542389740494728,0.490332484245,-9.57129001617,-0.0294199492782,acc,,,
423,1644542389742510796,0.470719188452,-9.57129001617,0.0,acc,,,
424,1644542389744332790,,,,gyr,0.069813169539,0.0174532923847,-0.0349065847695
425,1644542389744524717,0.490332484245,-9.58109664917,0.0,acc,,,
426,1644542389746538877,0.529559075832,-9.58109664917,-0.0392265990376,acc,,,
427,1644542389748554945,0.490332484245,-9.64974308014,0.0,acc,,,
428,1644542389749345064,,,,gyr,0.101229093969,0.0226892791688,-0.0523598790169
429,1644542389750570774,0.529559075832,-9.61051654816,0.0686465501785,acc,,,
430,1644542389752584934,0.558979034424,-9.62032318115,0.0686465501785,acc,,,
431,1644542389754356861,,,,gyr,0.122173048556,0.0349065847695,-0.0610865242779
432,1644542389754598856,0.549172401428,-9.64974308014,0.0392265990376,acc,,,
433,1644542389756613016,0.558979034424,-9.62032318115,0.137293100357,acc,,,
434,1644542389758627176,0.549172401428,-9.62032318115,0.0980664938688,acc,,,
435,1644542389759369135,,,,gyr,0.127409040928,0.0349065847695,-0.0680678412318
436,1644542389760641098,0.57859236002,-9.61051654816,0.0784531980753,acc,,,
437,1644542389762657166,0.57859236002,-9.66935634613,0.12748645246,acc,,,
438,1644542389764381409,,,,gyr,0.122173048556,0.0349065847695,-0.0610865242779
439,1644542389764671087,0.57859236002,-9.66935634613,0.137293100357,acc,,,
440,1644542389766685247,0.637432217598,-9.67916297913,0.225552946329,acc,,,
441,1644542389768699408,0.637432217598,-9.67916297913,0.264779537916,acc,,,
442,1644542389769391298,,,,gyr,0.11344639957,0.0296705961227,-0.0593411922455
443,1644542389770715237,0.637432217598,-9.75761604309,0.245166242123,acc,,,
444,1644542389772729397,0.686465501785,-9.75761604309,0.313812792301,acc,,,
445,1644542389774403572,,,,gyr,0.0837758034468,0.0226892791688,-0.0418879017234
446,1644542389774743319,0.637432217598,-9.67916297913,0.362846046686,acc,,,
447,1644542389776757479,0.598205626011,-9.70858287811,0.343232750893,acc,,,
448,1644542389778773785,0.598205626011,-9.67916297913,0.225552946329,acc,,,
449,1644542389779415607,,,,gyr,0.0349065847695,0.0104719754308,-0.0191986225545
450,1644542389780787706,0.57859236002,-9.62032318115,0.0980664938688,acc,,,
451,1644542389782801867,0.549172401428,-9.61051654816,0.0980664938688,acc,,,
452,1644542389784427643,,,,gyr,0.0,0.0,0.0
453,1644542389784815788,0.490332484245,-9.58109664917,0.0392265990376,acc,,,
454,1644542389786829948,0.470719188452,-9.56148338318,0.00980664975941,acc,,,
455,1644542389788844109,0.490332484245,-9.56148338318,0.00980664975941,acc,,,
456,1644542389789439917,,,,gyr,-0.0069813169539,-0.00349065847695,0.0
457,1644542389790859938,0.490332484245,-9.57129001617,0.00980664975941,acc,,,
458,1644542389792874098,0.470719188452,-9.57129001617,-0.0294199492782,acc,,,
459,1644542389794452190,,,,gyr,0.00523598771542,-0.00523598771542,-0.00523598771542
460,1644542389794888020,0.490332484245,-9.48303031921,-0.0980664938688,acc,,,
461,1644542389796902180,0.451105892658,-9.53206348419,-0.0980664938688,acc,,,
462,1644542389798916340,0.470719188452,-9.49283695221,-0.12748645246,acc,,,
463,1644542389799464226,,,,gyr,0.0279252678156,-0.0104719754308,-0.0139626339078
464,1644542389800932169,0.509945809841,-9.56148338318,-0.12748645246,acc,,,
465,1644542389802946329,0.509945809841,-9.56148338318,-0.137293100357,acc,,,
466,1644542389804476261,,,,gyr,0.0680678412318,-0.0314159244299,-0.0349065847695
467,1644542389804960489,0.509945809841,-9.5222568512,-0.137293100357,acc,,,
468,1644542389806976318,0.470719188452,-9.5222568512,-0.12748645246,acc,,,
469,1644542389808990479,0.529559075832,-9.5222568512,-0.12748645246,acc,,,
470,1644542389809488535,,,,gyr,0.111701071262,-0.0715584978461,-0.0558505356312
471,1644542389811004400,0.490332484245,-9.57129001617,-0.0686465501785,acc,,,
472,1644542389813018560,0.529559075832,-9.58109664917,-0.0784531980753,acc,,,
473,1644542389814500570,,,,gyr,0.162315621972,-0.111701071262,-0.0785398185253
474,1644542389815034628,0.558979034424,-9.57129001617,-0.0392265990376,acc,,,
475,1644542389817048550,0.558979034424,-9.58109664917,-0.0294199492782,acc,,,
476,1644542389819064617,0.57859236002,-9.57129001617,0.00980664975941,acc,,,
477,1644542389819512606,,,,gyr,0.200712859631,-0.141371667385,-0.101229093969
478,1644542389821078777,0.558979034424,-9.56148338318,0.0686465501785,acc,,,
479,1644542389823092699,0.549172401428,-9.62032318115,0.166713044047,acc,,,
480,1644542389824524879,,,,gyr,0.226892799139,-0.162315621972,-0.106465086341
481,1644542389825106859,0.57859236002,-9.62032318115,0.362846046686,acc,,,
482,1644542389827123165,0.627625584602,-9.70858287811,0.470719188452,acc,,,
483,1644542389829136848,0.57859236002,-9.67916297913,0.490332484245,acc,,,
484,1644542389829537153,,,,gyr,0.237364768982,-0.137881010771,-0.11344639957
485,1644542389831151009,0.57859236002,-9.62032318115,0.470719188452,acc,,,
486,1644542389833167076,0.558979034424,-9.64974308014,0.470719188452,acc,,,
487,1644542389834547043,,,,gyr,0.23212878406,-0.0645771846175,-0.0959931090474
488,1644542389835181236,0.549172401428,-9.70858287811,0.509945809841,acc,,,
489,1644542389837195396,0.529559075832,-9.66935634613,0.451105892658,acc,,,
490,1644542389839209318,0.490332484245,-9.58109664917,0.264779537916,acc,,,
491,1644542389839559317,,,,gyr,0.21991148591,0.0,-0.0942477807403
492,1644542389841223478,0.549172401428,-9.42419052124,-0.166713044047,acc,,,
493,1644542389843237400,0.57859236002,-9.98316955566,0.137293100357,acc,,,
494,1644542389844571590,,,,gyr,0.23212878406,0.0558505356312,-0.0959931090474
495,1644542389845253468,0.961051702499,-11.1697740555,4.26589250565,acc,,,
496,1644542389847265482,1.61809718609,-8.92405128479,-1.47099745274,acc,,,
497,1644542389849281549,0.196132987738,-9.86548995972,0.735498726368,acc,,,
498,1644542389849583387,,,,gyr,0.120427720249,0.0610865242779,-0.0890117883682
499,1644542389851295710,0.951245009899,-9.86548995972,0.549172401428,acc,,,
500,1644542389853311777,0.421685934067,-9.48303031921,0.294199496508,acc,,,
501,1644542389854595661,,,,gyr,0.0104719754308,0.0523598790169,-0.0174532923847
502,1644542389855325699,0.735498726368,-9.78703689575,0.470719188452,acc,,,
503,1644542389857341766,0.470719188452,-9.57129001617,0.274586200714,acc,,,
504,1644542389859355927,0.598205626011,-9.70858287811,0.402072638273,acc,,,
505,1644542389859607935,,,,gyr,0.00349065847695,0.0750491544604,0.0
506,1644542389861369848,0.490332484245,-9.49283695221,0.343232750893,acc,,,
507,1644542389863384008,0.57859236002,-9.7478094101,0.274586200714,acc,,,
508,1644542389864619970,,,,gyr,0.00523598771542,0.104719758034,-0.00174532923847
509,1644542389865397930,0.451105892658,-9.58109664917,0.549172401428,acc,,,
510,1644542389867413998,0.666852176189,-9.64974308014,0.38245934248,acc,,,
511,1644542389869428158,0.470719188452,-9.62032318115,0.490332484245,acc,,,
512,1644542389869632006,,,,gyr,0.0104719754308,0.153588980436,-0.00174532923847
513,1644542389871442080,0.558979034424,-9.64974308014,0.274586200714,acc,,,
514,1644542389873456240,0.725692093372,-9.67916297913,0.0,acc,,,
515,1644542389874644279,,,,gyr,0.0209439508617,0.228638127446,0.0
516,1644542389875470161,0.764918684959,-9.58109664917,-0.274586200714,acc,,,
517,1644542389877484322,0.666852176189,-9.70858287811,-0.362846046686,acc,,,
518,1644542389879500389,0.833565235138,-9.56148338318,-0.451105892658,acc,,,
519,1644542389879656553,,,,gyr,0.0855211317539,0.280998021364,0.0174532923847
520,1644542389881514311,0.813951909542,-9.67916297913,-0.38245934248,acc,,,
521,1644542389883528471,0.774725317955,-9.64974308014,-0.274586200714,acc,,,
522,1644542389884668350,,,,gyr,0.214675500989,0.246091425419,0.0436332300305
523,1644542389885544777,0.696272134781,-9.57129001617,-0.12748645246,acc,,,
524,1644542389887558699,0.735498726368,-9.62032318115,-0.00980664975941,acc,,,
525,1644542389889574766,0.57859236002,-9.58109664917,0.166713044047,acc,,,
526,1644542389889680624,,,,gyr,0.308923274279,0.158824965358,0.069813169539
527,1644542389891588926,0.490332484245,-9.64974308014,0.402072638273,acc,,,
528,1644542389893604755,0.529559075832,-9.57129001617,0.421685934067,acc,,,
529,1644542389894692898,,,,gyr,0.335103213787,0.102974422276,0.0837758034468
530,1644542389895618916,0.549172401428,-9.61051654816,0.529559075832,acc,,,
531,1644542389897633076,0.470719188452,-9.61051654816,0.549172401428,acc,,,
532,1644542389899648905,0.490332484245,-9.57129001617,0.598205626011,acc,,,
533,1644542389899703026,,,,gyr,0.298451304436,0.0855211317539,0.0715584978461
534,1644542389901663065,0.490332484245,-9.62032318115,0.666852176189,acc,,,
535,1644542389903676987,0.509945809841,-9.58109664917,0.558979034424,acc,,,
536,1644542389904715061,,,,gyr,0.21991148591,0.0593411922455,0.0523598790169
537,1644542389905691147,0.470719188452,-9.62032318115,0.549172401428,acc,,,
538,1644542389907707214,0.529559075832,-9.57129001617,0.470719188452,acc,,,
539,1644542389909721136,0.529559075832,-9.61051654816,0.509945809841,acc,,,
540,1644542389909727335,,,,gyr,0.127409040928,0.0349065847695,0.0349065847695
541,1644542389911735296,0.470719188452,-9.61051654816,0.421685934067,acc,,,
542,1644542389913749456,0.490332484245,-9.62032318115,0.509945809841,acc,,,
543,1644542389914739609,,,,gyr,0.0645771846175,0.0139626339078,0.0139626339078
544,1644542389915763378,0.509945809841,-9.57129001617,0.549172401428,acc,,,
545,1644542389917779446,0.509945809841,-9.57129001617,0.402072638273,acc,,,
546,1644542389919751644,,,,gyr,0.0104719754308,0.0,0.0
547,1644542389919793606,0.549172401428,-9.62032318115,0.362846046686,acc,,,
548,1644542389921807528,0.558979034424,-9.61051654816,0.421685934067,acc,,,
549,1644542389923821688,0.529559075832,-9.62032318115,0.451105892658,acc,,,
550,1644542389924763680,,,,gyr,-0.0314159244299,-0.0104719754308,-0.00872664619237
551,1644542389925837994,0.558979034424,-9.64974308014,0.421685934067,acc,,,
552,1644542389927851915,0.509945809841,-9.62032318115,0.402072638273,acc,,,
553,1644542389929775953,,,,gyr,-0.0680678412318,-0.0191986225545,-0.0209439508617
554,1644542389929866076,0.598205626011,-9.64974308014,0.402072638273,acc,,,
555,1644542389931879997,0.529559075832,-9.66935634613,0.313812792301,acc,,,
556,1644542389933896065,0.558979034424,-9.61051654816,0.402072638273,acc,,,
557,1644542389934787989,,,,gyr,-0.0925024524331,-0.0261799395084,-0.0226892791688
558,1644542389935910225,0.558979034424,-9.64974308014,0.38245934248,acc,,,
559,1644542389937924147,0.558979034424,-9.62032318115,0.362846046686,acc,,,
560,1644542389939800262,,,,gyr,-0.109955742955,-0.0261799395084,-0.0296705961227
561,1644542389939940214,0.598205626011,-9.58109664917,0.402072638273,acc,,,
562,1644542389941954374,0.598205626011,-9.64974308014,0.421685934067,acc,,,
563,1644542389943968296,0.558979034424,-9.64974308014,0.402072638273,acc,,,
564,1644542389944812298,,,,gyr,-0.136135682464,-0.0349065847695,-0.0349065847695
565,1644542389945982456,0.627625584602,-9.64974308014,0.402072638273,acc,,,
566,1644542389947998524,0.637432217598,-9.64974308014,0.421685934067,acc,,,
567,1644542389949824572,,,,gyr,-0.157079637051,-0.0383972451091,-0.0383972451091
568,1644542389950012445,0.558979034424,-9.64974308014,0.509945809841,acc,,,
569,1644542389952026606,0.549172401428,-9.62032318115,0.57859236002,acc,,,
570,1644542389954040527,0.549172401428,-9.62032318115,0.764918684959,acc,,,
571,1644542389954836607,,,,gyr,-0.179768905044,-0.0296705961227,-0.0436332300305
572,1644542389956054688,0.529559075832,-9.64974308014,0.804145276546,acc,,,
573,1644542389958070755,0.549172401428,-9.62032318115,0.637432217598,acc,,,
574,1644542389959846973,,,,gyr,-0.237364768982,0.00872664619237,-0.0506145469844
575,1644542389960084677,0.529559075832,-9.64974308014,0.57859236002,acc,,,
576,1644542389962098837,0.529559075832,-9.66935634613,0.558979034424,acc,,,
577,1644542389964114904,0.598205626011,-9.66935634613,0.470719188452,acc,,,
578,1644542389964858770,,,,gyr,-0.308923274279,0.0523598790169,-0.0645771846175
579,1644542389966128826,0.598205626011,-9.70858287811,0.402072638273,acc,,,
580,1644542389968142986,2.04958987236,-10.2675619125,-2.19668960571,acc,,,
581,1644542389969871044,,,,gyr,-0.336848556995,0.0925024524331,-0.0680678412318
582,1644542389970157146,-0.686465501785,-8.78675842285,-1.86326348782,acc,,,
583,1644542389972173214,1.17679798603,-10.2185287476,2.42224240303,acc,,,
584,1644542389974187374,0.696272134781,-9.58109664917,0.470719188452,acc,,,
585,1644542389974883318,,,,gyr,-0.0610865242779,0.150098308921,-0.00872664619237
586,1644542389976201534,0.274586200714,-9.30651092529,-0.549172401428,acc,,,
587,1644542389978217363,0.598205626011,-9.81645679474,0.637432217598,acc,,,
588,1644542389979895592,,,,gyr,-0.0209439508617,0.223402142525,0.0069813169539
589,1644542389980231524,0.735498726368,-9.78703689575,0.882598459721,acc,,,
590,1644542389982245684,0.470719188452,-9.30651092529,-0.137293100357,acc,,,
591,1644542389984261513,0.627625584602,-9.78703689575,0.402072638273,acc,,,
592,1644542389984907627,,,,gyr,-0.00349065847695,0.289724647999,0.00349065847695
593,1644542389986275673,0.558979034424,-9.64974308014,0.764918684959,acc,,,
594,1644542389988289833,0.804145276546,-9.53206348419,-0.421685934067,acc,,,
595,1644542389989919662,,,,gyr,0.00349065847695,0.32637655735,0.0
596,1644542389990305662,0.470719188452,-9.57129001617,0.38245934248,acc,,,
597,1644542389992319822,0.686465501785,-9.70858287811,0.0784531980753,acc,,,
598,1644542389994333982,0.558979034424,-9.53206348419,-0.0294199492782,acc,,,
599,1644542389994931936,,,,gyr,0.0069813169539,0.300196617842,0.0
600,1644542389996349812,0.627625584602,-9.61051654816,0.0392265990376,acc,,,
601,1644542389998363972,0.558979034424,-9.75761604309,0.0686465501785,acc,,,
602,1644542389999944210,,,,gyr,0.0226892791688,0.253072738647,0.0
603,1644542390000375986,0.725692093372,-9.53206348419,-0.0980664938688,acc,,,
604,1644542390002392054,0.764918684959,-9.66935634613,-0.245166242123,acc,,,
605,1644542390004406214,0.637432217598,-9.61051654816,-0.38245934248,acc,,,
606,1644542390004956245,,,,gyr,0.0523598790169,0.202458187938,0.00523598771542
607,1644542390006422281,0.666852176189,-9.61051654816,-0.196132987738,acc,,,
608,1644542390008436203,0.764918684959,-9.64974308014,-0.0294199492782,acc,,,
609,1644542390009968519,,,,gyr,0.141371667385,0.148352980614,0.0296705961227
610,1644542390010452509,0.529559075832,-9.64974308014,0.12748645246,acc,,,
611,1644542390012468576,0.490332484245,-9.57129001617,0.176519691944,acc,,,
612,1644542390014482737,0.666852176189,-9.57129001617,0.264779537916,acc,,,
613,1644542390014980555,,,,gyr,0.211184844375,0.111701071262,0.0436332300305
614,1644542390016496658,0.558979034424,-9.64974308014,0.313812792301,acc,,,
615,1644542390018512726,0.451105892658,-9.5222568512,0.294199496508,acc,,,
616,1644542390019992590,,,,gyr,0.226892799139,0.0890117883682,0.0506145469844
617,1644542390020526886,0.558979034424,-9.57129001617,0.362846046686,acc,,,
618,1644542390022540808,0.598205626011,-9.61051654816,0.421685934067,acc,,,
619,1644542390024554968,0.451105892658,-9.58109664917,0.402072638273,acc,,,
620,1644542390025004864,,,,gyr,0.218166157603,0.0767944902182,0.0471238903701
621,1644542390026571035,0.529559075832,-9.61051654816,0.402072638273,acc,,,
622,1644542390028584957,0.637432217598,-9.62032318115,0.509945809841,acc,,,
623,1644542390030015230,,,,gyr,0.185004904866,0.0645771846175,0.0436332300305
624,1644542390030599117,0.509945809841,-9.62032318115,0.421685934067,acc,,,
625,1644542390032615185,0.529559075832,-9.62032318115,0.451105892658,acc,,,
626,1644542390034629107,0.627625584602,-9.62032318115,0.470719188452,acc,,,
627,1644542390035027027,,,,gyr,0.153588980436,0.0418879017234,0.0349065847695
628,1644542390036643267,0.529559075832,-9.61051654816,0.451105892658,acc,,,
629,1644542390038657188,0.558979034424,-9.71838951111,0.451105892658,acc,,,
630,1644542390040039301,,,,gyr,0.106465086341,0.0349065847695,0.0209439508617
631,1644542390040671349,0.627625584602,-9.62032318115,0.402072638273,acc,,,
632,1644542390042687416,0.549172401428,-9.61051654816,0.470719188452,acc,,,
633,1644542390044701338,0.57859236002,-9.67916297913,0.529559075832,acc,,,
634,1644542390045051575,,,,gyr,0.0680678412318,0.0139626339078,0.0139626339078
635,1644542390046715498,0.558979034424,-9.62032318115,0.421685934067,acc,,,
636,1644542390048729658,0.627625584602,-9.64974308014,0.470719188452,acc,,,
637,1644542390050063610,,,,gyr,0.0226892791688,0.00174532923847,0.00872664619237
638,1644542390050743580,0.666852176189,-9.64974308014,0.362846046686,acc,,,
639,1644542390052759647,0.627625584602,-9.64974308014,0.245166242123,acc,,,
640,1644542390054773808,0.686465501785,-9.62032318115,0.313812792301,acc,,,
641,1644542390055075884,,,,gyr,-0.00872664619237,-0.00523598771542,-0.00174532923847
642,1644542390056787729,0.627625584602,-9.66935634613,0.362846046686,acc,,,
643,1644542390058804035,0.57859236002,-9.62032318115,0.362846046686,acc,,,
644,1644542390060088158,,,,gyr,-0.0191986225545,-0.00872664619237,-0.00174532923847
645,1644542390060818195,0.637432217598,-9.70858287811,0.470719188452,acc,,,
646,1644542390062832117,0.637432217598,-9.67916297913,0.470719188452,acc,,,
647,1644542390064848185,0.57859236002,-9.62032318115,0.490332484245,acc,,,
648,1644542390065100193,,,,gyr,-0.0436332300305,-0.0139626339078,-0.0104719754308
649,1644542390066862345,0.637432217598,-9.70858287811,0.402072638273,acc,,,
650,1644542390068876266,0.637432217598,-9.62032318115,0.451105892658,acc,,,
651,1644542390070112228,,,,gyr,-0.0890117883682,-0.0261799395084,-0.0174532923847
652,1644542390070892334,0.558979034424,-9.66935634613,0.470719188452,acc,,,
653,1644542390072906494,0.598205626011,-9.70858287811,0.509945809841,acc,,,
654,1644542390074920654,0.57859236002,-9.64974308014,0.549172401428,acc,,,
655,1644542390075124502,,,,gyr,-0.141371667385,-0.0383972451091,-0.0261799395084
656,1644542390076936483,0.57859236002,-9.61051654816,0.549172401428,acc,,,
657,1644542390078950644,0.57859236002,-9.64974308014,0.549172401428,acc,,,
658,1644542390080136776,,,,gyr,-0.193731546402,-0.0558505356312,-0.0436332300305
659,1644542390080964804,0.549172401428,-9.62032318115,0.549172401428,acc,,,
660,1644542390082980633,0.57859236002,-9.61051654816,0.490332484245,acc,,,
661,1644542390084994793,0.627625584602,-9.61051654816,0.421685934067,acc,,,
662,1644542390085148811,,,,gyr,-0.254818081856,-0.0715584978461,-0.0523598790169
663,1644542390087011099,0.558979034424,-9.61051654816,0.402072638273,acc,,,
664,1644542390089025021,0.637432217598,-9.62032318115,0.38245934248,acc,,,
665,1644542390090161085,,,,gyr,-0.308923274279,-0.0890117883682,-0.069813169539
666,1644542390091039181,0.637432217598,-9.64974308014,0.274586200714,acc,,,
667,1644542390093053341,1.12776470184,-9.96355628967,-0.264779537916,acc,,,
668,1644542390095067024,0.666852176189,-9.20844459534,-2.92238163948,acc,,,
669,1644542390095171213,,,,gyr,-0.317649930716,-0.0942477807403,-0.0610865242779
670,1644542390097083330,0.451105892658,-9.61051654816,1.04931151867,acc,,,
671,1644542390099097490,0.696272134781,-9.88510322571,1.04931151867,acc,,,
672,1644542390100183249,,,,gyr,-0.0872664600611,-0.0349065847695,-0.00174532923847
673,1644542390101111412,0.637432217598,-9.45361042023,-0.402072638273,acc,,,
674,1644542390103127480,0.264779537916,-9.64974308014,0.627625584602,acc,,,
675,1644542390105143547,0.813951909542,-9.71838951111,0.176519691944,acc,,,
676,1644542390105195522,,,,gyr,-0.0104719754308,-0.0069813169539,0.0
677,1644542390107157707,0.451105892658,-9.5222568512,0.225552946329,acc,,,
678,1644542390109171629,0.57859236002,-9.80665016174,0.38245934248,acc,,,
679,1644542390110207796,,,,gyr,-0.00523598771542,0.00174532923847,0.00349065847695
680,1644542390111187696,0.509945809841,-9.5222568512,0.137293100357,acc,,,
681,1644542390113201857,0.598205626011,-9.7478094101,0.274586200714,acc,,,
682,1644542390115215778,0.558979034424,-9.57129001617,0.313812792301,acc,,,
683,1644542390115220070,,,,gyr,-0.00174532923847,-0.00174532923847,0.00174532923847
684,1644542390117231846,0.470719188452,-9.57129001617,0.225552946329,acc,,,
685,1644542390119246006,0.57859236002,-9.67916297913,0.294199496508,acc,,,
686,1644542390120232105,,,,gyr,-0.00523598771542,-0.00174532923847,0.00174532923847
687,1644542390121259928,0.598205626011,-9.57129001617,0.225552946329,acc,,,
688,1644542390123276234,0.470719188452,-9.58109664917,0.196132987738,acc,,,
689,1644542390125244141,,,,gyr,-0.00523598771542,-0.00349065847695,0.00349065847695
690,1644542390125290394,0.558979034424,-9.58109664917,0.176519691944,acc,,,
691,1644542390127304554,0.549172401428,-9.53206348419,0.294199496508,acc,,,
692,1644542390129320383,0.529559075832,-9.57129001617,0.245166242123,acc,,,
693,1644542390130256414,,,,gyr,-0.00349065847695,0.0,0.0
694,1644542390131334543,0.549172401428,-9.62032318115,0.196132987738,acc,,,
695,1644542390133348703,0.57859236002,-9.61051654816,0.343232750893,acc,,,
696,1644542390135268450,,,,gyr,0.0,0.00349065847695,0.0
697,1644542390135364532,0.558979034424,-9.70858287811,0.264779537916,acc,,,
698,1644542390137378693,0.666852176189,-9.66935634613,0.225552946329,acc,,,
699,1644542390139392853,0.558979034424,-9.5222568512,0.0,acc,,,
700,1644542390140280724,,,,gyr,-0.00523598771542,-0.0139626339078,0.00349065847695
701,1644542390141408920,0.637432217598,-9.62032318115,0.137293100357,acc,,,
702,1644542390143422842,0.627625584602,-9.62032318115,0.196132987738,acc,,,
703,1644542390145292997,,,,gyr,-0.00174532923847,-0.0436332300305,0.0
704,1644542390145437002,0.598205626011,-9.66935634613,0.0686465501785,acc,,,
705,1644542390147450924,0.696272134781,-9.66935634613,0.0980664938688,acc,,,
706,1644542390149466991,0.637432217598,-9.62032318115,0.245166242123,acc,,,
707,1644542390150305271,,,,gyr,0.0,-0.0802851468325,-0.00174532923847
708,1644542390151481152,0.598205626011,-9.66935634613,0.176519691944,acc,,,
709,1644542390153495312,0.637432217598,-9.62032318115,0.196132987738,acc,,,
710,1644542390155317307,,,,gyr,-0.00174532923847,-0.129154369235,0.0
711,1644542390155511141,0.598205626011,-9.66935634613,0.490332484245,acc,,,
712,1644542390157525301,0.549172401428,-9.62032318115,0.490332484245,acc,,,
713,1644542390159539461,0.529559075832,-9.64974308014,0.402072638273,acc,,,
714,1644542390160327435,,,,gyr,-0.0069813169539,-0.122173048556,0.00349065847695
715,1644542390161553383,0.558979034424,-9.61051654816,0.402072638273,acc,,,
716,1644542390163569689,0.57859236002,-9.67916297913,0.38245934248,acc,,,
717,1644542390165339708,,,,gyr,-0.0104719754308,-0.0610865242779,0.00174532923847
718,1644542390165583849,0.627625584602,-9.64974308014,0.176519691944,acc,,,
719,1644542390167597771,0.598205626011,-9.67916297913,0.343232750893,acc,,,
720,1644542390169613838,0.627625584602,-9.71838951111,0.362846046686,acc,,,
721,1644542390170351744,,,,gyr,-0.00523598771542,-0.0226892791688,0.0
722,1644542390171627998,0.598205626011,-9.61051654816,0.245166242123,acc,,,
723,1644542390173642159,0.627625584602,-9.66935634613,0.294199496508,acc,,,
724,1644542390175364017,,,,gyr,0.0,-0.0104719754308,0.0069813169539
725,1644542390175656080,0.666852176189,-9.66935634613,0.274586200714,acc,,,
726,1644542390177672148,0.637432217598,-9.61051654816,0.225552946329,acc,,,
727,1644542390179686308,0.627625584602,-9.58109664917,0.225552946329,acc,,,
728,1644542390180376291,,,,gyr,-0.00349065847695,0.0,0.00349065847695
729,1644542390181700230,0.686465501785,-9.67916297913,0.196132987738,acc,,,
730,1644542390183714390,0.57859236002,-9.61051654816,0.225552946329,acc,,,
731,1644542390185388327,,,,gyr,-0.00174532923847,-0.00349065847695,0.00174532923847
732,1644542390185730457,0.598205626011,-9.62032318115,0.245166242123,acc,,,
733,1644542390187744379,0.696272134781,-9.70858287811,0.264779537916,acc,,,
734,1644542390189758539,0.627625584602,-9.61051654816,0.225552946329,acc,,,
735,1644542390190400600,,,,gyr,0.0,0.0,0.00349065847695
736,1644542390191772699,0.57859236002,-9.62032318115,0.264779537916,acc,,,
737,1644542390193788767,0.686465501785,-9.66935634613,0.245166242123,acc,,,
738,1644542390195412874,,,,gyr,-0.00523598771542,0.00349065847695,0.0
739,1644542390195802689,0.627625584602,-9.58109664917,0.196132987738,acc,,,
740,1644542390197816849,0.57859236002,-9.58109664917,0.196132987738,acc,,,
741,1644542390199830770,0.666852176189,-9.70858287811,0.274586200714,acc,,,
742,1644542390200425148,,,,gyr,0.0,0.00174532923847,0.0
743,1644542390201846838,0.57859236002,-9.61051654816,0.137293100357,acc,,,
744,1644542390203860998,0.637432217598,-9.67916297913,0.264779537916,acc,,,
745,1644542390205437183,,,,gyr,0.0,0.0,0.00174532923847
746,1644542390205875158,0.598205626011,-9.67916297913,0.264779537916,acc,,,
747,1644542390207889080,0.558979034424,-9.58109664917,0.196132987738,acc,,,
748,1644542390209903240,0.627625584602,-9.62032318115,0.176519691944,acc,,,
749,1644542390210449219,,,,gyr,-0.00523598771542,0.0,0.0
750,1644542390211919546,0.627625584602,-9.61051654816,0.166713044047,acc,,,
751,1644542390213933468,0.558979034424,-9.57129001617,0.0980664938688,acc,,,
752,1644542390215461493,,,,gyr,-0.00174532923847,0.0,0.00174532923847
753,1644542390215947628,0.627625584602,-9.64974308014,0.313812792301,acc,,,
754,1644542390217961788,0.490332484245,-9.57129001617,0.0980664938688,acc,,,
755,1644542390219975471,0.598205626011,-9.58109664917,0.264779537916,acc,,,
756,1644542390220471621,,,,gyr,-0.00349065847695,0.0,0.00174532923847
757,1644542390221989632,0.57859236002,-9.57129001617,0.245166242123,acc,,,
758,1644542390224005938,0.509945809841,-9.58109664917,0.166713044047,acc,,,
759,1644542390225483894,,,,gyr,0.0,-0.00174532923847,0.0
760,1644542390226020098,0.598205626011,-9.58109664917,0.196132987738,acc,,,
761,1644542390228034019,0.558979034424,-9.58109664917,0.176519691944,acc,,,
762,1644542390230048180,0.529559075832,-9.62032318115,0.264779537916,acc,,,
763,1644542390230496168,,,,gyr,0.0,0.00349065847695,0.0
764,1644542390232062101,0.558979034424,-9.58109664917,0.176519691944,acc,,,
765,1644542390234078169,0.558979034424,-9.57129001617,0.274586200714,acc,,,
766,1644542390235508204,,,,gyr,0.00349065847695,0.0,-0.00174532923847
767,1644542390236092329,0.549172401428,-9.62032318115,0.245166242123,acc,,,
768,1644542390238106489,0.558979034424,-9.62032318115,0.245166242123,acc,,,
769,1644542390240120411,0.57859236002,-9.62032318115,0.264779537916,acc,,,
770,1644542390240520477,,,,gyr,0.0069813169539,0.00174532923847,0.0
771,1644542390242134571,0.57859236002,-9.62032318115,0.343232750893,acc,,,
772,1644542390244150639,0.529559075832,-9.57129001617,0.264779537916,acc,,,
773,1644542390245532751,,,,gyr,0.0,0.0,0.00174532923847
774,1644542390246164560,0.529559075832,-9.58109664917,0.274586200714,acc,,,
775,1644542390248178720,0.549172401428,-9.61051654816,0.274586200714,acc,,,
776,1644542390250192881,0.558979034424,-9.61051654816,0.264779537916,acc,,,
777,1644542390250545025,,,,gyr,-0.00174532923847,0.00174532923847,0.0
778,1644542390252206802,0.558979034424,-9.61051654816,0.176519691944,acc,,,
779,1644542390254222870,0.558979034424,-9.62032318115,0.362846046686,acc,,,
780,1644542390255557060,,,,gyr,-0.00349065847695,0.0,0.00174532923847
781,1644542390256237030,0.57859236002,-9.62032318115,0.313812792301,acc,,,
782,1644542390258251190,0.558979034424,-9.57129001617,0.225552946329,acc,,,
783,1644542390260265112,0.529559075832,-9.61051654816,0.343232750893,acc,,,
784,1644542390260569096,,,,gyr,-0.0069813169539,-0.00174532923847,0.0
785,1644542390262279272,0.627625584602,-9.61051654816,0.245166242123,acc,,,
786,1644542390264293432,0.627625584602,-9.62032318115,0.264779537916,acc,,,
787,1644542390265581369,,,,gyr,-0.00349065847695,0.00174532923847,0.00174532923847
788,1644542390266307354,0.598205626011,-9.66935634613,0.343232750893,acc,,,
789,1644542390268321514,0.627625584602,-9.64974308014,0.264779537916,acc,,,
790,1644542390270335674,0.666852176189,-9.62032318115,0.274586200714,acc,,,
791,1644542390270593405,,,,gyr,-0.0104719754308,0.0,0.00349065847695
792,1644542390272349596,0.549172401428,-9.61051654816,0.274586200714,acc,,,
793,1644542390274363756,0.666852176189,-9.67916297913,0.294199496508,acc,,,
794,1644542390275605679,,,,gyr,-0.00872664619237,-0.00523598771542,0.0
795,1644542390276377916,0.598205626011,-9.58109664917,0.245166242123,acc,,,
796,1644542390278391838,0.57859236002,-9.62032318115,0.196132987738,acc,,,
797,1644542390280405998,0.686465501785,-9.67916297913,0.274586200714,acc,,,
798,1644542390280617952,,,,gyr,-0.0104719754308,0.0,0.00174532923847
799,1644542390282422066,0.666852176189,-9.64974308014,0.343232750893,acc,,,
800,1644542390284435987,0.637432217598,-9.62032318115,0.274586200714,acc,,,
801,1644542390285630226,,,,gyr,-0.00174532923847,-0.00174532923847,0.00174532923847
802,1644542390286450148,0.627625584602,-9.66935634613,0.245166242123,acc,,,
803,1644542390288464308,0.686465501785,-9.67916297913,0.264779537916,acc,,,
804,1644542390290478230,0.666852176189,-9.67916297913,0.264779537916,acc,,,
805,1644542390290640354,,,,gyr,-0.00174532923847,-0.00174532923847,0.00174532923847
806,1644542390292492390,0.627625584602,-9.67916297913,0.196132987738,acc,,,
807,1644542390294506550,0.637432217598,-9.62032318115,0.225552946329,acc,,,
808,1644542390295652628,,,,gyr,-0.00349065847695,0.0,-0.00174532923847
809,1644542390296520472,0.686465501785,-9.67916297913,0.196132987738,acc,,,
810,1644542390298534632,0.637432217598,-9.66935634613,0.245166242123,acc,,,
811,1644542390300550699,0.558979034424,-9.61051654816,0.166713044047,acc,,,
812,1644542390300664902,,,,gyr,0.0,0.00174532923847,0.00174532923847
813,1644542390302564859,0.686465501785,-9.66935634613,0.274586200714,acc,,,
814,1644542390304578781,0.637432217598,-9.64974308014,0.294199496508,acc,,,
815,1644542390305676937,,,,gyr,0.0,0.0,-0.00174532923847
816,1644542390306592941,0.627625584602,-9.64974308014,0.196132987738,acc,,,
817,1644542390308609247,0.57859236002,-9.66935634613,0.274586200714,acc,,,
818,1644542390310622931,0.598205626011,-9.66935634613,0.12748645246,acc,,,
819,1644542390310689211,,,,gyr,0.0,-0.00174532923847,0.00174532923847
820,1644542390312637091,0.598205626011,-9.62032318115,0.196132987738,acc,,,
821,1644542390314653397,0.666852176189,-9.64974308014,0.294199496508,acc,,,
822,1644542390315701485,,,,gyr,0.0,-0.00174532923847,0.00349065847695
823,1644542390316667557,0.558979034424,-9.56148338318,0.196132987738,acc,,,
824,1644542390318681479,0.598205626011,-9.61051654816,0.264779537916,acc,,,
825,1644542390320697546,0.529559075832,-9.57129001617,0.176519691944,acc,,,
826,1644542390320713520,,,,gyr,-0.00174532923847,-0.00174532923847,0.0
827,1644542390322711706,0.558979034424,-9.61051654816,0.264779537916,acc,,,
828,1644542390324725628,0.558979034424,-9.61051654816,0.225552946329,acc,,,
829,1644542390325725794,,,,gyr,0.0,0.0,0.0
830,1644542390326739788,0.558979034424,-9.61051654816,0.225552946329,acc,,,
831,1644542390328753948,0.549172401428,-9.57129001617,0.245166242123,acc,,,
832,1644542390330738068,,,,gyr,0.0,0.0,0.00174532923847
833,1644542390330770016,0.57859236002,-9.58109664917,0.264779537916,acc,,,
834,1644542390332783937,0.549172401428,-9.61051654816,0.176519691944,acc,,,
835,1644542390334798098,0.549172401428,-9.61051654816,0.196132987738,acc,,,
836,1644542390335750341,,,,gyr,-0.00349065847695,0.00174532923847,-0.00174532923847
837,1644542390336814165,0.57859236002,-9.58109664917,0.264779537916,acc,,,
838,1644542390338828325,0.558979034424,-9.58109664917,0.196132987738,acc,,,
839,1644542390340762377,,,,gyr,0.0,-0.00174532923847,0.0
840,1644542390340842247,0.558979034424,-9.61051654816,0.196132987738,acc,,,
841,1644542390342858315,0.558979034424,-9.61051654816,0.245166242123,acc,,,
842,1644542390344872475,0.558979034424,-9.62032318115,0.225552946329,acc,,,
843,1644542390345774651,,,,gyr,0.0,0.0,-0.00349065847695
844,1644542390346886396,0.549172401428,-9.62032318115,0.264779537916,acc,,,
845,1644542390348902702,0.549172401428,-9.61051654816,0.176519691944,acc,,,
846,1644542390350784779,,,,gyr,0.0,0.0,0.00174532923847
847,1644542390350916862,0.57859236002,-9.53206348419,0.225552946329,acc,,,
848,1644542390352932930,0.57859236002,-9.61051654816,0.225552946329,acc,,,
849,1644542390354947090,0.558979034424,-9.61051654816,0.245166242123,acc,,,
850,1644542390355796814,,,,gyr,-0.00174532923847,0.0,-0.00174532923847
851,1644542390356961012,0.558979034424,-9.64974308014,0.245166242123,acc,,,
852,1644542390358977079,0.598205626011,-9.62032318115,0.176519691944,acc,,,
853,1644542390360809088,,,,gyr,-0.00349065847695,0.0,0.00349065847695
854,1644542390360991240,0.549172401428,-9.62032318115,0.264779537916,acc,,,
855,1644542390363005161,0.57859236002,-9.57129001617,0.196132987738,acc,,,
856,1644542390365019321,0.598205626011,-9.62032318115,0.176519691944,acc,,,
857,1644542390365821362,,,,gyr,-0.0069813169539,0.0,0.0
858,1644542390367035389,0.598205626011,-9.61051654816,0.176519691944,acc,,,
859,1644542390369049549,0.558979034424,-9.64974308014,0.225552946329,acc,,,
860,1644542390370833397,,,,gyr,-0.0069813169539,0.00174532923847,0.0
861,1644542390371063471,0.598205626011,-9.66935634613,0.264779537916,acc,,,
862,1644542390373079538,0.57859236002,-9.58109664917,0.225552946329,acc,,,
863,1644542390375093699,0.627625584602,-9.64974308014,0.176519691944,acc,,,
864,1644542390375845671,,,,gyr,-0.00872664619237,0.0,0.00349065847695
865,1644542390377107859,0.627625584602,-9.62032318115,0.245166242123,acc,,,
866,1644542390379123688,0.627625584602,-9.66935634613,0.225552946329,acc,,,
867,1644542390380857944,,,,gyr,-0.00349065847695,0.0,0.0
868,1644542390381137848,0.637432217598,-9.64974308014,0.176519691944,acc,,,
869,1644542390383152008,0.637432217598,-9.66935634613,0.166713044047,acc,,,
870,1644542390385168314,0.637432217598,-9.61051654816,0.245166242123,acc,,,
871,1644542390385870218,,,,gyr,-0.0069813169539,0.0,0.00349065847695
872,1644542390387182236,0.666852176189,-9.61051654816,0.264779537916,acc,,,
873,1644542390389196396,0.637432217598,-9.62032318115,0.245166242123,acc,,,
874,1644542390390882254,,,,gyr,-0.00174532923847,0.00349065847695,0.00523598771542
875,1644542390391210556,0.637432217598,-9.64974308014,0.196132987738,acc,,,
876,1644542390393226624,0.637432217598,-9.64974308014,0.313812792301,acc,,,
877,1644542390395240545,0.637432217598,-9.66935634613,0.245166242123,acc,,,
878,1644542390395894527,,,,gyr,0.0,0.0,-0.00174532923847
879,1644542390397254705,0.627625584602,-9.64974308014,0.294199496508,acc,,,
880,1644542390399268866,0.637432217598,-9.61051654816,0.196132987738,acc,,,
881,1644542390400906801,,,,gyr,0.0,0.0,0.00174532923847
882,1644542390401282787,0.627625584602,-9.61051654816,0.264779537916,acc,,,
883,1644542390403298855,0.637432217598,-9.62032318115,0.313812792301,acc,,,
884,1644542390405313015,0.637432217598,-9.62032318115,0.294199496508,acc,,,
885,1644542390405918837,,,,gyr,-0.00523598771542,0.0,0.0
886,1644542390407327175,0.598205626011,-9.64974308014,0.264779537916,acc,,,
887,1644542390409341097,0.57859236002,-9.64974308014,0.264779537916,acc,,,
888,1644542390410929203,,,,gyr,-0.00174532923847,-0.00349065847695,0.0
889,1644542390411357164,0.627625584602,-9.67916297913,0.313812792301,acc,,,
890,1644542390413371325,0.627625584602,-9.64974308014,0.264779537916,acc,,,
891,1644542390415385485,0.598205626011,-9.66935634613,0.274586200714,acc,,,
892,1644542390415941477,,,,gyr,-0.00174532923847,0.0,0.00174532923847
893,1644542390417399406,0.627625584602,-9.62032318115,0.274586200714,acc,,,
894,1644542390419415474,0.598205626011,-9.62032318115,0.313812792301,acc,,,
895,1644542390420953512,,,,gyr,-0.00349065847695,0.0,0.0
896,1644542390421429634,0.598205626011,-9.61051654816,0.274586200714,acc,,,
897,1644542390423443794,0.57859236002,-9.64974308014,0.245166242123,acc,,,
898,1644542390425459623,0.558979034424,-9.61051654816,0.225552946329,acc,,,
899,1644542390425965786,,,,gyr,-0.00523598771542,0.0,0.00349065847695
900,1644542390427473783,0.598205626011,-9.66935634613,0.343232750893,acc,,,
901,1644542390429487944,0.549172401428,-9.66935634613,0.225552946329,acc,,,
902,1644542390430978060,,,,gyr,-0.00349065847695,-0.00174532923847,0.00174532923847
903,1644542390431504250,0.57859236002,-9.58109664917,0.225552946329,acc,,,
904,1644542390433518171,0.558979034424,-9.64974308014,0.264779537916,acc,,,
905,1644542390435532331,0.598205626011,-9.58109664917,0.274586200714,acc,,,
906,1644542390435990334,,,,gyr,-0.00174532923847,-0.00174532923847,0.00349065847695
907,1644542390437546492,0.558979034424,-9.64974308014,0.225552946329,acc,,,
908,1644542390439560652,0.57859236002,-9.64974308014,0.245166242123,acc,,,
909,1644542390441002369,,,,gyr,0.0,0.0,0.0
910,1644542390441574574,0.558979034424,-9.61051654816,0.274586200714,acc,,,
911,1644542390443590641,0.57859236002,-9.64974308014,0.264779537916,acc,,,
912,1644542390445604801,0.558979034424,-9.58109664917,0.245166242123,acc,,,
913,1644542390446014643,,,,gyr,0.0,0.0,0.00523598771542
914,1644542390447618723,0.57859236002,-9.64974308014,0.264779537916,acc,,,
915,1644542390449632883,0.57859236002,-9.62032318115,0.225552946329,acc,,,
916,1644542390451026917,,,,gyr,-0.00349065847695,0.0,0.0
917,1644542390451648951,0.57859236002,-9.64974308014,0.264779537916,acc,,,
918,1644542390453663111,0.598205626011,-9.61051654816,0.196132987738,acc,,,
919,1644542390455677032,0.558979034424,-9.58109664917,0.264779537916,acc,,,
920,1644542390456038952,,,,gyr,0.0,0.0,0.00174532923847
921,1644542390457691193,0.558979034424,-9.61051654816,0.196132987738,acc,,,
922,1644542390459705353,0.57859236002,-9.58109664917,0.225552946329,acc,,,
923,1644542390461051226,,,,gyr,-0.00349065847695,0.0,0.00174532923847
924,1644542390461721420,0.57859236002,-9.58109664917,0.196132987738,acc,,,
925,1644542390463735342,0.558979034424,-9.61051654816,0.225552946329,acc,,,
926,1644542390465749502,0.57859236002,-9.62032318115,0.176519691944,acc,,,
927,1644542390466063499,,,,gyr,-0.0104719754308,-0.00349065847695,0.00872664619237
928,1644542390467763662,0.57859236002,-9.58109664917,0.245166242123,acc,,,
929,1644542390469779730,0.57859236002,-9.58109664917,0.245166242123,acc,,,
930,1644542390471075773,,,,gyr,-0.0069813169539,0.0,0.0104719754308
931,1644542390471793652,0.57859236002,-9.58109664917,0.176519691944,acc,,,
932,1644542390473807812,0.558979034424,-9.62032318115,0.245166242123,acc,,,
933,1644542390475821972,0.57859236002,-9.62032318115,0.176519691944,acc,,,
934,1644542390476087809,,,,gyr,-0.00523598771542,-0.0069813169539,0.00523598771542
935,1644542390477836132,0.558979034424,-9.62032318115,0.176519691944,acc,,,
936,1644542390479851961,0.598205626011,-9.61051654816,0.245166242123,acc,,,
937,1644542390481098175,,,,gyr,-0.00349065847695,-0.00523598771542,0.0104719754308
938,1644542390481866121,0.598205626011,-9.64974308014,0.176519691944,acc,,,
939,1644542390483880281,0.598205626011,-9.64974308014,0.274586200714,acc,,,
940,1644542390485894442,0.558979034424,-9.61051654816,0.196132987738,acc,,,
941,1644542390486110449,,,,gyr,-0.00523598771542,-0.00523598771542,0.0069813169539
942,1644542390487908363,0.627625584602,-9.61051654816,0.245166242123,acc,,,
943,1644542390489922523,0.57859236002,-9.61051654816,0.245166242123,acc,,,
944,1644542390491122484,,,,gyr,-0.00523598771542,-0.00349065847695,0.0104719754308
945,1644542390491938829,0.627625584602,-9.61051654816,0.225552946329,acc,,,
946,1644542390493952990,0.598205626011,-9.61051654816,0.245166242123,acc,,,
947,1644542390495966911,0.57859236002,-9.64974308014,0.264779537916,acc,,,
948,1644542390496134758,,,,gyr,-0.00523598771542,-0.0069813169539,0.0104719754308
949,1644542390497981071,0.627625584602,-9.67916297913,0.264779537916,acc,,,
950,1644542390499997139,0.627625584602,-9.64974308014,0.264779537916,acc,,,
951,1644542390501147032,,,,gyr,-0.00349065847695,-0.00174532923847,0.0174532923847
952,1644542390502011299,0.627625584602,-9.62032318115,0.264779537916,acc,,,
953,1644542390504025221,0.666852176189,-9.64974308014,0.225552946329,acc,,,
954,1644542390506039381,0.637432217598,-9.64974308014,0.245166242123,acc,,,
955,1644542390506159306,,,,gyr,-0.00349065847695,-0.00523598771542,0.0191986225545
956,1644542390508053541,0.627625584602,-9.66935634613,0.245166242123,acc,,,
957,1644542390510069609,0.627625584602,-9.61051654816,0.274586200714,acc,,,
958,1644542390511171579,,,,gyr,-0.00349065847695,-0.00523598771542,0.0279252678156
959,1644542390512083530,0.637432217598,-9.66935634613,0.176519691944,acc,,,
960,1644542390514097691,0.666852176189,-9.67916297913,0.176519691944,acc,,,
961,1644542390516111851,0.598205626011,-9.62032318115,0.245166242123,acc,,,
962,1644542390516183853,,,,gyr,0.0,-0.00872664619237,0.0296705961227
963,1644542390518125772,0.57859236002,-9.66935634613,0.225552946329,acc,,,
964,1644542390520141840,0.637432217598,-9.66935634613,0.245166242123,acc,,,
965,1644542390521196127,,,,gyr,-0.00349065847695,-0.00174532923847,0.0226892791688
966,1644542390522156000,0.627625584602,-9.61051654816,0.196132987738,acc,,,
967,1644542390524170160,0.598205626011,-9.62032318115,0.264779537916,acc,,,
968,1644542390526184082,0.598205626011,-9.61051654816,0.225552946329,acc,,,
969,1644542390526208162,,,,gyr,0.0,0.0,0.0261799395084
970,1644542390528198242,0.627625584602,-9.62032318115,0.245166242123,acc,,,
971,1644542390530214310,0.627625584602,-9.61051654816,0.274586200714,acc,,,
972,1644542390531220436,,,,gyr,-0.00174532923847,0.00523598771542,0.0209439508617
973,1644542390532228470,0.598205626011,-9.62032318115,0.274586200714,acc,,,
974,1644542390534242630,0.57859236002,-9.66935634613,0.274586200714,acc,,,
975,1644542390536230803,,,,gyr,-0.0069813169539,0.00872664619237,0.0209439508617
976,1644542390536256552,0.558979034424,-9.66935634613,0.225552946329,acc,,,
977,1644542390538272619,0.57859236002,-9.58109664917,0.245166242123,acc,,,
978,1644542390540286779,0.558979034424,-9.62032318115,0.245166242123,acc,,,
979,1644542390541242838,,,,gyr,-0.00523598771542,0.0174532923847,0.0174532923847
980,1644542390542300940,0.57859236002,-9.62032318115,0.264779537916,acc,,,
981,1644542390544314861,0.529559075832,-9.66935634613,0.274586200714,acc,,,
982,1644542390546255112,,,,gyr,-0.00174532923847,0.0296705961227,0.0139626339078
983,1644542390546331167,0.558979034424,-9.64974308014,0.225552946329,acc,,,
984,1644542390548345327,0.57859236002,-9.62032318115,0.225552946329,acc,,,
985,1644542390550359488,0.549172401428,-9.64974308014,0.245166242123,acc,,,
986,1644542390551267385,,,,gyr,-0.00523598771542,0.0349065847695,0.00872664619237
987,1644542390552373409,0.549172401428,-9.61051654816,0.264779537916,acc,,,
988,1644542390554389477,0.558979034424,-9.62032318115,0.274586200714,acc,,,
989,1644542390556279659,,,,gyr,-0.00349065847695,0.0349065847695,0.00523598771542
990,1644542390556403637,0.57859236002,-9.66935634613,0.274586200714,acc,,,
991,1644542390558417797,0.549172401428,-9.61051654816,0.245166242123,acc,,,
992,1644542390560431719,0.598205626011,-9.61051654816,0.264779537916,acc,,,
993,1644542390561291695,,,,gyr,-0.0069813169539,0.0349065847695,0.0069813169539
994,1644542390562447786,0.558979034424,-9.62032318115,0.245166242123,acc,,,
995,1644542390564461946,0.529559075832,-9.61051654816,0.274586200714,acc,,,
996,1644542390566303968,,,,gyr,-0.0139626339078,0.0296705961227,0.0139626339078
997,1644542390566476107,0.549172401428,-9.61051654816,0.225552946329,acc,,,
998,1644542390568490028,0.598205626011,-9.62032318115,0.264779537916,acc,,,
999,1644542390570506096,0.549172401428,-9.62032318115,0.274586200714,acc,,,
1000,1644542390571316242,,,,gyr,-0.0139626339078,0.0209439508617,0.0191986225545
1001,1644542390572520256,0.57859236002,-9.64974308014,0.264779537916,acc,,,
1002,1644542390574534416,0.598205626011,-9.62032318115,0.274586200714,acc,,,
1003,1644542390576328278,,,,gyr,-0.0296705961227,0.0104719754308,0.0261799395084
1004,1644542390576550484,0.627625584602,-9.64974308014,0.264779537916,acc,,,
1005,1644542390578564405,0.57859236002,-9.62032318115,0.274586200714,acc,,,
1006,1644542390580578566,0.627625584602,-9.62032318115,0.274586200714,acc,,,
1007,1644542390581340551,,,,gyr,-0.0383972451091,-0.00174532923847,0.0314159244299
1008,1644542390582592726,0.549172401428,-9.70858287811,0.313812792301,acc,,,
1009,1644542390584606886,0.558979034424,-9.66935634613,0.294199496508,acc,,,
1010,1644542390586353064,,,,gyr,-0.0558505356312,-0.0139626339078,0.0523598790169
1011,1644542390586622953,0.549172401428,-9.62032318115,0.313812792301,acc,,,
1012,1644542390588636875,0.558979034424,-9.62032318115,0.264779537916,acc,,,
1013,1644542390590651035,0.549172401428,-9.62032318115,0.245166242123,acc,,,
1014,1644542390591365337,,,,gyr,-0.0767944902182,-0.0174532923847,0.0610865242779
1015,1644542390592665195,0.558979034424,-9.62032318115,0.264779537916,acc,,,
1016,1644542390594681501,0.509945809841,-9.61051654816,0.245166242123,acc,,,
1017,1644542390596377373,,,,gyr,-0.0837758034468,-0.0209439508617,0.0610865242779
1018,1644542390596695423,0.529559075832,-9.62032318115,0.176519691944,acc,,,
1019,1644542390598709583,0.57859236002,-9.67916297913,0.225552946329,acc,,,
1020,1644542390600723743,0.57859236002,-9.61051654816,0.176519691944,acc,,,
1021,1644542390601389647,,,,gyr,-0.0837758034468,-0.0209439508617,0.0645771846175
1022,1644542390602739811,0.509945809841,-9.62032318115,0.225552946329,acc,,,
1023,1644542390604753733,0.529559075832,-9.61051654816,0.137293100357,acc,,,
1024,1644542390606401920,,,,gyr,-0.0785398185253,-0.0209439508617,0.0610865242779
1025,1644542390606767893,0.509945809841,-9.61051654816,0.12748645246,acc,,,
1026,1644542390608783960,0.549172401428,-9.58109664917,0.12748645246,acc,,,
1027,1644542390610798120,0.558979034424,-9.58109664917,0.137293100357,acc,,,
1028,1644542390611412048,,,,gyr,-0.0715584978461,-0.0209439508617,0.0471238903701
1029,1644542390612812281,0.529559075832,-9.58109664917,0.0686465501785,acc,,,
1030,1644542390614826202,0.509945809841,-9.57129001617,0.0784531980753,acc,,,
1031,1644542390616424322,,,,gyr,-0.0558505356312,-0.0139626339078,0.0349065847695
1032,1644542390616842270,0.598205626011,-9.58109664917,0.0980664938688,acc,,,
1033,1644542390618856430,0.57859236002,-9.66935634613,0.137293100357,acc,,,
1034,1644542390620870590,0.598205626011,-9.64974308014,0.176519691944,acc,,,
1035,1644542390621436596,,,,gyr,-0.0349065847695,-0.0069813169539,0.0226892791688
1036,1644542390622886658,0.57859236002,-9.64974308014,0.166713044047,acc,,,
1037,1644542390624900579,0.558979034424,-9.62032318115,0.176519691944,acc,,,
1038,1644542390626448631,,,,gyr,-0.0296705961227,-0.00523598771542,0.0174532923847
1039,1644542390626914740,0.558979034424,-9.64974308014,0.137293100357,acc,,,
1040,1644542390628928900,0.57859236002,-9.66935634613,0.225552946329,acc,,,
1041,1644542390630944967,0.549172401428,-9.67916297913,0.196132987738,acc,,,
1042,1644542390631460905,,,,gyr,-0.0226892791688,0.0,0.00872664619237
1043,1644542390632958889,0.549172401428,-9.66935634613,0.264779537916,acc,,,
1044,1644542390634973049,0.558979034424,-9.70858287811,0.294199496508,acc,,,
1045,1644542390636473417,,,,gyr,-0.0296705961227,0.0,0.0
1046,1644542390636987209,0.57859236002,-9.70858287811,0.264779537916,acc,,,
1047,1644542390639003515,0.558979034424,-9.71838951111,0.313812792301,acc,,,
1048,1644542390641017675,0.549172401428,-9.71838951111,0.38245934248,acc,,,
1049,1644542390641485691,,,,gyr,-0.0506145469844,-0.00349065847695,-0.00523598771542
1050,1644542390643031597,0.57859236002,-9.78703689575,0.402072638273,acc,,,
1051,1644542390645047665,0.598205626011,-9.7478094101,0.362846046686,acc,,,
1052,1644542390646497726,,,,gyr,-0.0785398185253,0.00523598771542,-0.0191986225545
1053,1644542390647061825,0.627625584602,-9.64974308014,0.225552946329,acc,,,
1054,1644542390649075985,0.57859236002,-9.61051654816,0.225552946329,acc,,,
1055,1644542390651092052,0.558979034424,-9.67916297913,0.225552946329,acc,,,
1056,1644542390651510000,,,,gyr,-0.111701071262,0.0,-0.0209439508617
1057,1644542390653105974,0.558979034424,-9.66935634613,0.343232750893,acc,,,
1058,1644542390655120134,0.558979034424,-9.71838951111,0.402072638273,acc,,,
1059,1644542390656522274,,,,gyr,-0.120427720249,0.0,-0.0296705961227
1060,1644542390657136202,0.558979034424,-9.7478094101,0.421685934067,acc,,,
1061,1644542390659150362,0.558979034424,-9.75761604309,0.421685934067,acc,,,
1062,1644542390661166430,0.549172401428,-9.75761604309,0.509945809841,acc,,,
1063,1644542390661534309,,,,gyr,-0.162315621972,-0.0191986225545,-0.0296705961227
1064,1644542390663178444,1.55925726891,-8.75733852386,-1.42196416855,acc,,,
1065,1644542390665192604,-0.313812792301,-9.58109664917,0.529559075832,acc,,,
1066,1644542390666544676,,,,gyr,-0.188495561481,-0.0191986225545,-0.00872664619237
1067,1644542390667208672,0.921825051308,-9.31631755829,-0.558979034424,acc,,,
1068,1644542390669224739,0.362846046686,-9.75761604309,0.529559075832,acc,,,
1069,1644542390671238899,0.764918684959,-9.66935634613,0.0980664938688,acc,,,
1070,1644542390671556950,,,,gyr,-0.069813169539,-0.00174532923847,0.0296705961227
1071,1644542390673252821,0.509945809841,-9.57129001617,0.294199496508,acc,,,
1072,1644542390675269127,0.470719188452,-9.7478094101,0.362846046686,acc,,,
1073,1644542390676568985,,,,gyr,-0.0610865242779,-0.00872664619237,0.0314159244299
1074,1644542390677281141,0.558979034424,-9.45361042023,-0.0294199492782,acc,,,
1075,1644542390679297447,0.294199496508,-9.56148338318,0.12748645246,acc,,,
1076,1644542390681311607,0.490332484245,-9.56148338318,-0.0980664938688,acc,,,
1077,1644542390681581497,,,,gyr,-0.0750491544604,-0.00174532923847,0.0383972451091
1078,1644542390683325529,0.529559075832,-9.66935634613,0.12748645246,acc,,,
1079,1644542390685341597,0.549172401428,-9.61051654816,0.166713044047,acc,,,
1080,1644542390686593771,,,,gyr,-0.0436332300305,0.0,0.0209439508617
1081,1644542390687355757,0.529559075832,-9.58109664917,0.12748645246,acc,,,
1082,1644542390689369917,0.509945809841,-9.64974308014,0.166713044047,acc,,,
1083,1644542390691383839,0.549172401428,-9.57129001617,0.176519691944,acc,,,
1084,1644542390691606045,,,,gyr,-0.0349065847695,-0.00174532923847,0.0174532923847
1085,1644542390693397999,0.529559075832,-9.64974308014,0.166713044047,acc,,,
1086,1644542390695414066,0.529559075832,-9.61051654816,0.176519691944,acc,,,
1087,1644542390696618080,,,,gyr,-0.0436332300305,-0.00523598771542,0.0209439508617
1088,1644542390697428226,0.549172401428,-9.62032318115,0.0980664938688,acc,,,
1089,1644542390699442387,0.558979034424,-9.61051654816,0.225552946329,acc,,,
1090,1644542390701458454,0.529559075832,-9.66935634613,0.245166242123,acc,,,
1091,1644542390701630354,,,,gyr,-0.0471238903701,-0.00174532923847,0.0209439508617
1092,1644542390703472376,0.57859236002,-9.64974308014,0.176519691944,acc,,,
1093,1644542390705486298,0.57859236002,-9.66935634613,0.166713044047,acc,,,
1094,1644542390706642151,,,,gyr,-0.0558505356312,-0.00174532923847,0.0296705961227
1095,1644542390707502127,0.549172401428,-9.66935634613,0.166713044047,acc,,,
1096,1644542390709515810,0.598205626011,-9.66935634613,0.0980664938688,acc,,,
1097,1644542390711529732,0.627625584602,-9.61051654816,0.0784531980753,acc,,,
1098,1644542390711653709,,,,gyr,-0.069813169539,-0.00349065847695,0.0349065847695
1099,1644542390713543653,0.549172401428,-9.58109664917,0.176519691944,acc,,,
1100,1644542390715557575,0.558979034424,-9.66935634613,0.0784531980753,acc,,,
1101,1644542390716665506,,,,gyr,-0.0750491544604,0.0,0.0349065847695
1102,1644542390717573404,0.549172401428,-9.58109664917,0.0980664938688,acc,,,
1103,1644542390719587326,0.549172401428,-9.58109664917,0.0784531980753,acc,,,
1104,1644542390721601248,0.549172401428,-9.62032318115,0.0980664938688,acc,,,
1105,1644542390721677303,,,,gyr,-0.069813169539,0.0,0.0314159244299
1106,1644542390723615170,0.558979034424,-9.62032318115,0.0392265990376,acc,,,
1107,1644542390725628853,0.549172401428,-9.62032318115,0.0980664938688,acc,,,
1108,1644542390726688862,,,,gyr,-0.0610865242779,0.0069813169539,0.0296705961227
1109,1644542390727644682,0.558979034424,-9.66935634613,0.0980664938688,acc,,,
1110,1644542390729658604,0.549172401428,-9.64974308014,0.0686465501785,acc,,,
1111,1644542390731672525,0.57859236002,-9.62032318115,0.0784531980753,acc,,,
1112,1644542390731700659,,,,gyr,-0.0506145469844,0.0069813169539,0.0261799395084
1113,1644542390733686447,0.558979034424,-9.66935634613,0.0784531980753,acc,,,
1114,1644542390735700369,0.598205626011,-9.61051654816,0.0392265990376,acc,,,
1115,1644542390736710548,,,,gyr,-0.0436332300305,0.00174532923847,0.0209439508617
1116,1644542390737716198,0.57859236002,-9.64974308014,0.12748645246,acc,,,
1117,1644542390739730120,0.57859236002,-9.64974308014,0.0686465501785,acc,,,
1118,1644542390741721869,,,,gyr,-0.0418879017234,0.0,0.0191986225545
1119,1644542390741744041,0.490332484245,-9.61051654816,0.0294199492782,acc,,,
1120,1644542390743757725,0.558979034424,-9.61051654816,0.0294199492782,acc,,,
1121,1644542390745773792,0.57859236002,-9.64974308014,0.166713044047,acc,,,
1122,1644542390746733665,,,,gyr,-0.0296705961227,-0.00174532923847,0.0104719754308
1123,1644542390747787714,0.598205626011,-9.70858287811,0.196132987738,acc,,,
1124,1644542390749801397,0.57859236002,-9.62032318115,0.166713044047,acc,,,
1125,1644542390751745462,,,,gyr,-0.0261799395084,-0.00174532923847,0.0104719754308
1126,1644542390751815319,0.529559075832,-9.61051654816,0.12748645246,acc,,,
1127,1644542390753829241,0.549172401428,-9.62032318115,0.0686465501785,acc,,,
1128,1644542390755843163,0.549172401428,-9.62032318115,0.0784531980753,acc,,,
1129,1644542390756757021,,,,gyr,-0.0279252678156,-0.00349065847695,0.0139626339078
1130,1644542390757857084,0.549172401428,-9.61051654816,0.0784531980753,acc,,,
1131,1644542390759871006,0.549172401428,-9.64974308014,0.0392265990376,acc,,,
1132,1644542390761769056,,,,gyr,-0.0296705961227,-0.00349065847695,0.0139626339078
1133,1644542390761884928,0.509945809841,-9.58109664917,0.00980664975941,acc,,,
1134,1644542390763898849,0.470719188452,-9.57129001617,0.00980664975941,acc,,,
1135,1644542390765915155,0.529559075832,-9.61051654816,0.0392265990376,acc,,,
1136,1644542390766781092,,,,gyr,-0.0174532923847,0.0,0.0104719754308
1137,1644542390767928839,0.509945809841,-9.61051654816,0.0686465501785,acc,,,
1138,1644542390769942760,0.529559075832,-9.62032318115,0.0294199492782,acc,,,
1139,1644542390771792650,,,,gyr,-0.00174532923847,-0.00174532923847,0.00174532923847
1140,1644542390771956682,0.529559075832,-9.61051654816,0.0686465501785,acc,,,
1141,1644542390773972988,0.529559075832,-9.61051654816,0.0392265990376,acc,,,
1142,1644542390775986910,0.57859236002,-9.70858287811,0.166713044047,acc,,,
1143,1644542390776804686,,,,gyr,0.00349065847695,0.0,0.0
1144,1644542390778000832,0.549172401428,-9.61051654816,0.0980664938688,acc,,,
1145,1644542390780014753,0.509945809841,-9.64974308014,0.0294199492782,acc,,,
1146,1644542390781816721,,,,gyr,-0.0069813169539,-0.00349065847695,0.00349065847695
1147,1644542390782028675,0.558979034424,-9.58109664917,0.0392265990376,acc,,,
1148,1644542390784042597,0.451105892658,-9.58109664917,0.0294199492782,acc,,,
1149,1644542390786058664,0.529559075832,-9.61051654816,0.00980664975941,acc,,,
1150,1644542390786828518,,,,gyr,-0.0069813169539,-0.00174532923847,0.00174532923847
1151,1644542390788072586,0.509945809841,-9.58109664917,0.0686465501785,acc,,,
1152,1644542390790086508,0.470719188452,-9.58109664917,0.0392265990376,acc,,,
1153,1644542390791838408,,,,gyr,-0.00174532923847,-0.00174532923847,0.00174532923847
1154,1644542390792100430,0.490332484245,-9.61051654816,0.0980664938688,acc,,,
1155,1644542390794114590,0.529559075832,-9.61051654816,0.0784531980753,acc,,,
1156,1644542390796128511,0.509945809841,-9.64974308014,0.0980664938688,acc,,,
1157,1644542390796852350,,,,gyr,0.0,0.00174532923847,-0.00174532923847
1158,1644542390798144341,0.509945809841,-9.57129001617,0.0980664938688,acc,,,
1159,1644542390800158262,0.509945809841,-9.62032318115,0.0686465501785,acc,,,
1160,1644542390801862240,,,,gyr,0.0,0.0,-0.00174532923847
1161,1644542390802172184,0.549172401428,-9.64974308014,0.0686465501785,acc,,,
1162,1644542390804186344,0.529559075832,-9.58109664917,0.137293100357,acc,,,
1163,1644542390806200266,0.549172401428,-9.61051654816,0.12748645246,acc,,,
1164,1644542390806874037,,,,gyr,0.00349065847695,0.0,-0.00174532923847
1165,1644542390808214188,0.558979034424,-9.64974308014,0.137293100357,acc,,,
1166,1644542390810228109,0.490332484245,-9.61051654816,0.0784531980753,acc,,,
1167,1644542390811886072,,,,gyr,0.00174532923847,0.0,0.00174532923847
1168,1644542390812242031,0.529559075832,-9.64974308014,0.176519691944,acc,,,
1169,1644542390814258099,0.549172401428,-9.66935634613,0.196132987738,acc,,,
1170,1644542390816272020,0.558979034424,-9.64974308014,0.166713044047,acc,,,
1171,1644542390816897869,,,,gyr,-0.00872664619237,0.0,0.0
1172,1644542390818285942,0.549172401428,-9.64974308014,0.264779537916,acc,,,
1173,1644542390820299864,0.558979034424,-9.64974308014,0.245166242123,acc,,,
1174,1644542390821909904,,,,gyr,-0.0191986225545,-0.00872664619237,0.00872664619237
1175,1644542390822313786,0.558979034424,-9.64974308014,0.137293100357,acc,,,
1176,1644542390824327946,0.558979034424,-9.64974308014,0.0980664938688,acc,,,
1177,1644542390826341867,0.558979034424,-9.62032318115,0.137293100357,acc,,,
1178,1644542390826921701,,,,gyr,-0.0349065847695,-0.00872664619237,0.0139626339078
1179,1644542390828355789,0.549172401428,-9.66935634613,0.137293100357,acc,,,
1180,1644542390830371618,0.57859236002,-9.67916297913,0.176519691944,acc,,,
1181,1644542390831933498,,,,gyr,-0.0383972451091,-0.0069813169539,0.0209439508617
1182,1644542390832385778,0.598205626011,-9.66935634613,0.264779537916,acc,,,
1183,1644542390834399700,0.549172401428,-9.66935634613,0.225552946329,acc,,,
1184,1644542390836413622,0.57859236002,-9.70858287811,0.245166242123,acc,,,
1185,1644542390836945534,,,,gyr,-0.0523598790169,-0.00523598771542,0.0226892791688
1186,1644542390838427544,0.598205626011,-9.67916297913,0.166713044047,acc,,,
1187,1644542390840443373,0.627625584602,-9.70858287811,0.137293100357,acc,,,
1188,1644542390841957569,,,,gyr,-0.0680678412318,0.0,0.0296705961227
1189,1644542390842457533,0.637432217598,-9.67916297913,0.176519691944,acc,,,
1190,1644542390844471455,0.57859236002,-9.67916297913,0.196132987738,acc,,,
1191,1644542390846485376,0.558979034424,-9.70858287811,0.12748645246,acc,,,
1192,1644542390846969128,,,,gyr,-0.0785398185253,0.0,0.0418879017234
1193,1644542390848499298,0.558979034424,-9.71838951111,0.176519691944,acc,,,
1194,1644542390850515366,0.627625584602,-9.67916297913,0.196132987738,acc,,,
1195,1644542390851981163,,,,gyr,-0.0942477807403,0.00349065847695,0.0506145469844
1196,1644542390852529287,0.57859236002,-9.67916297913,0.166713044047,acc,,,
1197,1644542390854543209,0.558979034424,-9.70858287811,0.12748645246,acc,,,
1198,1644542390856557131,0.57859236002,-9.67916297913,0.176519691944,acc,,,
1199,1644542390856991291,,,,gyr,-0.101229093969,0.00872664619237,0.0523598790169
1200,1644542390858571053,0.57859236002,-9.67916297913,0.225552946329,acc,,,
1201,1644542390860587120,0.57859236002,-9.70858287811,0.245166242123,acc,,,
1202,1644542390862002850,,,,gyr,-0.11344639957,0.0174532923847,0.0593411922455
1203,1644542390862601042,0.57859236002,-9.70858287811,0.264779537916,acc,,,
1204,1644542390864614964,0.57859236002,-9.64974308014,0.274586200714,acc,,,
1205,1644542390866630793,0.558979034424,-9.67916297913,0.245166242123,acc,,,
1206,1644542390867014885,,,,gyr,-0.127409040928,0.0226892791688,0.0645771846175
1207,1644542390868644953,0.549172401428,-9.71838951111,0.245166242123,acc,,,
1208,1644542390870658875,0.558979034424,-9.64974308014,0.196132987738,acc,,,
1209,1644542390872026920,,,,gyr,-0.144862323999,0.0418879017234,0.0785398185253
1210,1644542390872672796,0.558979034424,-9.71838951111,0.196132987738,acc,,,
1211,1644542390874686718,0.558979034424,-9.67916297913,0.176519691944,acc,,,
1212,1644542390876700640,0.529559075832,-9.64974308014,0.0980664938688,acc,,,
1213,1644542390877038717,,,,gyr,-0.162315621972,0.0558505356312,0.0872664600611
1214,1644542390878716707,0.470719188452,-9.61051654816,0.0980664938688,acc,,,
1215,1644542390880730629,0.509945809841,-9.66935634613,0.0784531980753,acc,,,
1216,1644542390882050753,,,,gyr,-0.179768905044,0.069813169539,0.0959931090474
1217,1644542390882744551,0.490332484245,-9.66935634613,0.176519691944,acc,,,
1218,1644542390884758472,0.490332484245,-9.58109664917,0.0392265990376,acc,,,
1219,1644542390886772394,0.451105892658,-9.62032318115,0.00980664975941,acc,,,
1220,1644542390887062550,,,,gyr,-0.176278248429,0.0872664600611,0.0959931090474
1221,1644542390888788462,0.451105892658,-9.58109664917,0.0686465501785,acc,,,
1222,1644542390890800476,0.490332484245,-9.57129001617,-0.0686465501785,acc,,,
1223,1644542390892074347,,,,gyr,-0.167551606894,0.0977384373546,0.0890117883682
1224,1644542390892814398,0.402072638273,-9.58109664917,-0.0784531980753,acc,,,
1225,1644542390894830227,0.421685934067,-9.53206348419,-0.0392265990376,acc,,,
1226,1644542390896844387,0.402072638273,-9.56148338318,-0.0392265990376,acc,,,
1227,1644542390897086382,,,,gyr,-0.162315621972,0.0977384373546,0.0872664600611
1228,1644542390898858309,0.421685934067,-9.57129001617,-0.137293100357,acc,,,
1229,1644542390900872231,0.421685934067,-9.53206348419,-0.166713044047,acc,,,
1230,1644542390902098417,,,,gyr,-0.148352980614,0.0837758034468,0.0785398185253
1231,1644542390902888298,0.38245934248,-9.5222568512,-0.166713044047,acc,,,
1232,1644542390904902458,0.402072638273,-9.56148338318,-0.0980664938688,acc,,,
1233,1644542390906916142,0.38245934248,-9.57129001617,-0.0686465501785,acc,,,
1234,1644542390907110214,,,,gyr,-0.123918376863,0.0610865242779,0.0645771846175
1235,1644542390908930063,0.451105892658,-9.61051654816,-0.0784531980753,acc,,,
1236,1644542390910943985,0.470719188452,-9.61051654816,-0.0392265990376,acc,,,
1237,1644542390912122011,,,,gyr,-0.0977384373546,0.0383972451091,0.0506145469844
1238,1644542390912960052,0.451105892658,-9.61051654816,-0.00980664975941,acc,,,
1239,1644542390914974213,0.421685934067,-9.62032318115,0.00980664975941,acc,,,
1240,1644542390916988134,0.490332484245,-9.67916297913,0.0294199492782,acc,,,
1241,1644542390917134047,,,,gyr,-0.0925024524331,0.0349065847695,0.0471238903701
1242,1644542390919002056,0.470719188452,-9.61051654816,-0.00980664975941,acc,,,
1243,1644542390921015978,0.470719188452,-9.64974308014,-0.00980664975941,acc,,,
1244,1644542390922143698,,,,gyr,-0.0925024524331,0.0314159244299,0.0471238903701
1245,1644542390923032045,0.451105892658,-9.62032318115,0.0294199492782,acc,,,
1246,1644542390925045967,0.490332484245,-9.62032318115,0.0,acc,,,
1247,1644542390927059889,0.451105892658,-9.62032318115,-0.0294199492782,acc,,,
1248,1644542390927155733,,,,gyr,-0.0942477807403,0.0383972451091,0.0523598790169
1249,1644542390929073811,0.470719188452,-9.61051654816,-0.12748645246,acc,,,
1250,1644542390931087732,0.490332484245,-9.62032318115,-0.12748645246,acc,,,
1251,1644542390932167768,,,,gyr,-0.0959931090474,0.0506145469844,0.0471238903701
1252,1644542390933101892,0.490332484245,-9.57129001617,-0.137293100357,acc,,,
1253,1644542390935115814,0.490332484245,-9.58109664917,-0.12748645246,acc,,,
1254,1644542390937131643,0.490332484245,-9.61051654816,-0.0784531980753,acc,,,
1255,1644542390937179804,,,,gyr,-0.0837758034468,0.0349065847695,0.0436332300305
1256,1644542390939145565,0.490332484245,-9.61051654816,-0.0686465501785,acc,,,
1257,1644542390941159725,0.490332484245,-9.64974308014,-0.0980664938688,acc,,,
1258,1644542390942191362,,,,gyr,-0.0715584978461,0.0226892791688,0.0349065847695
1259,1644542390943173647,0.509945809841,-9.61051654816,-0.0980664938688,acc,,,
1260,1644542390945187569,0.470719188452,-9.64974308014,-0.0686465501785,acc,,,
1261,1644542390947203398,,,,gyr,-0.069813169539,0.00523598771542,0.0349065847695
1262,1644542390947203398,0.509945809841,-9.70858287811,-0.0392265990376,acc,,,
1263,1644542390949217319,0.509945809841,-9.64974308014,0.00980664975941,acc,,,
1264,1644542390951231480,0.598205626011,-9.70858287811,-0.00980664975941,acc,,,
1265,1644542390952215433,,,,gyr,-0.0610865242779,0.0,0.0314159244299
1266,1644542390953247309,0.558979034424,-9.66935634613,0.0392265990376,acc,,,
1267,1644542390955261230,0.509945809841,-9.66935634613,-0.0294199492782,acc,,,
1268,1644542390957227230,,,,gyr,-0.0645771846175,-0.00872664619237,0.0296705961227
1269,1644542390957275152,0.509945809841,-9.66935634613,-0.00980664975941,acc,,,
1270,1644542390959291220,0.549172401428,-9.66935634613,0.0,acc,,,
1271,1644542390961305141,0.549172401428,-9.67916297913,0.0294199492782,acc,,,
1272,1644542390962239265,,,,gyr,-0.0785398185253,-0.0104719754308,0.0383972451091
1273,1644542390963319063,0.549172401428,-9.67916297913,0.0,acc,,,
1274,1644542390965335131,0.529559075832,-9.66935634613,0.0294199492782,acc,,,
1275,1644542390967251062,,,,gyr,-0.0802851468325,-0.0104719754308,0.0436332300305
1276,1644542390967349052,0.470719188452,-9.64974308014,0.0392265990376,acc,,,
1277,1644542390969362974,0.470719188452,-9.62032318115,-0.00980664975941,acc,,,
1278,1644542390971376896,0.451105892658,-9.61051654816,0.0294199492782,acc,,,
1279,1644542390972262859,,,,gyr,-0.0872664600611,-0.0174532923847,0.0436332300305
1280,1644542390973390818,0.470719188452,-9.64974308014,-0.00980664975941,acc,,,
1281,1644542390975404978,0.470719188452,-9.62032318115,0.00980664975941,acc,,,
1282,1644542390977274895,,,,gyr,-0.0872664600611,-0.0139626339078,0.0471238903701
1283,1644542390977418900,0.490332484245,-9.64974308014,-0.00980664975941,acc,,,
1284,1644542390979432821,0.470719188452,-9.62032318115,-0.0392265990376,acc,,,
1285,1644542390981448650,0.451105892658,-9.62032318115,-0.00980664975941,acc,,,
1286,1644542390982286930,,,,gyr,-0.0855211317539,-0.0191986225545,0.0471238903701
1287,1644542390983462811,0.421685934067,-9.58109664917,-0.0294199492782,acc,,,
1288,1644542390985476732,0.451105892658,-9.58109664917,-0.0294199492782,acc,,,
1289,1644542390987296581,,,,gyr,-0.0872664600611,-0.0139626339078,0.0436332300305
1290,1644542390987490654,0.421685934067,-9.61051654816,-0.0686465501785,acc,,,
1291,1644542390989506483,0.421685934067,-9.66935634613,0.0294199492782,acc,,,
1292,1644542390991520405,0.421685934067,-9.61051654816,-0.00980664975941,acc,,,
1293,1644542390992308617,,,,gyr,-0.0767944902182,-0.0104719754308,0.0436332300305
1294,1644542390993534565,0.451105892658,-9.64974308014,-0.00980664975941,acc,,,
1295,1644542390995548487,0.402072638273,-9.64974308014,-0.0294199492782,acc,,,
1296,1644542390997320652,,,,gyr,-0.0767944902182,-0.0104719754308,0.0436332300305
1297,1644542390997564554,0.421685934067,-9.61051654816,-0.00980664975941,acc,,,
1298,1644542390999578476,0.421685934067,-9.58109664917,0.0,acc,,,
1299,1644542391001592636,0.421685934067,-9.61051654816,-0.00980664975941,acc,,,
1300,1644542391002332449,,,,gyr,-0.0872664600611,-0.0104719754308,0.0418879017234
1301,1644542391003608465,0.451105892658,-9.61051654816,0.0,acc,,,
1302,1644542391005622387,0.402072638273,-9.57129001617,-0.0294199492782,acc,,,
1303,1644542391007344246,,,,gyr,-0.0802851468325,-0.00349065847695,0.0436332300305
1304,1644542391007636309,0.421685934067,-9.62032318115,-0.00980664975941,acc,,,
1305,1644542391009652376,0.402072638273,-9.66935634613,-0.0392265990376,acc,,,
1306,1644542391011666298,0.421685934067,-9.62032318115,-0.00980664975941,acc,,,
1307,1644542391012356281,,,,gyr,-0.0802851468325,-0.00523598771542,0.0436332300305
1308,1644542391013682127,0.451105892658,-9.57129001617,0.00980664975941,acc,,,
1309,1644542391015694141,0.470719188452,-9.61051654816,-0.0980664938688,acc,,,
1310,1644542391017368078,,,,gyr,-0.0872664600611,-0.00174532923847,0.0471238903701
1311,1644542391017710209,0.421685934067,-9.62032318115,-0.0686465501785,acc,,,
1312,1644542391019724131,0.421685934067,-9.61051654816,-0.0294199492782,acc,,,
1313,1644542391021738052,0.451105892658,-9.62032318115,-0.0784531980753,acc,,,
1314,1644542391022380114,,,,gyr,-0.0890117883682,-0.00174532923847,0.0471238903701
1315,1644542391023751974,0.402072638273,-9.62032318115,-0.0784531980753,acc,,,
1316,1644542391025766134,0.451105892658,-9.58109664917,-0.0980664938688,acc,,,
1317,1644542391027392149,,,,gyr,-0.0890117883682,0.0,0.0471238903701
1318,1644542391027781963,0.402072638273,-9.64974308014,-0.0980664938688,acc,,,
1319,1644542391029795885,0.402072638273,-9.64974308014,-0.0686465501785,acc,,,
1320,1644542391031809807,0.421685934067,-9.64974308014,-0.0392265990376,acc,,,
1321,1644542391032403708,,,,gyr,-0.0959931090474,-0.00349065847695,0.0523598790169
1322,1644542391033823967,0.470719188452,-9.61051654816,-0.0980664938688,acc,,,
1323,1644542391035837889,0.38245934248,-9.56148338318,-0.0392265990376,acc,,,
1324,1644542391037415743,,,,gyr,-0.0977384373546,-0.0104719754308,0.0506145469844
1325,1644542391037853718,0.402072638273,-9.62032318115,-0.0686465501785,acc,,,
1326,1644542391039867640,0.421685934067,-9.58109664917,-0.0980664938688,acc,,,
1327,1644542391041881800,0.402072638273,-9.61051654816,-0.0784531980753,acc,,,
1328,1644542391042427778,,,,gyr,-0.0959931090474,-0.0174532923847,0.0523598790169
1329,1644542391043895721,0.402072638273,-9.57129001617,-0.137293100357,acc,,,
1330,1644542391045909643,0.402072638273,-9.64974308014,-0.12748645246,acc,,,
1331,1644542391047439814,,,,gyr,-0.0959931090474,-0.0174532923847,0.0436332300305
1332,1644542391047923565,0.38245934248,-9.61051654816,-0.12748645246,acc,,,
1333,1644542391049939632,0.402072638273,-9.61051654816,-0.0980664938688,acc,,,
1334,1644542391051953554,0.421685934067,-9.57129001617,-0.12748645246,acc,,,
1335,1644542391052449465,,,,gyr,-0.0855211317539,-0.0174532923847,0.0436332300305
1336,1644542391053967476,0.402072638273,-9.58109664917,-0.0980664938688,acc,,,
1337,1644542391055981398,0.402072638273,-9.58109664917,-0.0686465501785,acc,,,
1338,1644542391057461500,,,,gyr,-0.0715584978461,-0.0139626339078,0.0383972451091
1339,1644542391057997465,0.402072638273,-9.62032318115,-0.12748645246,acc,,,
1340,1644542391060011387,0.402072638273,-9.66935634613,-0.137293100357,acc,,,
1341,1644542391062025309,0.402072638273,-9.62032318115,-0.0686465501785,acc,,,
1342,1644542391062473297,,,,gyr,-0.0610865242779,-0.0139626339078,0.0314159244299
1343,1644542391064039230,0.421685934067,-9.61051654816,-0.0784531980753,acc,,,
1344,1644542391066053152,0.421685934067,-9.61051654816,-0.0784531980753,acc,,,
1345,1644542391067485332,,,,gyr,-0.0558505356312,-0.0104719754308,0.0296705961227
1346,1644542391068069220,0.402072638273,-9.62032318115,-0.12748645246,acc,,,
1347,1644542391070083141,0.470719188452,-9.62032318115,-0.12748645246,acc,,,
1348,1644542391072097063,0.470719188452,-9.66935634613,-0.12748645246,acc,,,
1349,1644542391072497368,,,,gyr,-0.0506145469844,-0.00872664619237,0.0279252678156
1350,1644542391074110985,0.470719188452,-9.64974308014,-0.0980664938688,acc,,,
1351,1644542391076125145,0.470719188452,-9.66935634613,-0.0784531980753,acc,,,
1352,1644542391077508926,,,,gyr,-0.0523598790169,-0.00523598771542,0.0261799395084
1353,1644542391078141212,0.451105892658,-9.62032318115,-0.0686465501785,acc,,,
1354,1644542391080155134,0.470719188452,-9.66935634613,-0.0980664938688,acc,,,
1355,1644542391082169056,0.451105892658,-9.64974308014,-0.137293100357,acc,,,
1356,1644542391082520962,,,,gyr,-0.0558505356312,-0.00523598771542,0.0279252678156
1357,1644542391084183216,0.421685934067,-9.64974308014,-0.0980664938688,acc,,,
1358,1644542391086197138,0.451105892658,-9.62032318115,-0.0980664938688,acc,,,
1359,1644542391087532997,,,,gyr,-0.0506145469844,-0.00523598771542,0.0296705961227
1360,1644542391088212967,0.451105892658,-9.61051654816,-0.137293100357,acc,,,
1361,1644542391090226889,0.470719188452,-9.62032318115,-0.137293100357,acc,,,
1362,1644542391092241049,0.490332484245,-9.64974308014,-0.137293100357,acc,,,
1363,1644542391092545033,,,,gyr,-0.0418879017234,0.0,0.0209439508617
1364,1644542391094256878,0.402072638273,-9.61051654816,-0.0980664938688,acc,,,
1365,1644542391096270800,0.402072638273,-9.62032318115,-0.12748645246,acc,,,
1366,1644542391097556829,,,,gyr,-0.0383972451091,0.0,0.0174532923847
1367,1644542391098284721,0.470719188452,-9.66935634613,-0.0980664938688,acc,,,
1368,1644542391100300789,0.421685934067,-9.61051654816,-0.12748645246,acc,,,
1369,1644542391102314711,0.451105892658,-9.62032318115,-0.12748645246,acc,,,
1370,1644542391102568626,,,,gyr,-0.0383972451091,-0.00174532923847,0.0209439508617
1371,1644542391104328632,0.421685934067,-9.58109664917,-0.137293100357,acc,,,
1372,1644542391106344700,0.421685934067,-9.67916297913,-0.0784531980753,acc,,,
1373,1644542391107580662,,,,gyr,-0.0349065847695,-0.00174532923847,0.0174532923847
1374,1644542391108358622,0.421685934067,-9.67916297913,-0.0980664938688,acc,,,
1375,1644542391110372543,0.470719188452,-9.66935634613,-0.0784531980753,acc,,,
1376,1644542391112386465,0.421685934067,-9.66935634613,-0.0392265990376,acc,,,
1377,1644542391112592459,,,,gyr,-0.0383972451091,-0.0069813169539,0.0261799395084
1378,1644542391114402533,0.421685934067,-9.66935634613,-0.0686465501785,acc,,,
1379,1644542391116416454,0.402072638273,-9.62032318115,-0.0784531980753,acc,,,
1380,1644542391117604494,,,,gyr,-0.0523598790169,-0.0104719754308,0.0261799395084
1381,1644542391118430376,0.402072638273,-9.62032318115,-0.0784531980753,acc,,,
1382,1644542391120444298,0.362846046686,-9.58109664917,-0.12748645246,acc,,,
1383,1644542391122460365,0.402072638273,-9.64974308014,-0.0784531980753,acc,,,
1384,1644542391122614145,,,,gyr,-0.0610865242779,-0.0104719754308,0.0349065847695
1385,1644542391124474287,0.38245934248,-9.62032318115,-0.0980664938688,acc,,,
1386,1644542391126488209,0.362846046686,-9.61051654816,-0.0980664938688,acc,,,
1387,1644542391127626181,,,,gyr,-0.0645771846175,-0.0174532923847,0.0349065847695
1388,1644542391128502131,0.38245934248,-9.61051654816,-0.0980664938688,acc,,,
1389,1644542391130518198,0.343232750893,-9.61051654816,-0.12748645246,acc,,,
1390,1644542391132532120,0.38245934248,-9.61051654816,-0.0980664938688,acc,,,
1391,1644542391132638216,,,,gyr,-0.0680678412318,-0.0139626339078,0.0349065847695
1392,1644542391134546041,0.402072638273,-9.61051654816,-0.0784531980753,acc,,,
1393,1644542391136559963,0.343232750893,-9.62032318115,-0.0784531980753,acc,,,
1394,1644542391137650251,,,,gyr,-0.069813169539,-0.0104719754308,0.0383972451091
1395,1644542391138576269,0.362846046686,-9.57129001617,-0.0784531980753,acc,,,
1396,1644542391140590191,0.362846046686,-9.61051654816,-0.137293100357,acc,,,
1397,1644542391142604113,0.402072638273,-9.62032318115,-0.0686465501785,acc,,,
1398,1644542391142662048,,,,gyr,-0.0715584978461,-0.0174532923847,0.0349065847695
1399,1644542391144618034,0.402072638273,-9.64974308014,-0.0980664938688,acc,,,
1400,1644542391146631718,0.38245934248,-9.58109664917,-0.0980664938688,acc,,,
1401,1644542391147673845,,,,gyr,-0.069813169539,-0.0174532923847,0.0418879017234
1402,1644542391148648024,0.402072638273,-9.62032318115,-0.12748645246,acc,,,
1403,1644542391150661945,0.38245934248,-9.62032318115,-0.137293100357,acc,,,
1404,1644542391152675867,0.402072638273,-9.62032318115,-0.12748645246,acc,,,
1405,1644542391152685881,,,,gyr,-0.0715584978461,-0.0104719754308,0.0349065847695
1406,1644542391154690027,0.402072638273,-9.62032318115,-0.12748645246,acc,,,
1407,1644542391156703949,0.421685934067,-9.64974308014,-0.0980664938688,acc,,,
1408,1644542391157697678,,,,gyr,-0.0767944902182,-0.0104719754308,0.0383972451091
1409,1644542391158719778,0.451105892658,-9.62032318115,-0.0784531980753,acc,,,
1410,1644542391160733700,0.421685934067,-9.62032318115,-0.137293100357,acc,,,
1411,1644542391162709713,,,,gyr,-0.0785398185253,-0.0191986225545,0.0418879017234
1412,1644542391162747860,0.402072638273,-9.62032318115,-0.137293100357,acc,,,
1413,1644542391164761782,0.402072638273,-9.67916297913,-0.12748645246,acc,,,
1414,1644542391166777611,0.402072638273,-9.62032318115,-0.12748645246,acc,,,
1415,1644542391167721748,,,,gyr,-0.0872664600611,-0.0139626339078,0.0471238903701
1416,1644542391168791533,0.451105892658,-9.58109664917,-0.0686465501785,acc,,,
1417,1644542391170805693,0.402072638273,-9.67916297913,-0.12748645246,acc,,,
1418,1644542391172733545,,,,gyr,-0.0959931090474,-0.0174532923847,0.0523598790169
1419,1644542391172819614,0.421685934067,-9.64974308014,-0.166713044047,acc,,,
1420,1644542391174833536,0.421685934067,-9.62032318115,-0.0980664938688,acc,,,
1421,1644542391176847458,0.421685934067,-9.66935634613,-0.12748645246,acc,,,
1422,1644542391177745342,,,,gyr,-0.0977384373546,-0.0139626339078,0.0558505356312
1423,1644542391178861380,0.421685934067,-9.71838951111,-0.137293100357,acc,,,
1424,1644542391180877447,0.421685934067,-9.67916297913,-0.0980664938688,acc,,,
1425,1644542391182757378,,,,gyr,-0.109955742955,-0.0174532923847,0.0593411922455
1426,1644542391182891369,0.421685934067,-9.67916297913,-0.12748645246,acc,,,
1427,1644542391184905291,0.421685934067,-9.67916297913,-0.12748645246,acc,,,
1428,1644542391186919212,0.421685934067,-9.61051654816,-0.12748645246,acc,,,
1429,1644542391187767267,,,,gyr,-0.120427720249,-0.0139626339078,0.0610865242779
1430,1644542391188933372,0.402072638273,-9.67916297913,-0.0784531980753,acc,,,
1431,1644542391190947294,0.402072638273,-9.66935634613,-0.12748645246,acc,,,
1432,1644542391192779303,,,,gyr,-0.129154369235,-0.0104719754308,0.0680678412318
1433,1644542391192961216,0.402072638273,-9.64974308014,-0.166713044047,acc,,,
1434,1644542391194975138,0.402072638273,-9.64974308014,-0.137293100357,acc,,,
1435,1644542391196989298,0.38245934248,-9.61051654816,-0.137293100357,acc,,,
1436,1644542391197791100,,,,gyr,-0.130899697542,-0.00349065847695,0.069813169539
1437,1644542391199005127,0.402072638273,-9.64974308014,-0.12748645246,acc,,,
1438,1644542391201019049,0.362846046686,-9.66935634613,-0.0980664938688,acc,,,
1439,1644542391202802896,,,,gyr,-0.136135682464,-0.00523598771542,0.0715584978461
1440,1644542391203032970,0.402072638273,-9.62032318115,-0.0784531980753,acc,,,
1441,1644542391205047131,0.402072638273,-9.64974308014,-0.137293100357,acc,,,
1442,1644542391207061052,0.362846046686,-9.64974308014,-0.0980664938688,acc,,,
1443,1644542391207814932,,,,gyr,-0.136135682464,0.0,0.0750491544604
1444,1644542391209074974,0.38245934248,-9.70858287811,-0.12748645246,acc,,,
1445,1644542391211088896,0.38245934248,-9.62032318115,-0.0980664938688,acc,,,
1446,1644542391212826967,,,,gyr,-0.148352980614,0.0104719754308,0.0802851468325
1447,1644542391213102818,0.402072638273,-9.7478094101,-0.0784531980753,acc,,,
1448,1644542391215116978,0.402072638273,-9.66935634613,-0.0784531980753,acc,,,
1449,1644542391217130899,0.402072638273,-9.67916297913,-0.0392265990376,acc,,,
1450,1644542391217838764,,,,gyr,-0.158824965358,0.0279252678156,0.0890117883682
1451,1644542391219146729,0.38245934248,-9.62032318115,-0.0980664938688,acc,,,
1452,1644542391221160889,0.362846046686,-9.66935634613,-0.176519691944,acc,,,
1453,1644542391222850800,,,,gyr,-0.185004904866,0.0383972451091,0.102974422276
1454,1644542391223174810,0.38245934248,-9.66935634613,-0.137293100357,acc,,,
1455,1644542391225188732,0.362846046686,-9.64974308014,-0.137293100357,acc,,,
1456,1644542391227202654,0.38245934248,-9.67916297913,-0.137293100357,acc,,,
1457,1644542391227862597,,,,gyr,-0.197222203016,0.0349065847695,0.111701071262
1458,1644542391229218721,0.343232750893,-9.64974308014,-0.0980664938688,acc,,,
1459,1644542391231232643,0.402072638273,-9.67916297913,-0.12748645246,acc,,,
1460,1644542391232874393,,,,gyr,-0.214675500989,0.0296705961227,0.123918376863
1461,1644542391233246565,0.362846046686,-9.62032318115,-0.196132987738,acc,,,
1462,1644542391235260487,0.343232750893,-9.62032318115,-0.245166242123,acc,,,
1463,1644542391237274408,0.313812792301,-9.58109664917,-0.166713044047,acc,,,
1464,1644542391237886429,,,,gyr,-0.240855440497,0.0296705961227,0.130899697542
1465,1644542391239290476,0.294199496508,-9.62032318115,-0.225552946329,acc,,,
1466,1644542391241304398,0.294199496508,-9.62032318115,-0.176519691944,acc,,,
1467,1644542391242898464,,,,gyr,-0.249582082033,0.0261799395084,0.141371667385
1468,1644542391243318319,0.294199496508,-9.58109664917,-0.196132987738,acc,,,
1469,1644542391245332241,0.313812792301,-9.58109664917,-0.294199496508,acc,,,
1470,1644542391247348309,0.264779537916,-9.61051654816,-0.313812792301,acc,,,
1471,1644542391247908354,,,,gyr,-0.249582082033,0.0261799395084,0.141371667385
1472,1644542391249362230,0.225552946329,-9.57129001617,-0.274586200714,acc,,,
1473,1644542391251376152,0.225552946329,-9.58109664917,-0.294199496508,acc,,,
1474,1644542391252920151,,,,gyr,-0.244346097112,0.0209439508617,0.130899697542
1475,1644542391253392220,0.264779537916,-9.56148338318,-0.313812792301,acc,,,
1476,1644542391255406141,0.274586200714,-9.57129001617,-0.362846046686,acc,,,
1477,1644542391257420063,0.264779537916,-9.57129001617,-0.402072638273,acc,,,
1478,1644542391257932186,,,,gyr,-0.226892799139,0.0209439508617,0.123918376863
1479,1644542391259433985,0.274586200714,-9.56148338318,-0.362846046686,acc,,,
1480,1644542391261450291,0.274586200714,-9.58109664917,-0.274586200714,acc,,,
1481,1644542391262943983,,,,gyr,-0.202458187938,0.0104719754308,0.11344639957
1482,1644542391263464212,0.264779537916,-9.58109664917,-0.274586200714,acc,,,
1483,1644542391265478134,0.294199496508,-9.61051654816,-0.225552946329,acc,,,
1484,1644542391267492056,0.313812792301,-9.61051654816,-0.196132987738,acc,,,
1485,1644542391267956018,,,,gyr,-0.185004904866,0.0139626339078,0.104719758034
1486,1644542391269508123,0.264779537916,-9.61051654816,-0.176519691944,acc,,,
1487,1644542391271522045,0.294199496508,-9.58109664917,-0.245166242123,acc,,,
1488,1644542391272968054,,,,gyr,-0.176278248429,0.0279252678156,0.101229093969
1489,1644542391273535967,0.294199496508,-9.57129001617,-0.402072638273,acc,,,
1490,1644542391275550127,0.245166242123,-9.56148338318,-0.402072638273,acc,,,
1491,1644542391277565956,0.264779537916,-9.56148338318,-0.470719188452,acc,,,
1492,1644542391277980089,,,,gyr,-0.171042263508,0.0349065847695,0.0959931090474
1493,1644542391279579878,0.225552946329,-9.53206348419,-0.490332484245,acc,,,
1494,1644542391281593800,0.225552946329,-9.57129001617,-0.470719188452,acc,,,
1495,1644542391282991886,,,,gyr,-0.148352980614,0.0279252678156,0.0785398185253
1496,1644542391283609867,0.274586200714,-9.58109664917,-0.470719188452,acc,,,
1497,1644542391285623789,0.245166242123,-9.53206348419,-0.402072638273,acc,,,
1498,1644542391287637711,0.264779537916,-9.61051654816,-0.38245934248,acc,,,
1499,1644542391288003683,,,,gyr,-0.11344639957,0.0069813169539,0.069813169539
1500,1644542391289653778,0.274586200714,-9.61051654816,-0.343232750893,acc,,,
1501,1644542391291667700,0.294199496508,-9.61051654816,-0.343232750893,acc,,,
1502,1644542391293015718,,,,gyr,-0.0959931090474,-0.00349065847695,0.0523598790169
1503,1644542391293681622,0.313812792301,-9.58109664917,-0.294199496508,acc,,,
1504,1644542391295697689,0.313812792301,-9.61051654816,-0.294199496508,acc,,,
1505,1644542391297711611,0.313812792301,-9.62032318115,-0.264779537916,acc,,,
1506,1644542391298027515,,,,gyr,-0.0837758034468,-0.00872664619237,0.0436332300305
1507,1644542391299725533,0.274586200714,-9.61051654816,-0.294199496508,acc,,,
1508,1644542391301741362,0.264779537916,-9.61051654816,-0.294199496508,acc,,,
1509,1644542391303039551,,,,gyr,-0.0802851468325,-0.0069813169539,0.0436332300305
1510,1644542391303755522,0.294199496508,-9.64974308014,-0.343232750893,acc,,,
1511,1644542391305769444,0.313812792301,-9.62032318115,-0.313812792301,acc,,,
1512,1644542391307785511,0.294199496508,-9.62032318115,-0.274586200714,acc,,,
1513,1644542391308051586,,,,gyr,-0.0767944902182,-0.0069813169539,0.0418879017234
1514,1644542391309799433,0.343232750893,-9.62032318115,-0.274586200714,acc,,,
1515,1644542391311815500,0.343232750893,-9.66935634613,-0.225552946329,acc,,,
1516,1644542391313061237,,,,gyr,-0.0785398185253,-0.00872664619237,0.0471238903701
1517,1644542391313829422,0.313812792301,-9.64974308014,-0.274586200714,acc,,,
1518,1644542391315843344,0.343232750893,-9.64974308014,-0.264779537916,acc,,,
1519,1644542391317859411,0.343232750893,-9.64974308014,-0.245166242123,acc,,,
1520,1644542391318073273,,,,gyr,-0.0942477807403,-0.0139626339078,0.0523598790169
1521,1644542391319873333,0.294199496508,-9.64974308014,-0.343232750893,acc,,,
1522,1644542391321887255,0.294199496508,-9.62032318115,-0.274586200714,acc,,,
1523,1644542391323085308,,,,gyr,-0.109955742955,-0.0226892791688,0.0645771846175
1524,1644542391323903322,0.264779537916,-9.56148338318,-0.38245934248,acc,,,
1525,1644542391325917244,0.196132987738,-9.61051654816,-0.343232750893,acc,,,
1526,1644542391327931166,0.225552946329,-9.58109664917,-0.362846046686,acc,,,
1527,1644542391328097105,,,,gyr,-0.120427720249,-0.0314159244299,0.069813169539
1528,1644542391329946995,0.196132987738,-9.58109664917,-0.38245934248,acc,,,
1529,1644542391331961155,0.264779537916,-9.61051654816,-0.343232750893,acc,,,
1530,1644542391333109140,,,,gyr,-0.118682384491,-0.0261799395084,0.0750491544604
1531,1644542391333976984,0.245166242123,-9.58109664917,-0.362846046686,acc,,,
1532,1644542391335990906,0.264779537916,-9.61051654816,-0.38245934248,acc,,,
1533,1644542391338005066,0.245166242123,-9.57129001617,-0.402072638273,acc,,,
1534,1644542391338121176,,,,gyr,-0.104719758034,-0.0296705961227,0.0680678412318
1535,1644542391340020895,0.264779537916,-9.61051654816,-0.294199496508,acc,,,
1536,1644542391342034817,0.274586200714,-9.61051654816,-0.402072638273,acc,,,
1537,1644542391343132973,,,,gyr,-0.102974422276,-0.0349065847695,0.0645771846175
1538,1644542391344048738,0.264779537916,-9.57129001617,-0.402072638273,acc,,,
1539,1644542391346065044,0.225552946329,-9.5222568512,-0.451105892658,acc,,,
1540,1644542391348078966,0.225552946329,-9.48303031921,-0.529559075832,acc,,,
1541,1644542391348144770,,,,gyr,-0.0977384373546,-0.0523598790169,0.0645771846175
1542,1644542391350092888,0.225552946329,-9.43399715424,-0.529559075832,acc,,,
1543,1644542391352108955,0.196132987738,-9.39477062225,-0.725692093372,acc,,,
1544,1644542391353156805,,,,gyr,-0.0767944902182,-0.0785398185253,0.0471238903701
1545,1644542391354122877,0.196132987738,-9.35554409027,-0.725692093372,acc,,,
1546,1644542391356136799,0.166713044047,-9.39477062225,-0.696272134781,acc,,,
1547,1644542391358152866,0.176519691944,-9.42419052124,-0.764918684959,acc,,,
1548,1644542391358168602,,,,gyr,-0.0209439508617,-0.144862323999,0.0174532923847
1549,1644542391360166788,0.137293100357,-9.42419052124,-0.666852176189,acc,,,
1550,1644542391362180710,0.176519691944,-9.38496398926,-0.637432217598,acc,,,
1551,1644542391363180637,,,,gyr,0.0558505356312,-0.214675500989,-0.0261799395084
1552,1644542391364196539,0.166713044047,-9.48303031921,-0.558979034424,acc,,,
1553,1644542391366210699,0.225552946329,-9.56148338318,-0.451105892658,acc,,,
1554,1644542391368192673,,,,gyr,0.122173048556,-0.267035365105,-0.0750491544604
1555,1644542391368224621,0.225552946329,-9.56148338318,-0.451105892658,acc,,,
1556,1644542391370240450,0.196132987738,-9.57129001617,-0.402072638273,acc,,,
1557,1644542391372254610,0.225552946329,-9.58109664917,-0.313812792301,acc,,,
1558,1644542391373204708,,,,gyr,0.158824965358,-0.296705961227,-0.0977384373546
1559,1644542391374268532,0.196132987738,-9.62032318115,-0.264779537916,acc,,,
1560,1644542391376282454,0.264779537916,-9.66935634613,-0.274586200714,acc,,,
1561,1644542391378214359,,,,gyr,0.176278248429,-0.300196617842,-0.102974422276
1562,1644542391378296375,0.176519691944,-9.61051654816,-0.274586200714,acc,,,
1563,1644542391380312443,0.166713044047,-9.62032318115,-0.196132987738,acc,,,
1564,1644542391382326365,0.166713044047,-9.57129001617,-0.294199496508,acc,,,
1565,1644542391383226395,,,,gyr,0.179768905044,-0.280998021364,-0.0959931090474
1566,1644542391384342194,0.196132987738,-9.39477062225,-0.598205626011,acc,,,
1567,1644542391386356354,0.313812792301,-9.30651092529,-0.951245009899,acc,,,
1568,1644542391388238192,,,,gyr,0.205948844552,-0.237364768982,-0.0855211317539
1569,1644542391388370275,0.402072638273,-9.20844459534,-1.20621788502,acc,,,
1570,1644542391390384197,0.402072638273,-9.15941047668,-1.2552511692,acc,,,
1571,1644542391392400265,0.38245934248,-9.1299905777,-1.16699135303,acc,,,
1572,1644542391393250227,,,,gyr,0.350811183453,-0.185004904866,-0.0506145469844
1573,1644542391394414425,0.313812792301,-9.20844459534,-0.990471601486,acc,,,
1574,1644542391396428108,0.313812792301,-9.31631755829,-0.813951909542,acc,,,
1575,1644542391398262262,,,,gyr,0.561996042728,-0.144862323999,-0.0226892791688
1576,1644542391398444176,0.313812792301,-9.39477062225,-0.666852176189,acc,,,
1577,1644542391400458336,0.313812792301,-9.48303031921,-0.529559075832,acc,,,
1578,1644542391402472258,0.264779537916,-9.57129001617,-0.402072638273,acc,,,
1579,1644542391403274059,,,,gyr,0.719075620174,-0.0959931090474,0.00872664619237
