,field.header.stamp,field.linear_acceleration.x,field.linear_acceleration.y,field.linear_acceleration.z,type,delta_x,delta_z,field.angular_velocity.x,field.angular_velocity.y,field.angular_velocity.z,delta_angle,x,z
0,1644542222205201626,0.0686465501785,-9.62032318115,0.264779537916,acc,0.0,0.0,,,,,0,0
1,1644542222206355572,,,,gyr,0.0,0.0,-0.00523598771542,0.0,0.00174532923847,,0,0
2,1644542222207215548,0.0686465501785,-9.58109664917,0.225552946329,acc,2.784222950177553e-07,-9.148160949332792e-07,,,,,0.0,0.0
3,1644542222209229469,0.0980664938688,-9.61051654816,0.196132987738,acc,3.977457148415371e-07,-7.954914296846966e-07,,,,,2.784222950177553e-07,-9.148160949332792e-07
4,1644542222211243391,0.0784531980753,-9.62032318115,0.176519691944,acc,3.181968999579648e-07,-7.159430097955371e-07,,,,,6.761680098592923e-07,-1.710307524617976e-06
5,1644542222211367369,,,,gyr,3.181843748645609e-07,-7.159485763726332e-07,-0.00872664619237,-0.00349065847695,0.0,1.749447168280258e-05,6.761680098592923e-07,-1.710307524617976e-06
6,1644542222213257551,0.0784531980753,-9.64974308014,0.225552946329,acc,3.1827211174573706e-07,-9.1503232882491e-07,,,,,9.943523847238532e-07,-2.4262561009906092e-06
7,1644542222215273380,0.12748645246,-9.58109664917,0.176519691944,acc,5.180496847177506e-07,-7.172995168781217e-07,,,,,1.3126244964695903e-06,-3.341288429815519e-06
8,1644542222216379404,,,,gyr,5.180371352664656e-07,-7.17308580204267e-07,-0.00523598771542,-0.00349065847695,0.00523598771542,1.7495302459520094e-05,1.3126244964695903e-06,-3.341288429815519e-06
9,1644542222217287302,0.0392265990376,-9.58109664917,0.166713044047,acc,1.5909844997877958e-07,-6.761684048545165e-07,,,,,1.830661631736056e-06,-4.058597010019786e-06
10,1644542222219301462,0.0686465501785,-9.57129001617,0.176519691944,acc,2.784881053338417e-07,-7.161122363144532e-07,,,,,1.9897600817148356e-06,-4.734765414874302e-06
11,1644542222221315384,0.0784531980753,-9.56148338318,0.12748645246,acc,3.181968999579648e-07,-5.170699850944901e-07,,,,,2.2682481870486774e-06,-5.4508776511887555e-06
12,1644542222221389294,,,,gyr,3.182104634848468e-07,-5.170616380638135e-07,-0.00174532923847,0.00523598771542,0.0,-2.6231722495605508e-05,2.2682481870486774e-06,-5.4508776511887555e-06
13,1644542222223329306,0.0686465501785,-9.56148338318,0.12748645246,acc,2.784222950177553e-07,-5.170699850944901e-07,,,,,2.5864586505335243e-06,-5.967939289252569e-06
14,1644542222225343227,0.0784531980753,-9.58109664917,0.0980664938688,acc,3.181965839608001e-07,-3.977457148415371e-07,,,,,2.8648809455512796e-06,-6.485009274347059e-06
15,1644542222226401329,,,,gyr,3.182000632894171e-07,-3.977429313535801e-07,-0.00349065847695,0.00174532923847,0.0,-8.747651229734985e-06,2.8648809455512796e-06,-6.485009274347059e-06
16,1644542222227357388,0.0784531980753,-9.61051654816,0.166713044047,acc,3.1827242778040234e-07,-6.763289014754029e-07,,,,,3.183081008840697e-06,-6.882752205700639e-06
17,1644542222229371309,0.12748645246,-9.58109664917,0.176519691944,acc,5.17069471599075e-07,-7.159422988019315e-07,,,,,3.5013534366210993e-06,-7.559081107176042e-06
18,1644542222231413364,,,,gyr,5.17069471599075e-07,-7.159422988019315e-07,0.0,0.0,0.0,-0.0,3.5013534366210993e-06,-7.559081107176042e-06
19,1644542222235413313,0.0980664938688,-9.57129001617,0.176519691944,acc,3.579997021625476e-06,-6.4439947477190185e-06,,,,,4.018422908220174e-06,-8.275023405977973e-06
20,1644542222236425400,,,,gyr,3.579997021625476e-06,-6.4439947477190185e-06,-0.00174532923847,0.0,0.00349065847695,-0.0,4.018422908220174e-06,-8.275023405977973e-06
21,1644542222237429142,0.0784531980753,-9.61051654816,0.176519691944,acc,3.18799792007393e-07,-7.172995168781217e-07,,,,,7.59841992984565e-06,-1.4719018153696991e-05
22,1644542222239443302,0.0980664938688,-9.61051654816,0.166713044047,acc,3.978401245691219e-07,-6.763282299017466e-07,,,,,7.917219721853043e-06,-1.5436317670575113e-05
23,1644542222241437197,,,,gyr,3.978401245691219e-07,-6.763282299017466e-07,-0.00523598771542,0.0,0.00174532923847,-0.0,7.917219721853043e-06,-1.5436317670575113e-05
24,1644542222246449232,,,,gyr,3.978401245691219e-07,-6.763282299017466e-07,-0.00349065847695,0.0,-0.00174532923847,-0.0,7.917219721853043e-06,-1.5436317670575113e-05
25,1644542222251461267,,,,gyr,3.978342082704283e-07,-6.763317100425247e-07,-0.00174532923847,-0.00174532923847,0.0069813169539,8.747651229734985e-06,7.917219721853043e-06,-1.5436317670575113e-05
26,1644542222256473064,,,,gyr,3.978342082704283e-07,-6.763317100425247e-07,-0.00349065847695,0.0,0.00174532923847,-0.0,7.917219721853043e-06,-1.5436317670575113e-05
27,1644542222261485100,,,,gyr,3.9782829194011144e-07,-6.763351901322433e-07,0.0,-0.00174532923847,0.0,8.747652975064225e-06,7.917219721853043e-06,-1.5436317670575113e-05
28,1644542222266497135,,,,gyr,3.9783420826924787e-07,-6.76331710043219e-07,0.0,0.00174532923847,0.0,-8.747651229734985e-06,7.917219721853043e-06,-1.5436317670575113e-05
29,1644542222271508932,,,,gyr,3.978282922210532e-07,-6.763351899669901e-07,0.0,-0.00174532923847,0.00174532923847,8.74723584137623e-06,7.917219721853043e-06,-1.5436317670575113e-05
30,1644542222276520967,,,,gyr,3.978282922210532e-07,-6.763351899669901e-07,0.0,0.0,0.00349065847695,-0.0,7.917219721853043e-06,-1.5436317670575113e-05
31,1644542222281533003,,,,gyr,3.978282922210532e-07,-6.763351899669901e-07,-0.00174532923847,0.0,0.0,-0.0,7.917219721853043e-06,-1.5436317670575113e-05
32,1644542222960552931,0.00980664975941,-9.66935634613,0.343232750893,acc,0.005099449019846583,-0.17848072053771996,,,,,8.315048014074097e-06,-1.6112652860542104e-05
33,1644542222962566853,0.0294199492782,-9.70858287811,0.38245934248,acc,1.1932383748408468e-07,-1.551209894850831e-06,,,,,0.005107764067860657,-0.17849683319058052
34,1644542222963132858,,,,gyr,1.1932383748408468e-07,-1.551209894850831e-06,-0.00523598771542,0.0,0.0,-0.0,0.005107764067860657,-0.17849683319058052
35,1644542222964580536,0.0686465501785,-9.66935634613,0.294199496508,acc,2.7835621601364845e-07,-1.1929551942252736e-06,,,,,0.0051078833916981415,-0.17849838440047536
36,1644542222966596365,0.0392265990376,-9.70858287811,0.343232750893,acc,1.5939989600349333e-07,-1.3947491278786253e-06,,,,,0.005108161747914155,-0.17849957735566957
37,1644542222968144178,,,,gyr,1.5938769695899477e-07,-1.3947505220010559e-06,0.0,-0.00174532923847,0.00349065847695,8.74640331932948e-06,0.005108161747914155,-0.17849957735566957
38,1644542222968610287,0.0686465501785,-9.67916297913,0.294199496508,acc,2.784222950177553e-07,-1.1932383899530623e-06,,,,,0.005108321135611114,-0.17850097210619156
39,1644542222970623970,0.0980664938688,-9.64974308014,0.313812792301,acc,3.9765171126682975e-07,-1.2724855243918985e-06,,,,,0.005108599557906132,-0.17850216534458152
40,1644542222972637892,0.0784531980753,-9.64974308014,0.274586200714,acc,3.181968999579648e-07,-1.1136891800710211e-06,,,,,0.005108997209617399,-0.17850343783010592
41,1644542222973155975,,,,gyr,3.181968999579648e-07,-1.1136891800710211e-06,-0.00349065847695,0.0,0.0,-0.0,0.005108997209617399,-0.17850343783010592
42,1644542222974653721,0.0980664938688,-9.67916297913,0.294199496508,acc,3.9849972487113514e-07,-1.195499235167049e-06,,,,,0.005109315406517357,-0.178504551519286
43,1644542222976667404,0.0686465501785,-9.62032318115,0.313812792301,acc,2.7835621601364845e-07,-1.2724855243918985e-06,,,,,0.005109713906242228,-0.17850574701852115
44,1644542222978167534,,,,gyr,2.7835621601364845e-07,-1.2724855243918985e-06,-0.00523598771542,0.0,0.0,-0.0,0.005109713906242228,-0.17850574701852115
45,1644542222978681326,0.0686465501785,-9.67916297913,0.294199496508,acc,2.784222950177553e-07,-1.1932383899530623e-06,,,,,0.005109992262458242,-0.17850701950404554
46,1644542222980695248,0.0784531980753,-9.67916297913,0.264779537916,acc,3.181968999579648e-07,-1.0739145146933057e-06,,,,,0.005110270684753259,-0.1785082127424355
47,1644542222982708931,0.0784531980753,-9.67916297913,0.294199496508,acc,3.1812138109817744e-07,-1.1929551942252736e-06,,,,,0.0051105888816532176,-0.1785092866569502
48,1644542222983178854,,,,gyr,3.1811094701873894e-07,-1.1929579765975469e-06,-0.00523598771542,-0.00174532923847,0.0,8.74640331932948e-06,0.0051105888816532176,-0.1785092866569502
49,1644542222984724760,0.0686465501785,-9.62032318115,0.196132987738,acc,2.7894982557531875e-07,-7.969994497438957e-07,,,,,0.0051109069926002365,-0.1785104796149268
50,1644542222986738682,0.0294199492782,-9.62032318115,0.245166242123,acc,1.1932383748408468e-07,-9.943653048153203e-07,,,,,0.005111185942425812,-0.17851127661437655
51,1644542222988190651,,,,gyr,1.1932383748408468e-07,-9.943653048153203e-07,-0.00523598771542,0.0,0.00349065847695,-0.0,0.005111185942425812,-0.17851127661437655
52,1644542222988752365,0.0686465501785,-9.61051654816,0.245166242123,acc,2.7835621601364845e-07,-9.941293083802777e-07,,,,,0.005111305266263296,-0.17851227097968136
53,1644542222990768194,0.0392265990376,-9.61051654816,0.245166242123,acc,1.5939989600349333e-07,-9.962493424554722e-07,,,,,0.00511158362247931,-0.17851326510898974
54,1644542222992782116,0.0294199492782,-9.61051654816,0.196132987738,acc,1.1932383748408468e-07,-7.954922196775783e-07,,,,,0.005111743022375314,-0.1785142613583322
55,1644542222993202209,,,,gyr,1.1930992141336937e-07,-7.95494306963805e-07,-0.00349065847695,-0.00349065847695,0.00174532923847,1.749363741542659e-05,0.005111743022375314,-0.1785142613583322
56,1644542222994795799,0.0392265990376,-9.58109664917,0.176519691944,acc,1.5906069054888596e-07,-7.157730923646017e-07,,,,,0.005111862332296727,-0.17851505685263916
57,1644542222996809721,0.0784531980753,-9.61051654816,0.245166242123,acc,3.181968999579648e-07,-9.943653048153203e-07,,,,,0.005112021392987275,-0.1785157726257315
58,1644542222998213530,,,,gyr,3.1817950566580544e-07,-9.943708708211376e-07,0.0,-0.00349065847695,0.00174532923847,1.7492810129367552e-05,0.005112021392987275,-0.1785157726257315
59,1644542222998823643,0.0980664938688,-9.58109664917,0.245166242123,acc,3.9774610983797795e-07,-9.943653048153203e-07,,,,,0.005112339572492941,-0.17851676699660232
60,1644542223000839472,0.0686465501785,-9.64974308014,0.245166242123,acc,2.7894982557531875e-07,-9.962493424554722e-07,,,,,0.005112737318602779,-0.17851776136190714
61,1644542223002853155,0.0784531980753,-9.57129001617,0.137293100357,acc,3.1812138109817744e-07,-5.567124320272969e-07,,,,,0.005113016268428354,-0.1785187576112496
62,1644542223003223181,,,,gyr,3.1812138109817744e-07,-5.567124320272969e-07,-0.00349065847695,0.0,0.0,-0.0,0.005113016268428354,-0.1785187576112496
63,1644542223004867077,0.0686465501785,-9.64974308014,0.343232750893,acc,2.784222950177553e-07,-1.3921114750908047e-06,,,,,0.005113334389809452,-0.17851931432368162
64,1644542223006880760,0.0784531980753,-9.56148338318,0.137293100357,acc,3.1812138109817744e-07,-5.567124320272969e-07,,,,,0.00511361281210447,-0.17852070643515672
65,1644542223008234978,,,,gyr,3.181165113910684e-07,-5.567152146887453e-07,0.0,-0.00174532923847,0.0,8.74723584137623e-06,0.00511361281210447,-0.17852070643515672
66,1644542223008894682,0.0686465501785,-9.58109664917,0.225552946329,acc,2.784222950177553e-07,-9.148160949332792e-07,,,,,0.0051139309286158605,-0.1785212631503714
67,1644542223010908365,0.0294199492782,-9.61051654816,0.196132987738,acc,1.1929551791166445e-07,-7.953034225352816e-07,,,,,0.005114209350910878,-0.17852217796646633
68,1644542223012924433,0.0980664938688,-9.67916297913,0.166713044047,acc,3.9859422403771615e-07,-6.776101990327298e-07,,,,,0.00511432864642879,-0.17852297326988886
69,1644542223013246298,,,,gyr,3.9859422403771615e-07,-6.776101990327298e-07,-0.0069813169539,0.0,0.0,-0.0,0.00511432864642879,-0.17852297326988886
70,1644542223014938116,0.0686465501785,-9.53206348419,0.137293100357,acc,2.7835621601364845e-07,-5.567124320272969e-07,,,,,0.005114727240652828,-0.1785236508800879
71,1644542223016951799,0.0686465501785,-9.66935634613,0.245166242123,acc,2.7835621601364845e-07,-9.941293083802777e-07,,,,,0.005115005596868841,-0.1785242075925199
72,1644542223018257856,,,,gyr,2.7835621601364845e-07,-9.941293083802777e-07,-0.00523598771542,0.0,0.0,-0.0,0.005115005596868841,-0.1785242075925199
73,1644542223018965721,0.0784531980753,-9.64974308014,0.264779537916,acc,3.181968999579648e-07,-1.0739145146933057e-06,,,,,0.005115283953084855,-0.17852520172182829
74,1644542223020981789,0.0392265990376,-9.57129001617,0.245166242123,acc,1.5943769567156158e-07,-9.964855903791048e-07,,,,,0.005115602149984813,-0.178526275636343
75,1644542223022995472,0.0392265990376,-9.64974308014,0.264779537916,acc,1.5906069054888596e-07,-1.0736596385469026e-06,,,,,0.005115761587680485,-0.17852727212193337
76,1644542223023269415,,,,gyr,1.5906069054888596e-07,-1.0736596385469026e-06,-0.00523598771542,0.0,0.0,-0.0,0.005115761587680485,-0.17852727212193337
77,1644542223025009394,0.0392265990376,-9.64974308014,0.245166242123,acc,1.5909844997877958e-07,-9.943653048153203e-07,,,,,0.0051159206483710334,-0.17852834578157192
78,1644542223027023077,0.0294199492782,-9.57129001617,0.225552946329,acc,1.1929551791166445e-07,-9.145989782095978e-07,,,,,0.005116079746821012,-0.17852934014687674
79,1644542223028280973,,,,gyr,1.1929551791166445e-07,-9.145989782095978e-07,-0.00174532923847,0.0,0.00349065847695,-0.0,0.005116079746821012,-0.17852934014687674
80,1644542223029036760,0.0980664938688,-9.66935634613,0.294199496508,acc,3.9765171126682975e-07,-1.1929551942252736e-06,,,,,0.005116199042338924,-0.17853025474585496
81,1644542223031050682,0.0784531980753,-9.67916297913,0.176519691944,acc,3.181968999579648e-07,-7.159430097955371e-07,,,,,0.005116596694050191,-0.17853144770104917
82,1644542223033064365,0.0392265990376,-9.61051654816,0.274586200714,acc,1.5906069054888596e-07,-1.1134248640545938e-06,,,,,0.005116914890950149,-0.17853216364405897
83,1644542223033292532,,,,gyr,1.5906069054888596e-07,-1.1134248640545938e-06,0.0,0.0,0.0,-0.0,0.005116914890950149,-0.17853216364405897
84,1644542223035080433,0.0784531980753,-9.66935634613,0.245166242123,acc,3.1887539134352963e-07,-9.964855903791048e-07,,,,,0.005117073951640697,-0.17853327706892302
85,1644542223037094355,0.0784531980753,-9.66935634613,0.313812792301,acc,3.181968999579648e-07,-1.2727875998310479e-06,,,,,0.005117392827032041,-0.1785342735545134
86,1644542223038304090,,,,gyr,3.181968999579648e-07,-1.2727875998310479e-06,0.0,0.0,0.0,-0.0,0.005117392827032041,-0.1785342735545134
87,1644542223039107800,0.0784531980753,-9.64974308014,0.294199496508,acc,3.1804618712336067e-07,-1.1926732168161398e-06,,,,,0.005117711023931999,-0.17853554634211324
88,1644542223041121721,0.0686465501785,-9.64974308014,0.343232750893,acc,2.7842201852022867e-07,-1.3921100926031715e-06,,,,,0.005118029070119123,-0.17853673901533007
89,1644542223043135643,0.0784531980753,-9.66935634613,0.402072638273,acc,3.181968999579648e-07,-1.6307591047288162e-06,,,,,0.005118307492137643,-0.17853813112542266
90,1644542223043315649,,,,gyr,3.181968999579648e-07,-1.6307591047288162e-06,-0.00349065847695,0.0,0.0,-0.0,0.005118307492137643,-0.17853813112542266
91,1644542223045149326,0.0784531980753,-9.67916297913,0.313812792301,acc,3.1812138109817744e-07,-1.2724855243918985e-06,,,,,0.005118625689037601,-0.1785397618845274
92,1644542223047163248,0.0784531980753,-9.64974308014,0.38245934248,acc,3.181968999579648e-07,-1.551209894850831e-06,,,,,0.005118943810418699,-0.17854103437005178
93,1644542223048327208,,,,gyr,3.1816976360040717e-07,-1.5512154610357797e-06,-0.00174532923847,-0.00349065847695,0.00349065847695,1.7493640906085063e-05,0.005118943810418699,-0.17854103437005178
94,1644542223049176931,0.0392265990376,-9.67916297913,0.402072638273,acc,1.5906069054888596e-07,-1.6303720705741994e-06,,,,,0.0051192619801823,-0.1785425855855128
95,1644542223051190853,0.0686465501785,-9.66935634613,0.294199496508,acc,2.784222950177553e-07,-1.1932383899530623e-06,,,,,0.005119421040872848,-0.17854421595758338
96,1644542223053204775,0.0980664938688,-9.64974308014,0.362846046686,acc,3.9774610983797795e-07,-1.4716606849687898e-06,,,,,0.005119699463167866,-0.17854540919597334
97,1644542223053338766,,,,gyr,3.977203650786973e-07,-1.4716676427698341e-06,-0.00523598771542,-0.00349065847695,0.0,1.749363741542659e-05,0.005119699463167866,-0.17854540919597334
98,1644542223055218458,0.0686465501785,-9.70858287811,0.402072638273,acc,2.7835621601364845e-07,-1.6303720705741994e-06,,,,,0.005120097183532945,-0.17854688086361611
99,1644542223057232380,0.0294199492782,-9.57129001617,0.225552946329,acc,1.1932383748408468e-07,-9.148160949332792e-07,,,,,0.005120375539748958,-0.17854851123568669
100,1644542223058350325,,,,gyr,1.1930783400156744e-07,-9.148181822016641e-07,-0.00523598771542,-0.00349065847695,0.0,1.7493640906085063e-05,0.005120375539748958,-0.17854851123568669
101,1644542223059246302,0.0686465501785,-9.62032318115,0.294199496508,acc,2.784222950177553e-07,-1.1932383899530623e-06,,,,,0.005120494847582959,-0.1785494260538689
102,1644542223061259985,0.0686465501785,-9.78703689575,0.529559075832,acc,2.7835621601364845e-07,-2.147319277093805e-06,,,,,0.005120773269877977,-0.17855061929225885
103,1644542223063273907,0.00980664975941,-9.67916297913,0.362846046686,acc,3.977461249473545e-08,-1.4716606849687898e-06,,,,,0.005121051626093991,-0.17855276661153593
104,1644542223063361883,,,,gyr,3.976174014400345e-08,-1.4716610328138186e-06,0.00174532923847,-0.00174532923847,0.00349065847695,8.746818707688236e-06,0.005121051626093991,-0.17855276661153593
105,1644542223065287590,0.0686465501785,-9.67916297913,0.166713044047,acc,2.7835621601364845e-07,-6.760079272792617e-07,,,,,0.005121091387834135,-0.17855423827256875
106,1644542223067301512,0.0294199492782,-9.7478094101,0.402072638273,acc,1.1932383748408468e-07,-1.6307591047288162e-06,,,,,0.0051213697440501485,-0.17855491428049602
107,1644542223068371296,,,,gyr,1.1932383748408468e-07,-1.6307591047288162e-06,-0.00349065847695,0.0,0.00174532923847,-0.0,0.0051213697440501485,-0.17855491428049602
108,1644542223069315434,0.00980664975941,-9.64974308014,0.313812792301,acc,3.977461249473545e-08,-1.2727875998310479e-06,,,,,0.005121489067887633,-0.17855654503960075
109,1644542223071329117,0.0392265990376,-9.66935634613,0.294199496508,acc,1.5906069054888596e-07,-1.1929551942252736e-06,,,,,0.005121528842500128,-0.1785578178272006
110,1644542223073343039,0.0686465501785,-9.70858287811,0.274586200714,acc,2.784222950177553e-07,-1.1136891800710211e-06,,,,,0.0051216879031906765,-0.1785590107823948
111,1644542223073383093,,,,gyr,2.784222950177553e-07,-1.1136891800710211e-06,-0.00174532923847,0.0,0.00174532923847,-0.0,0.0051216879031906765,-0.1785590107823948
112,1644542223075356722,0.0392265990376,-9.66935634613,0.38245934248,acc,1.5906069054888596e-07,-1.5508417404075745e-06,,,,,0.005121966325485694,-0.17856012447157488
113,1644542223077370644,0.0294199492782,-9.62032318115,0.402072638273,acc,1.1932383748408468e-07,-1.6307591047288162e-06,,,,,0.005122125386176243,-0.1785616753133153
114,1644542223078394413,,,,gyr,1.1932383748408468e-07,-1.6307591047288162e-06,0.0,0.0,0.0,-0.0,0.005122125386176243,-0.1785616753133153
115,1644542223079384565,0.0784531980753,-9.64974308014,0.245166242123,acc,3.181965839608001e-07,-9.943643173241883e-07,,,,,0.005122244710013727,-0.17856330607242002
116,1644542223081398249,0.00980664975941,-9.66935634613,0.343232750893,acc,3.976521213223966e-08,-1.3917824623945239e-06,,,,,0.005122562906597688,-0.17856430043673735
117,1644542223083405972,,,,gyr,3.976521213223966e-08,-1.3917824623945239e-06,-0.00523598771542,0.0,0.0,-0.0,0.005122562906597688,-0.17856430043673735
118,1644542223083412170,0.0294199492782,-9.58109664917,0.362846046686,acc,1.1932371898514792e-07,-1.4716592234818807e-06,,,,,0.005122602671809821,-0.17856569221919974
119,1644542223085425854,0.0392265990376,-9.70858287811,0.264779537916,acc,1.5906084852879645e-07,-1.0736607049112757e-06,,,,,0.005122721995528806,-0.17856716387842322
120,1644542223087439775,0.0686465501785,-9.70858287811,0.274586200714,acc,2.7842201852022867e-07,-1.1136880740809147e-06,,,,,0.005122881056377335,-0.17856823753912812
121,1644542223088417768,,,,gyr,2.7842201852022867e-07,-1.1136880740809147e-06,0.0,0.0,-0.00174532923847,-0.0,0.005122881056377335,-0.17856823753912812
122,1644542223089453697,0.0784531980753,-9.61051654816,0.313812792301,acc,3.181968999579648e-07,-1.2727875998310479e-06,,,,,0.0051231594783958554,-0.17856935122720222
123,1644542223091467381,0.0784531980753,-9.61051654816,0.245166242123,acc,3.1812169705799836e-07,-9.941302957547106e-07,,,,,0.005123477675295814,-0.17857062401480206
124,1644542223093429089,,,,gyr,3.1812169705799836e-07,-9.941302957547106e-07,-0.00872664619237,0.0,0.00349065847695,-0.0,0.005123477675295814,-0.17857062401480206
125,1644542223093481302,0.0980664938688,-9.61051654816,0.225552946329,acc,3.977457148415371e-07,-9.148151864414233e-07,,,,,0.0051237957969928714,-0.1785716181450978
126,1644542223095497131,0.0686465501785,-9.58109664917,0.264779537916,acc,2.7894982557531875e-07,-1.0759492753171828e-06,,,,,0.005124193542707713,-0.17857253296028425
127,1644542223097510815,0.0784531980753,-9.64974308014,0.245166242123,acc,3.1812169705799836e-07,-9.941302957547106e-07,,,,,0.005124472492533288,-0.17857360890955956
128,1644542223098440647,,,,gyr,3.181043060543847e-07,-9.941358607082172e-07,-0.00523598771542,-0.00349065847695,0.0,1.749363741542659e-05,0.005124472492533288,-0.17857360890955956
129,1644542223099524736,0.0392265990376,-9.61051654816,0.196132987738,acc,1.5909829198019726e-07,-7.954914296846966e-07,,,,,0.005124790596839342,-0.17857460304542028
130,1644542223101538658,0.0392265990376,-9.62032318115,0.264779537916,acc,1.5909844997877958e-07,-1.0739145146933057e-06,,,,,0.0051249496951313225,-0.17857539853684995
131,1644542223103452444,,,,gyr,1.5908905618915955e-07,-1.0739159063238847e-06,-0.00523598771542,-0.00174532923847,0.00523598771542,8.74723584137623e-06,0.0051249496951313225,-0.17857539853684995
132,1644542223103550196,0.0686465501785,-9.64974308014,0.264779537916,acc,2.7776351490030974e-07,-1.0713735057914466e-06,,,,,0.0051251087841875115,-0.17857647245275626
133,1644542223105564117,0.0392265990376,-9.57129001617,0.137293100357,acc,1.5909829198019726e-07,-5.568440370404573e-07,,,,,0.005125386547702412,-0.17857754382626206
134,1644542223107577801,0.0784531980753,-9.62032318115,0.196132987738,acc,3.1812169705799836e-07,-7.953042124348039e-07,,,,,0.005125545645994392,-0.1785781006702991
135,1644542223108463764,,,,gyr,3.1811474099442687e-07,-7.953069948250508e-07,-0.00349065847695,-0.00174532923847,0.00349065847695,8.74640331932948e-06,0.005125545645994392,-0.1785781006702991
136,1644542223109591722,0.0784531980753,-9.58109664917,0.245166242123,acc,3.181965839608001e-07,-9.943643173241883e-07,,,,,0.005125863760735387,-0.17857889597729393
137,1644542223111605406,0.0784531980753,-9.57129001617,0.225552946329,acc,3.1812169705799836e-07,-9.145998865940905e-07,,,,,0.0051261819573193475,-0.17857989034161126
138,1644542223113475323,,,,gyr,3.1812169705799836e-07,-9.145998865940905e-07,-0.00174532923847,0.0,0.00174532923847,-0.0,0.0051261819573193475,-0.17857989034161126
139,1644542223113619328,0.0686465501785,-9.64974308014,0.225552946329,acc,2.784222950177553e-07,-9.148160949332792e-07,,,,,0.005126500079016405,-0.17858080494149786
140,1644542223115633249,0.0686465501785,-9.61051654816,0.176519691944,acc,2.7842201852022867e-07,-7.159422988019315e-07,,,,,0.005126778501311423,-0.1785817197575928
141,1644542223117648840,0.0392265990376,-9.58109664917,0.176519691944,acc,1.5936225894627104e-07,-7.171301501241958e-07,,,,,0.005127056923329943,-0.1785824356998916
142,1644542223118487120,,,,gyr,1.5936225894627104e-07,-7.171301501241958e-07,-0.00174532923847,0.0,0.0,-0.0,0.005127056923329943,-0.1785824356998916
143,1644542223119662762,0.0980664938688,-9.64974308014,0.196132987738,acc,3.9774610983797795e-07,-7.954922196775783e-07,,,,,0.00512721628558889,-0.17858315283004172
144,1644542223121676683,0.0392265990376,-9.57129001617,0.245166242123,acc,1.5909829198019726e-07,-9.943643173241883e-07,,,,,0.005127614031698728,-0.1785839483222614
145,1644542223123498440,,,,gyr,1.5910698908547736e-07,-9.94362925748325e-07,0.0,0.00174532923847,0.0,-8.74640331932948e-06,0.005127614031698728,-0.1785839483222614
146,1644542223123688459,0.0980664938688,-9.58109664917,0.225552946329,acc,3.9689889889262634e-07,-9.128675096688576e-07,,,,,0.005127773138687813,-0.17858494268518715
147,1644542223125704288,0.0784531980753,-9.61051654816,0.264779537916,acc,3.18799792007393e-07,-1.0759492753171828e-06,,,,,0.005128170037586706,-0.17858585555269682
148,1644542223127717972,0.0784531980753,-9.57129001617,0.225552946329,acc,3.1812169705799836e-07,-9.145998865940905e-07,,,,,0.005128488837378714,-0.17858693150197213
149,1644542223128509998,,,,gyr,3.1812169705799836e-07,-9.145998865940905e-07,0.0,0.0,-0.00349065847695,-0.0,0.005128488837378714,-0.17858693150197213
150,1644542223129731894,0.0686465501785,-9.61051654816,0.264779537916,acc,2.784222950177553e-07,-1.0739145146933057e-06,,,,,0.005128806959075772,-0.17858784610185874
151,1644542223131745815,0.0784531980753,-9.61051654816,0.264779537916,acc,3.181965839608001e-07,-1.0739134482028975e-06,,,,,0.005129085381370789,-0.17858892001637344
152,1644542223133521795,,,,gyr,3.1818719017442223e-07,-1.0739162315023766e-06,0.0,-0.00174532923847,0.00174532923847,8.74723584137623e-06,0.005129085381370789,-0.17858892001637344
153,1644542223133759499,0.0784531980753,-9.58109664917,0.196132987738,acc,3.1812169705799836e-07,-7.953042124348039e-07,,,,,0.005129403568560964,-0.17858999393260494
154,1644542223135773420,0.0392265990376,-9.67916297913,0.294199496508,acc,1.5909829198019726e-07,-1.19323720496368e-06,,,,,0.005129721690258022,-0.17859078923681737
155,1644542223137787342,0.0392265990376,-9.64974308014,0.245166242123,acc,1.5909844997877958e-07,-9.943653048153203e-07,,,,,0.005129880788550002,-0.17859198247402233
156,1644542223138533115,,,,gyr,1.590723585640052e-07,-9.943694790906447e-07,0.00349065847695,-0.00523598771542,0.0,2.6239209958038555e-05,0.005129880788550002,-0.17859198247402233
157,1644542223139801025,0.0392265990376,-9.66935634613,0.264779537916,acc,1.5906069054888596e-07,-1.0736596385469026e-06,,,,,0.005130039860908566,-0.17859297684350142
158,1644542223141814947,0.0392265990376,-9.58109664917,0.245166242123,acc,1.5909844997877958e-07,-9.943653048153203e-07,,,,,0.005130198921599115,-0.17859405050313998
159,1644542223143542767,,,,gyr,1.5908106150406015e-07,-9.943680868153685e-07,0.0,-0.00349065847695,0.00174532923847,1.7486984220369523e-05,0.005130198921599115,-0.17859405050313998
160,1644542223143828630,0.0392265990376,-9.62032318115,0.264779537916,acc,1.5906069054888596e-07,-1.0736596385469026e-06,,,,,0.005130358002660619,-0.1785950448712268
161,1644542223145842552,0.0294199492782,-9.64974308014,0.245166242123,acc,1.1932383748408468e-07,-9.943653048153203e-07,,,,,0.005130517063351167,-0.17859611853086535
162,1644542223147856474,0.0686465501785,-9.61051654816,0.264779537916,acc,2.784222950177553e-07,-1.0739145146933057e-06,,,,,0.005130636387188652,-0.17859711289617017
163,1644542223148554087,,,,gyr,2.784129021176298e-07,-1.0739169498459142e-06,-0.00174532923847,-0.00174532923847,0.00349065847695,8.74640331932948e-06,0.005130636387188652,-0.17859711289617017
164,1644542223149870157,0.0784531980753,-9.66935634613,0.274586200714,acc,3.1812138109817744e-07,-1.1134248640545938e-06,,,,,0.005130914800090769,-0.17859818681312
165,1644542223151884079,0.0294199492782,-9.66935634613,0.294199496508,acc,1.1932383748408468e-07,-1.1932383899530623e-06,,,,,0.005131232921471867,-0.17859930023798407
166,1644542223153565884,,,,gyr,1.1930296239060198e-07,-1.193240477277959e-06,0.00174532923847,-0.00349065847695,0.00174532923847,1.749447168280258e-05,0.005131232921471867,-0.17859930023798407
167,1644542223153897762,0.00980664975941,-9.66935634613,0.274586200714,acc,3.9765172637262036e-08,-1.1134248640545938e-06,,,,,0.005131352224434257,-0.17860049347846135
168,1644542223155911684,0.0392265990376,-9.66935634613,0.313812792301,acc,1.5909844997877958e-07,-1.2727875998310479e-06,,,,,0.005131391989606895,-0.1786016069033254
169,1644542223157925606,0.0294199492782,-9.66935634613,0.294199496508,acc,1.1932383748408468e-07,-1.1932383899530623e-06,,,,,0.005131551088056873,-0.17860287969092525
170,1644542223158577442,,,,gyr,1.1932383748408468e-07,-1.1932383899530623e-06,0.0,0.0,0.0,-0.0,0.005131551088056873,-0.17860287969092525
171,1644542223159939289,0.00980664975941,-9.70858287811,0.343232750893,acc,3.9765172637262036e-08,-1.3917810800702698e-06,,,,,0.005131670411894358,-0.1786040729293152
172,1644542223161953211,0.0392265990376,-9.70858287811,0.343232750893,acc,1.5909844997877958e-07,-1.3921114750908047e-06,,,,,0.005131710177066995,-0.1786054647103953
173,1644542223163588762,,,,gyr,1.5908627400426763e-07,-1.3921128665767679e-06,0.00349065847695,-0.00174532923847,0.0,8.74640331932948e-06,0.005131710177066995,-0.1786054647103953
174,1644542223163967133,0.0686465501785,-9.66935634613,0.402072638273,acc,2.784222950177553e-07,-1.6307591047288162e-06,,,,,0.005131869263340999,-0.17860685682326186
175,1644542223165980816,0.0686465501785,-9.66935634613,0.362846046686,acc,2.7835621601364845e-07,-1.4713114102368949e-06,,,,,0.005132147685636017,-0.17860848758236658
176,1644542223167992592,0.0392265990376,-9.67916297913,0.38245934248,acc,1.5875956558776591e-07,-1.5479057720223498e-06,,,,,0.00513242604185203,-0.17860995889377682
177,1644542223168600559,,,,gyr,1.5877310547854018e-07,-1.5479043832557692e-06,0.00174532923847,0.00174532923847,0.00349065847695,-8.74723584137623e-06,0.00513242604185203,-0.17860995889377682
178,1644542223170006275,0.0686465501785,-9.62032318115,0.362846046686,acc,2.7835621601364845e-07,-1.4713114102368949e-06,,,,,0.0051325848149575085,-0.17861150679816007
179,1644542223172020197,0.0686465501785,-9.67916297913,0.343232750893,acc,2.784222950177553e-07,-1.3921114750908047e-06,,,,,0.005132863171173522,-0.1786129781095703
180,1644542223173612118,,,,gyr,2.784222950177553e-07,-1.3921114750908047e-06,0.0,0.0,0.00174532923847,-0.0,0.005132863171173522,-0.1786129781095703
181,1644542223174036026,0.0392265990376,-9.67916297913,0.38245934248,acc,1.5939989600349333e-07,-1.55414899360611e-06,,,,,0.00513314159346854,-0.1786143702210454
182,1644542223176049709,0.0392265990376,-9.64974308014,0.313812792301,acc,1.5906069054888596e-07,-1.2724855243918985e-06,,,,,0.005133300993364544,-0.178615924370039
183,1644542223178063631,0.0686465501785,-9.66935634613,0.402072638273,acc,2.784222950177553e-07,-1.6307591047288162e-06,,,,,0.005133460054055092,-0.1786171968555634
184,1644542223178623438,,,,gyr,2.784222950177553e-07,-1.6307591047288162e-06,-0.0069813169539,0.0,0.00523598771542,-0.0,0.005133460054055092,-0.1786171968555634
185,1644542223180077314,0.0686465501785,-9.66935634613,0.38245934248,acc,2.7835621601364845e-07,-1.5508417404075745e-06,,,,,0.00513373847635011,-0.17861882761466813
186,1644542223182091236,0.0392265990376,-9.70858287811,0.38245934248,acc,1.5909844997877958e-07,-1.551209894850831e-06,,,,,0.005134016832566124,-0.17862037845640855
187,1644542223183635235,,,,gyr,1.5908488117390337e-07,-1.5512112864631501e-06,-0.00349065847695,-0.00174532923847,0.00349065847695,8.74723584137623e-06,0.005134016832566124,-0.17862037845640855
188,1644542223184105158,0.0980664938688,-9.66935634613,0.38245934248,acc,3.9774610983797795e-07,-1.551209894850831e-06,,,,,0.005134175917447297,-0.17862192966769502
189,1644542223186118841,0.0686465501785,-9.66935634613,0.38245934248,acc,2.7835621601364845e-07,-1.5508417404075745e-06,,,,,0.005134573663557135,-0.17862348087758986
190,1644542223188132763,0.0686465501785,-9.66935634613,0.343232750893,acc,2.784222950177553e-07,-1.3921114750908047e-06,,,,,0.005134852019773149,-0.17862503171933028
191,1644542223188646793,,,,gyr,2.784222950177553e-07,-1.3921114750908047e-06,-0.00523598771542,0.0,0.0,-0.0,0.005134852019773149,-0.17862503171933028
192,1644542223190146685,0.12748645246,-9.66935634613,0.402072638273,acc,5.170699850944901e-07,-1.6307591047288162e-06,,,,,0.005135130442068167,-0.17862642383080538
193,1644542223192162275,0.0392265990376,-9.62032318115,0.294199496508,acc,1.5936210081675026e-07,-1.1952157712628857e-06,,,,,0.005135647512053261,-0.1786280545899101
194,1644542223193658113,,,,gyr,1.5936210081675026e-07,-1.1952157712628857e-06,-0.00523598771542,0.0,0.0,-0.0,0.005135647512053261,-0.1786280545899101
195,1644542223194176197,0.0980664938688,-9.66935634613,0.362846046686,acc,3.9774610983797795e-07,-1.4716606849687898e-06,,,,,0.005135806874154078,-0.17862924980568137
196,1644542223196190119,0.0686465501785,-9.70858287811,0.294199496508,acc,2.784222950177553e-07,-1.1932383899530623e-06,,,,,0.005136204620263916,-0.17863072146636635
197,1644542223198203802,0.0980664938688,-9.67916297913,0.294199496508,acc,3.9765171126682975e-07,-1.1929551942252736e-06,,,,,0.005136483042558934,-0.1786319147047563
198,1644542223198669910,,,,gyr,3.9765171126682975e-07,-1.1929551942252736e-06,-0.00523598771542,0.0,0.00349065847695,-0.0,0.005136483042558934,-0.1786319147047563
199,1644542223200217724,0.0784531980753,-9.67916297913,0.313812792301,acc,3.181968999579648e-07,-1.2727875998310479e-06,,,,,0.0051368806942702,-0.17863310765995052
200,1644542223202231407,0.0980664938688,-9.66935634613,0.313812792301,acc,3.9765171126682975e-07,-1.2724855243918985e-06,,,,,0.0051371988911701584,-0.17863438044755037
201,1644542223203681469,,,,gyr,3.9761832052269686e-07,-1.2724959585181689e-06,-0.00349065847695,-0.00523598771542,0.00174532923847,2.624046135910254e-05,0.0051371988911701584,-0.17863438044755037
202,1644542223204245329,0.0784531980753,-9.64974308014,0.294199496508,acc,3.181968999579648e-07,-1.1932383899530623e-06,,,,,0.005137596509490681,-0.1786356529435089
203,1644542223206259251,0.0784531980753,-9.61051654816,0.264779537916,acc,3.181968999579648e-07,-1.0739145146933057e-06,,,,,0.005137914706390639,-0.17863684618189885
204,1644542223208272934,0.0686465501785,-9.57129001617,0.245166242123,acc,2.7835621601364845e-07,-9.941293083802777e-07,,,,,0.005138232903290597,-0.17863792009641355
205,1644542223208692789,,,,gyr,2.7835621601364845e-07,-9.941293083802777e-07,-0.00523598771542,0.0,0.00523598771542,-0.0,0.005138232903290597,-0.17863792009641355
206,1644542223210286856,0.0784531980753,-9.57129001617,0.245166242123,acc,3.181968999579648e-07,-9.943653048153203e-07,,,,,0.005138511259506611,-0.17863891422572192
207,1644542223212298632,0.00980664975941,-9.58109664917,0.176519691944,acc,3.968989139698195e-08,-7.144180300681581e-07,,,,,0.005138829456406569,-0.17863990859102674
208,1644542223213702679,,,,gyr,3.96961382006348e-08,-7.144176829961083e-07,-0.00174532923847,0.00174532923847,0.0,-8.743907498518468e-06,0.005138829456406569,-0.17863990859102674
209,1644542223214312553,-0.137293100357,-9.53206348419,0.0392265990376,acc,-5.568440370404573e-07,-1.5909829198019726e-07,,,,,0.005138869152544769,-0.17864062300870973
210,1644542223216326475,-0.274586200714,-9.43399715424,-0.12748645246,acc,-1.1136891800710211e-06,5.170699850944901e-07,,,,,0.005138312308507729,-0.1786407821070017
211,1644542223218340158,-0.637432217598,-9.31631755829,-0.245166242123,acc,-2.5847361534467855e-06,9.941293083802777e-07,,,,,0.005137198619327658,-0.1786402650370166
212,1644542223218713999,,,,gyr,-2.5847274582920373e-06,9.941519154871243e-07,0.0,-0.00174532923847,0.0104719754308,8.74640331932948e-06,0.005137198619327658,-0.1786402650370166
213,1644542223220354080,-1.28467106819,-9.02211761475,-0.813951909542,acc,-5.210474032829056e-06,3.3012927539619583e-06,,,,,0.005134613891869365,-0.17863927088510112
214,1644542223222367764,-0.735498726368,-9.16921710968,-0.951245009899,acc,-2.9823908872600765e-06,3.857225508851446e-06,,,,,0.0051294034178365365,-0.17863596959234715
215,1644542223223725557,,,,gyr,-2.982761996447668e-06,3.856938540227698e-06,0.0261799395084,0.0191986225545,0.0715584978461,-9.621501045198491e-05,0.0051294034178365365,-0.17863596959234715
216,1644542223224381685,-1.01989161968,-9.03192424774,-0.882598459721,acc,-4.1365557727926e-06,3.579711494013714e-06,,,,,0.005126420655840088,-0.17863211265380693
217,1644542223226395607,-0.637432217598,-8.99269771576,-1.16699135303,acc,-2.585349744166421e-06,4.733179015283589e-06,,,,,0.005122284100067296,-0.17862853294231293
218,1644542223228409290,0.0686465501785,-9.56148338318,-0.951245009899,acc,2.7835621601364845e-07,3.8572216778386844e-06,,,,,0.00511969875032313,-0.17862379976329765
219,1644542223228737354,,,,gyr,2.7710782037760385e-07,3.857311565179521e-06,0.0890117883682,0.0645771846175,0.211184844375,-0.0003236477401344327,0.00511969875032313,-0.17862379976329765
220,1644542223230427027,4.07956647873,-11.0128679276,1.05911815166,acc,1.6608986433836155e-05,-4.311948121072594e-06,,,,,0.005119975858143507,-0.17861994245173246
221,1644542223232439041,2.20649623871,-11.1109342575,2.95180153847,acc,8.93233881536103e-06,-1.1949483980418122e-05,,,,,0.005136584844577343,-0.17862425439985352
222,1644542223233748674,,,,gyr,8.935160471491862e-06,-1.1947374249573165e-05,0.342084527016,0.0471238903701,0.272271364927,-0.00023615289428948952,0.005136584844577343,-0.17862425439985352
223,1644542223234452724,-0.402072638273,-9.31631755829,1.70635700226,acc,-1.6303720705741994e-06,-6.919139812305495e-06,,,,,0.005145520005048835,-0.17863620177410308
224,1644542223236466646,0.0,-9.5222568512,0.0,acc,0.0,-0.0,,,,,0.005143889632978261,-0.17864312091391538
225,1644542223238482475,0.137293100357,-10.0910425186,0.225552946329,acc,5.578996511506375e-07,-9.165494095896984e-07,,,,,0.005143889632978261,-0.17864312091391538
226,1644542223238760233,,,,gyr,5.577393047523838e-07,-9.166469925263243e-07,0.413643032312,-0.0349065847695,0.0610865242779,0.00017493640906085064,0.005143889632978261,-0.17864312091391538
227,1644542223240496159,0.0392265990376,-9.57129001617,0.00980664975941,acc,1.5906084852879645e-07,-3.976521213223966e-08,,,,,0.005144447372283013,-0.1786440375609079
228,1644542223242508173,0.0392265990376,-9.39477062225,-0.274586200714,acc,1.58797131411838e-07,1.111579950045197e-06,,,,,0.005144606433131542,-0.17864407732612003
229,1644542223243772030,,,,gyr,1.5891380956056295e-07,1.1115632754900013e-06,0.280998021364,-0.0209439508617,0.0174532923847,0.00010496683009681547,0.005144606433131542,-0.17864407732612003
230,1644542223244521618,0.0980664938688,-9.81645679474,-0.00980664975941,acc,3.975577188018794e-07,3.975577339040995e-08,,,,,0.0051447653469411025,-0.17864296576284455
231,1644542223246535540,-0.137293100357,-9.49283695221,0.196132987738,acc,-5.568445900355106e-07,-7.954922196775783e-07,,,,,0.005145162904659904,-0.17864292600707116
232,1644542223248551607,0.166713044047,-9.49283695221,0.402072638273,acc,6.776095268232298e-07,-1.6342347518525672e-06,,,,,0.005144606060069869,-0.17864372149929084
233,1644542223248783350,,,,gyr,6.773522322693326e-07,-1.6343414112247095e-06,0.343829870224,-0.0314159244299,0.0139626339078,0.00015743525041404647,0.005144606060069869,-0.17864372149929084
234,1644542223250563145,-0.0392265990376,-9.78703689575,0.0784531980753,acc,-1.5872200420759684e-07,-3.1744400841559835e-07,,,,,0.005145283412302138,-0.17864535584070207
235,1644542223252579212,0.294199496508,-9.70858287811,-0.529559075832,acc,1.1957815464290641e-06,2.152406710888833e-06,,,,,0.005145124690297931,-0.17864567328471048
236,1644542223253794909,,,,gyr,1.1960262859835128e-06,2.152270726255425e-06,0.38397243619,-0.0226892791688,0.00872664619237,0.00011370866122191216,0.005145124690297931,-0.17864567328471048
237,1644542223254593134,0.0980664938688,-9.56148338318,-1.01008486748,acc,3.9774610983797795e-07,4.096784852774258e-06,,,,,0.005146320716583914,-0.17864352101398423
238,1644542223256604671,-0.137293100357,-9.43399715424,-1.67693710327,acc,-5.555264774601796e-07,6.7853589108228126e-06,,,,,0.005146718462693752,-0.17863942422913145
239,1644542223258620501,0.0,-9.62032318115,-1.61809718609,acc,0.0,6.575252135377175e-06,,,,,0.005146162936216292,-0.17863263887022063
240,1644542223258806705,,,,gyr,2.8757633303787976e-09,6.575251506502803e-06,0.497418820858,-0.0872664600611,0.0191986225545,0.00043736169546838074,0.005146162936216292,-0.17863263887022063
241,1644542223260634184,0.264779537916,-9.61051654816,-1.78481030464,acc,1.0736596385469026e-06,7.2372616163508044e-06,,,,,0.005146165811979623,-0.17862606361871414
242,1644542223262648106,-0.0294199492782,-9.30651092529,-0.549172401428,acc,-1.1932383748408468e-07,2.2273783601420422e-06,,,,,0.0051472394716181695,-0.17861882635709778
243,1644542223263818026,,,,gyr,-1.1562217926222387e-07,2.2275735788259915e-06,0.741764903069,-0.331612557173,0.00349065847695,0.0016618169716247555,0.0051472394716181695,-0.17861882635709778
244,1644542223264664173,0.00980664975941,-9.88510322571,0.343232750893,acc,3.985938437619531e-08,-1.3950784910224095e-06,,,,,0.005147123849438907,-0.17861659878351896
245,1644542223266678095,0.0980664938688,-9.67916297913,0.666852176189,acc,3.9774610983797795e-07,-2.7046736194221217e-06,,,,,0.005147163708823284,-0.17861799386201
246,1644542223268691540,-0.176519691944,-9.57129001617,1.52983736992,acc,-7.156039059248347e-07,-6.2019006791142295e-06,,,,,0.005147561454933122,-0.17862069853562942
247,1644542223268829584,,,,gyr,-7.306281822219909e-07,-6.2001486629850585e-06,1.03323495388,-0.483456194401,-0.0139626339078,0.002422868758699887,0.005147561454933122,-0.17862069853562942
248,1644542223270705462,-0.0980664938688,-9.64974308014,2.58895564079,acc,-3.9774610983797795e-07,-1.0500498121661995e-05,,,,,0.005146830826750899,-0.1786268986842924
249,1644542223272721529,0.137293100357,-9.8949098587,2.8733484745,acc,5.580313964081508e-07,-1.1678800008326228e-05,,,,,0.005146433080641061,-0.17863739918241406
250,1644542223273841381,,,,gyr,5.354536233078286e-07,-1.1679856937957094e-05,1.04719758034,-0.385717749596,-0.0209439508617,0.0019331390602719842,0.005146433080641061,-0.17863739918241406
251,1644542223274735212,0.0686465501785,-9.7478094101,3.07928800583,acc,2.7835621601364845e-07,-1.2486264132578465e-05,,,,,0.005146968534264369,-0.178649079039352
252,1644542223276749134,0.0392265990376,-9.56148338318,3.33426094055,acc,1.5909844997877958e-07,-1.3523368338861445e-05,,,,,0.005147246890480382,-0.1786615653034846
253,1644542223278762579,0.176519691944,-9.75761604309,3.30484104156,acc,7.156039059248347e-07,-1.3397695927043119e-05,,,,,0.005147405988930361,-0.17867508867182347
254,1644542223278852701,,,,gyr,7.023620319435421e-07,-1.339839664585904e-05,0.684169054031,-0.197222203016,-0.0139626339078,0.000988343570418141,0.005147405988930361,-0.17867508867182347
255,1644542223280776501,0.0980664938688,-9.8949098587,3.19696784019,acc,3.9774610983797795e-07,-1.2966523748813768e-05,,,,,0.0051481083509623046,-0.17868848706846932
256,1644542223282790422,0.0,-9.56148338318,2.34378933907,acc,0.0,-9.506123134712804e-06,,,,,0.005148506097072143,-0.17870145359221815
257,1644542223283862352,,,,gyr,-1.4961004337588217e-09,-9.506123016982553e-06,0.127409040928,-0.0314159244299,0.00174532923847,0.00015738281723617299,0.005148506097072143,-0.17870145359221815
258,1644542223284804106,-0.12748645246,-9.56148338318,1.75539028645,acc,-5.169477803766885e-07,-7.117972888608269e-06,,,,,0.005148504600971709,-0.17871095971523512
259,1644542223286820173,0.0980664938688,-9.8949098587,1.8926833868,acc,3.985938286203737e-07,-7.69286111645932e-06,,,,,0.005147987653191332,-0.17871807768812373
260,1644542223288834095,0.00980664975941,-9.71838951111,1.39254426956,acc,3.977461249473545e-08,-5.647994989355646e-06,,,,,0.005148386247019953,-0.1787257705492402
261,1644542223288873911,,,,gyr,3.819374701841471e-08,-5.648005900959584e-06,-0.394444406033,-0.0558505356312,0.00523598771542,0.000279898254497361,0.005148386247019953,-0.1787257705492402
262,1644542223290845633,-0.00980664975941,-9.62032318115,1.01989161968,acc,-3.9680501051939676e-08,-4.126772290276174e-06,,,,,0.005148424440766971,-0.17873141855514116
263,1644542223292861462,-0.00980664975941,-9.61051654816,0.637432217598,acc,-3.984997400091397e-08,-2.5902482419392e-06,,,,,0.0051483847602659194,-0.17873554532743144
264,1644542223293885469,,,,gyr,-4.134529175090026e-08,-2.590224805330036e-06,-0.701622366905,-0.115191727877,0.0,0.0005772900253758023,0.0051483847602659194,-0.17873554532743144
265,1644542223294875383,0.0784531980753,-9.64974308014,0.38245934248,acc,3.181965839608001e-07,-1.5512083543646459e-06,,,,,0.005148343414974168,-0.17873813555223678
266,1644542223296889067,-0.0686465501785,-9.61051654816,0.343232750893,acc,-2.783564924784993e-07,-1.3917824623945239e-06,,,,,0.005148661611558129,-0.17873968676059115
267,1644542223298897028,,,,gyr,-2.7913556378695035e-07,-1.3916264213370047e-06,-0.776671528816,-0.111701071262,0.00174532923847,0.0005597965089927174,0.005148661611558129,-0.17873968676059115
268,1644542223298905134,0.00980664975941,-9.62032318115,0.245166242123,acc,3.985938437619531e-08,-9.964846018357185e-07,,,,,0.005148382475994342,-0.1787410783870125
269,1644542223300919056,0.0686465501785,-9.70858287811,0.225552946329,acc,2.784222950177553e-07,-9.148160949332792e-07,,,,,0.0051484223353787184,-0.17874207487161434
270,1644542223302932501,-0.0784531980753,-9.58109664917,0.245166242123,acc,-3.1804618712336067e-07,-9.938943272107602e-07,,,,,0.005148700757673736,-0.17874298968770927
271,1644542223303908587,,,,gyr,-3.184895196267424e-07,-9.937523517926206e-07,-0.727802276611,-0.0890117883682,0.0104719754308,0.000446087829102748,0.005148700757673736,-0.17874298968770927
272,1644542223304946423,0.0,-9.71838951111,0.245166242123,acc,0.0,-9.943653048153203e-07,,,,,0.005148382268154109,-0.17874398344006107
273,1644542223306962490,0.0392265990376,-9.71838951111,0.294199496508,acc,1.5943753750461862e-07,-1.1957815464290641e-06,,,,,0.005148382268154109,-0.17874497780536588
274,1644542223308920145,,,,gyr,1.5896685735146127e-07,-1.195844209506247e-06,-0.661479771137,-0.0785398185253,0.00872664619237,0.0003936068558490154,0.005148382268154109,-0.17874497780536588
275,1644542223308974028,-0.12748645246,-9.48303031921,0.245166242123,acc,-5.158465362845218e-07,-9.920125187632975e-07,,,,,0.00514854123501146,-0.1787461736495754
276,1644542223310990095,0.0294199492782,-9.64974308014,0.343232750893,acc,1.1957815312846397e-07,-1.3950784910224095e-06,,,,,0.005148025388475176,-0.17874716566209417
277,1644542223313004017,-0.176519691944,-9.71838951111,0.38245934248,acc,-7.159430097955371e-07,-1.551209894850831e-06,,,,,0.005148144966628305,-0.1787485607405852
278,1644542223313931704,,,,gyr,-7.163364632299987e-07,-1.5510282404280572e-06,-0.610865235329,-0.0506145469844,0.0104719754308,0.00025365778847059265,0.005148144966628305,-0.1787485607405852
279,1644542223315017462,-0.137293100357,-9.57129001617,0.196132987738,acc,-5.565808425677971e-07,-7.951154376053804e-07,,,,,0.0051474286301650745,-0.17875011176882563
280,1644542223317029476,0.00980664975941,-9.58109664917,-0.274586200714,acc,3.9699282852999984e-08,1.111579950045197e-06,,,,,0.005146872049322506,-0.17875090688426323
281,1644542223318943262,,,,gyr,3.9699282852999984e-08,1.111579950045197e-06,-0.561996042728,0.0,-0.0069813169539,-0.0,0.005146872049322506,-0.17875090688426323
282,1644542223319045067,0.0392265990376,-9.75761604309,-0.294199496508,acc,1.5936225894627104e-07,1.1952169572343069e-06,,,,,0.00514691174860536,-0.17874979530431317
283,1644542223321058989,0.00980664975941,-9.64974308014,-0.137293100357,acc,3.977461249473545e-08,5.568445900355106e-07,,,,,0.005147071110864306,-0.17874860008735594
284,1644542223323072910,0.0294199492782,-9.61051654816,0.00980664975941,acc,1.1932371898514792e-07,-3.977457299508987e-08,,,,,0.005147110885476801,-0.1787480432427659
285,1644542223323954821,,,,gyr,1.1933206598107644e-07,-3.9749523243383726e-08,-0.424115002155,0.0418879017234,-0.0104719754308,-0.00020992369087302075,0.005147110885476801,-0.1787480432427659
286,1644542223325088739,0.0392265990376,-9.64974308014,0.225552946329,acc,1.5939989600349333e-07,-9.165494095896984e-07,,,,,0.005147230217542782,-0.17874808299228917
287,1644542223327102423,0.00980664975941,-9.64974308014,0.402072638273,acc,3.976521213223966e-08,-1.6303736898682743e-06,,,,,0.005147389617438786,-0.17874899954169876
288,1644542223328966379,,,,gyr,3.999338107153674e-08,-1.630368108796624e-06,-0.328121900558,0.0279252678156,-0.00523598771542,-0.00013994909932341272,0.005147389617438786,-0.17874899954169876
289,1644542223329116344,-0.0392265990376,-9.5222568512,0.598205626011,acc,-1.5909829198019726e-07,-2.4262489149280516e-06,,,,,0.005147429610819858,-0.17875062990980756
290,1644542223331130028,-0.0980664938688,-9.57129001617,0.774725317955,acc,-3.9765210621659096e-07,-3.1414517055772622e-06,,,,,0.005147270512527878,-0.17875305615872247
291,1644542223333143950,-0.0686465501785,-9.64974308014,0.843371868134,acc,-2.784222950177553e-07,-3.4206166292217147e-06,,,,,0.005146872860421661,-0.17875619761042805
292,1644542223333977938,,,,gyr,-2.7791366012616367e-07,-3.4206579916715378e-06,-0.349065840244,0.0296705961227,-0.00174532923847,-0.00014869594303408229,0.005146872860421661,-0.17875619761042805
293,1644542223335157871,-0.12748645246,-9.56148338318,0.951245009899,acc,-5.17069471599075e-07,-3.858133512531915e-06,,,,,0.0051465949467615355,-0.1787596182684197
294,1644542223337171555,-0.598205626011,-9.06134414673,-3.19696784019,acc,-2.425677902303078e-06,1.2963459230622287e-05,,,,,0.005146077877289937,-0.17876347640193224
295,1644542223338989496,,,,gyr,-2.428739338439172e-06,1.2962886011056554e-05,-0.418879032135,0.0471238903701,0.0174532923847,-0.00023616410977539762,0.005146077877289937,-0.17876347640193224
296,1644542223339187384,1.78481030464,-10.2871751785,-0.764918684959,acc,7.252695464954224e-06,3.1082979872081558e-06,,,,,0.005143649137951498,-0.1787505135159212
297,1644542223341199160,0.00980664975941,-9.30651092529,-1.12776470184,acc,3.968989139698195e-08,4.5643374277162206e-06,,,,,0.005150901833416452,-0.17874740521793397
298,1644542223343214989,-0.0686465501785,-9.66935634613,1.20621788502,acc,-2.7894982557531875e-07,-4.9015466583132405e-06,,,,,0.0051509415233078485,-0.17874284088050627
299,1644542223343998909,,,,gyr,-2.782641494092213e-07,-4.901585632421794e-06,-0.123918376863,0.0279252678156,0.0279252678156,-0.00013988919962394823,0.0051509415233078485,-0.17874284088050627
300,1644542223345231056,0.0784531980753,-9.5222568512,0.0392265990376,acc,3.188750750096437e-07,-1.5943753750461862e-07,,,,,0.005150663259158439,-0.1787477424661387
301,1644542223347242594,0.176519691944,-9.7478094101,-0.12748645246,acc,7.142490038609645e-07,5.158465362845218e-07,,,,,0.005150982134233449,-0.1787479019036762
302,1644542223349010706,,,,gyr,7.142490038609645e-07,5.158465362845218e-07,-0.0104719754308,0.0,0.00523598771542,-0.0,0.005150982134233449,-0.1787479019036762
303,1644542223349258661,0.0392265990376,-9.56148338318,0.509945809841,acc,1.5943753750461862e-07,-2.0726880784111437e-06,,,,,0.00515169638323731,-0.1787473860571399
304,1644542223351272345,0.0392265990376,-9.48303031921,0.343232750893,acc,1.5906084852879645e-07,-1.3917824623945239e-06,,,,,0.005151855820774815,-0.17874945874521833
305,1644542223353286266,0.137293100357,-9.75761604309,0.0392265990376,acc,5.568440370404573e-07,-1.5909829198019726e-07,,,,,0.005152014881623344,-0.17875085052768072
306,1644542223354022264,,,,gyr,5.568440370404573e-07,-1.5909829198019726e-07,-0.00523598771542,0.0,0.00174532923847,-0.0,0.005152014881623344,-0.17875085052768072
307,1644542223355299950,0.0294199492782,-9.61051654816,0.166713044047,acc,1.192956363965973e-07,-6.760085986938737e-07,,,,,0.005152571725660384,-0.1787510096259727
308,1644542223357313871,0.00980664975941,-9.45361042023,0.38245934248,acc,3.977457299508987e-08,-1.5512083543646459e-06,,,,,0.00515269102129678,-0.1787516856345714
309,1644542223359033585,,,,gyr,3.976100549696172e-08,-1.5512087021898392e-06,-0.00349065847695,-0.00174532923847,0.0,8.74640506465872e-06,0.00515269102129678,-0.1787516856345714
310,1644542223359329939,0.0784531980753,-9.80665016174,0.196132987738,acc,3.1887539134352963e-07,-7.971884480770581e-07,,,,,0.005152730782302277,-0.17875323684327357
311,1644542223361343622,0.0784531980753,-9.7478094101,0.0686465501785,acc,3.1812138109817744e-07,-2.7835621601364845e-07,,,,,0.005153049657693621,-0.17875403403172166
312,1644542223363357306,0.0392265990376,-9.45361042023,0.343232750893,acc,1.5906084852879645e-07,-1.3917824623945239e-06,,,,,0.005153367779074719,-0.17875431238793768
313,1644542223364045382,,,,gyr,1.5906084852879645e-07,-1.3917824623945239e-06,-0.00523598771542,0.0,0.00174532923847,-0.0,0.005153367779074719,-0.17875431238793768
314,1644542223365370989,0.0392265990376,-9.64974308014,0.343232750893,acc,1.5906069054888596e-07,-1.3917810800702698e-06,,,,,0.0051535268399232476,-0.17875570417040007
315,1644542223367384911,0.0980664938688,-9.70858287811,0.0686465501785,acc,3.9774610983797795e-07,-2.784222950177553e-07,,,,,0.005153685900613796,-0.17875709595148015
316,1644542223369056940,,,,gyr,3.9774854513210145e-07,-2.7841881599399027e-07,-0.00523598771542,0.00174532923847,0.0,-8.746818707688236e-06,0.005153685900613796,-0.17875709595148015
317,1644542223369398832,0.00980664975941,-9.58109664917,0.245166242123,acc,3.977457299508987e-08,-9.943643173241883e-07,,,,,0.005154083649158928,-0.17875737437029615
318,1644542223371410608,0.0,-9.56148338318,0.421685934067,acc,0.0,-1.7066653074557293e-06,,,,,0.005154123423731924,-0.17875836873461348
319,1644542223373426437,0.0784531980753,-9.67916297913,0.166713044047,acc,3.18799792007393e-07,-6.774495504452347e-07,,,,,0.005154123423731924,-0.17876007539992095
320,1644542223374068260,,,,gyr,3.187938667482024e-07,-6.774523387708815e-07,-0.00349065847695,-0.00174532923847,0.0,8.74640331932948e-06,0.005154123423731924,-0.17876007539992095
321,1644542223375440359,0.0392265990376,-9.61051654816,0.176519691944,acc,1.5909844997877958e-07,-7.159430097955371e-07,,,,,0.005154442217598672,-0.17876075285225973
322,1644542223377452135,-0.00980664975941,-9.53206348419,0.470719188452,acc,-3.968989139698195e-08,-1.9051147870564286e-06,,,,,0.005154601316048651,-0.17876146879526952
323,1644542223379080057,,,,gyr,-3.968989139698195e-08,-1.9051147870564286e-06,0.0,0.0,0.0,-0.0,0.005154601316048651,-0.17876146879526952
324,1644542223379467964,0.0392265990376,-9.66935634613,0.264779537916,acc,1.5939989600349333e-07,-1.0759492753171828e-06,,,,,0.005154561626157254,-0.1787633739100566
325,1644542223381483793,0.0784531980753,-9.66935634613,0.0784531980753,acc,3.18799792007393e-07,-3.18799792007393e-07,,,,,0.005154721026053258,-0.1787644498593319
326,1644542223383495569,0.00980664975941,-9.64974308014,0.362846046686,acc,3.968989139698195e-08,-1.4685260043036362e-06,,,,,0.005155039825845266,-0.1787647686591239
327,1644542223384091616,,,,gyr,3.9664201524329625e-08,-1.4685266983996391e-06,-0.00174532923847,-0.00349065847695,0.00349065847695,1.7493640906085063e-05,0.005155039825845266,-0.1787647686591239
328,1644542223385509491,0.00980664975941,-9.58109664917,0.38245934248,acc,3.977461249473545e-08,-1.551209894850831e-06,,,,,0.0051550794900467895,-0.17876623718582232
329,1644542223387525082,0.0392265990376,-9.66935634613,0.0980664938688,acc,1.5936225894627104e-07,-3.9840563223165373e-07,,,,,0.005155119264659285,-0.17876778839571716
330,1644542223389102936,,,,gyr,1.593552896892007e-07,-3.984084198638791e-07,0.0,-0.00349065847695,0.0,1.7492806638709073e-05,0.005155119264659285,-0.17876778839571716
331,1644542223389539003,0.0294199492782,-9.71838951111,0.38245934248,acc,1.1932371898514792e-07,-1.5512083543646459e-06,,,,,0.005155278619948974,-0.17876818680413703
332,1644542223391551018,-0.00980664975941,-9.62032318115,0.402072638273,acc,-3.9699322315243005e-08,-1.6276722073839274e-06,,,,,0.00515539794366796,-0.1787697380124914
333,1644542223393566608,0.0392265990376,-9.75761604309,0.225552946329,acc,1.5936210081675026e-07,-9.163320872641309e-07,,,,,0.005155358244345644,-0.17877136568469879
334,1644542223394114733,,,,gyr,1.5936210081675026e-07,-9.163320872641309e-07,0.00349065847695,0.0,0.00174532923847,-0.0,0.005155358244345644,-0.17877136568469879
335,1644542223395578623,-0.00980664975941,-9.71838951111,0.245166242123,acc,-3.9699322315243005e-08,-9.924830503423065e-07,,,,,0.005155517606446461,-0.17877228201678605
336,1644542223397594452,-0.00980664975941,-9.64974308014,0.38245934248,acc,-3.984997400091397e-08,-1.55414899360611e-06,,,,,0.005155477907124145,-0.1787732744998364
337,1644542223399126291,,,,gyr,-3.983638013989794e-08,-1.5541493421071564e-06,0.0,0.00174532923847,0.00174532923847,-8.746818707688236e-06,0.005155477907124145,-0.1787732744998364
338,1644542223399608135,0.0686465501785,-9.7478094101,0.313812792301,acc,2.7835621601364845e-07,-1.2724855243918985e-06,,,,,0.005155438070744005,-0.1787748286491785
339,1644542223401622057,0.0392265990376,-9.70858287811,0.196132987738,acc,1.5909844997877958e-07,-7.954922196775783e-07,,,,,0.005155716426960019,-0.1787761011347029
340,1644542223403635740,0.00980664975941,-9.56148338318,0.38245934248,acc,3.9765172637262036e-08,-1.5508417404075745e-06,,,,,0.0051558755254099975,-0.1787768966269226
341,1644542223404137611,,,,gyr,3.9765172637262036e-08,-1.5508417404075745e-06,0.0,0.0,0.0,-0.0,0.0051558755254099975,-0.1787768966269226
342,1644542223405649662,0.0294199492782,-9.67916297913,0.421685934067,acc,1.1932383748408468e-07,-1.7103083146108573e-06,,,,,0.005155915290582635,-0.178778447468663
343,1644542223407665491,0.0686465501785,-9.66935634613,0.274586200714,acc,2.7894982557531875e-07,-1.115799302301275e-06,,,,,0.005156034614420119,-0.17878015777697762
344,1644542223409149408,,,,gyr,2.7894982557531875e-07,-1.115799302301275e-06,0.0,0.0,0.0,-0.0,0.005156034614420119,-0.17878015777697762
345,1644542223409677267,0.0,-9.58109664917,0.294199496508,acc,0.0,-1.1906967569882706e-06,,,,,0.0051563135642456945,-0.17878127357627993
346,1644542223411693096,0.0294199492782,-9.67916297913,0.490332484245,acc,1.1954992200262e-07,-1.992498684906881e-06,,,,,0.0051563135642456945,-0.17878246427303693
347,1644542223413707018,0.0294199492782,-9.66935634613,0.294199496508,acc,1.1932383748408468e-07,-1.1932383899530623e-06,,,,,0.005156433114167697,-0.17878445677172183
348,1644542223414160967,,,,gyr,1.1932383748408468e-07,-1.1932383899530623e-06,-0.00174532923847,0.0,0.00349065847695,-0.0,0.005156433114167697,-0.17878445677172183
349,1644542223415720701,0.0294199492782,-9.66935634613,0.264779537916,acc,1.1929551791166445e-07,-1.0736596385469026e-06,,,,,0.005156552438005182,-0.1787856500101118
350,1644542223417734623,0.00980664975941,-9.66935634613,0.470719188452,acc,3.977461249473545e-08,-1.9091813997485995e-06,,,,,0.005156671733523094,-0.17878672366975035
351,1644542223419170380,,,,gyr,3.977461249473545e-08,-1.9091813997485995e-06,-0.00349065847695,0.0,0.0,-0.0,0.005156671733523094,-0.17878672366975035
352,1644542223419748545,0.0392265990376,-9.62032318115,0.274586200714,acc,1.5909844997877958e-07,-1.1136891800710211e-06,,,,,0.005156711508135589,-0.1787886328511501
353,1644542223421762228,0.00980664975941,-9.70858287811,0.294199496508,acc,3.9765172637262036e-08,-1.1929551942252736e-06,,,,,0.005156870606585567,-0.17878974654033017
354,1644542223423778057,0.00980664975941,-9.67916297913,0.38245934248,acc,3.984997400091397e-08,-1.55414899360611e-06,,,,,0.005156910371758205,-0.17879093949552438
355,1644542223424182177,,,,gyr,3.984997400091397e-08,-1.55414899360611e-06,-0.00349065847695,0.0,0.0,-0.0,0.005156910371758205,-0.17879093949552438
356,1644542223425791979,0.00980664975941,-9.64974308014,0.38245934248,acc,3.977461249473545e-08,-1.551209894850831e-06,,,,,0.005156950221732206,-0.178792493644518
357,1644542223427805662,0.0294199492782,-9.70858287811,0.196132987738,acc,1.1929551791166445e-07,-7.953034225352816e-07,,,,,0.005156989996344701,-0.17879404485441283
358,1644542223429193497,,,,gyr,1.1929551791166445e-07,-7.953034225352816e-07,-0.00349065847695,0.0,0.00174532923847,-0.0,0.005156989996344701,-0.17879404485441283
359,1644542223429819584,0.0294199492782,-9.66935634613,0.343232750893,acc,1.1932383748408468e-07,-1.3921114750908047e-06,,,,,0.005157109291862613,-0.17879484015783537
360,1644542223431833506,0.0,-9.62032318115,0.294199496508,acc,0.0,-1.1932383899530623e-06,,,,,0.0051572286157000975,-0.17879623226931046
361,1644542223433847189,0.0392265990376,-9.71838951111,0.225552946329,acc,1.5906069054888596e-07,-9.145989782095978e-07,,,,,0.0051572286157000975,-0.17879742550770042
362,1644542223434205055,,,,gyr,1.5906069054888596e-07,-9.145989782095978e-07,-0.00349065847695,0.0,0.0,-0.0,0.0051572286157000975,-0.17879742550770042
363,1644542223435863018,0.0392265990376,-9.70858287811,0.245166242123,acc,1.5939989600349333e-07,-9.962493424554722e-07,,,,,0.005157387676390646,-0.17879834010667864
364,1644542223437876940,0.00980664975941,-9.62032318115,0.264779537916,acc,3.977461249473545e-08,-1.0739145146933057e-06,,,,,0.00515754707628665,-0.1787993363560211
365,1644542223439216852,,,,gyr,3.977461249473545e-08,-1.0739145146933057e-06,-0.00523598771542,0.0,0.00174532923847,-0.0,0.00515754707628665,-0.1787993363560211
366,1644542223439890623,0.0294199492782,-9.61051654816,0.274586200714,acc,1.1929551791166445e-07,-1.1134248640545938e-06,,,,,0.005157586850899145,-0.1788004102705358
367,1644542223441904545,0.0392265990376,-9.62032318115,0.196132987738,acc,1.5909844997877958e-07,-7.954922196775783e-07,,,,,0.005157706146417057,-0.17880152369539987
368,1644542223443918467,0.0294199492782,-9.62032318115,0.274586200714,acc,1.1932383748408468e-07,-1.1136891800710211e-06,,,,,0.005157865244867036,-0.17880231918761955
369,1644542223444228172,,,,gyr,1.1931409670477944e-07,-1.113690223682831e-06,-0.00523598771542,-0.00174532923847,0.0,8.74640331932948e-06,0.005157865244867036,-0.17880231918761955
370,1644542223445932150,-0.00980664975941,-9.56148338318,0.264779537916,acc,-3.9765172637262036e-08,-1.0736596385469026e-06,,,,,0.005157984558963741,-0.17880343287784323
371,1644542223447947979,0.0294199492782,-9.61051654816,0.245166242123,acc,1.1954992200262e-07,-9.962493424554722e-07,,,,,0.005157944793791103,-0.17880450653748178
372,1644542223449239969,,,,gyr,1.1954992200262e-07,-9.962493424554722e-07,-0.00349065847695,0.0,0.0,-0.0,0.005157944793791103,-0.17880450653748178
373,1644542223449961901,0.0392265990376,-9.57129001617,0.196132987738,acc,1.5909844997877958e-07,-7.954922196775783e-07,,,,,0.005158064343713106,-0.17880550278682425
374,1644542223451975584,0.0,-9.57129001617,0.274586200714,acc,0.0,-1.1134248640545938e-06,,,,,0.005158223442163085,-0.17880629827904393
375,1644542223453991413,0.00980664975941,-9.61051654816,0.176519691944,acc,3.984997400091397e-08,-7.172995168781217e-07,,,,,0.005158223442163085,-0.178807411703908
376,1644542223454251528,,,,gyr,3.984369990930448e-08,-7.172998654112503e-07,-0.0069813169539,-0.00174532923847,0.00349065847695,8.746820453017475e-06,0.005158223442163085,-0.178807411703908
377,1644542223456005335,0.0294199492782,-9.58109664917,0.166713044047,acc,1.1932383748408468e-07,-6.761684048545165e-07,,,,,0.0051582632858629945,-0.1788081290037734
378,1644542223458019018,0.0,-9.57129001617,0.245166242123,acc,0.0,-9.941293083802777e-07,,,,,0.005158382609700479,-0.17880880517217826
379,1644542223459262848,,,,gyr,-1.7390111764482888e-11,-9.941293082281769e-07,0.0,-0.00349065847695,-0.00174532923847,1.7492806638709073e-05,0.005158382609700479,-0.17880880517217826
380,1644542223460032940,0.0294199492782,-9.58109664917,0.225552946329,acc,1.1932383748408468e-07,-9.148160949332792e-07,,,,,0.005158382592310367,-0.1788097993014865
381,1644542223462046862,0.0392265990376,-9.62032318115,0.137293100357,acc,1.5909844997877958e-07,-5.568445900355106e-07,,,,,0.005158501916147851,-0.17881071411758143
382,1644542223464062452,0.0392265990376,-9.61051654816,0.245166242123,acc,1.5936210081675026e-07,-9.960131225401222e-07,,,,,0.00515866101459783,-0.17881127096217145
383,1644542223464274645,,,,gyr,1.5936210081675026e-07,-9.960131225401222e-07,0.00174532923847,0.0,0.0,-0.0,0.00515866101459783,-0.17881127096217145
384,1644542223466076374,0.0392265990376,-9.62032318115,0.245166242123,acc,1.5909844997877958e-07,-9.943653048153203e-07,,,,,0.005158820376698647,-0.17881226697529398
385,1644542223468090296,0.0294199492782,-9.58109664917,0.12748645246,acc,1.1932383748408468e-07,-5.170699850944901e-07,,,,,0.0051589794751486255,-0.1788132613405988
386,1644542223469286203,,,,gyr,1.1932383748408468e-07,-5.170699850944901e-07,0.0,0.0,-0.00174532923847,-0.0,0.0051589794751486255,-0.1788132613405988
387,1644542223470103979,0.0392265990376,-9.62032318115,0.225552946329,acc,1.5906069054888596e-07,-9.145989782095978e-07,,,,,0.00515909879898611,-0.1788137784105839
388,1644542223472119808,0.0294199492782,-9.58109664917,0.274586200714,acc,1.1954992200262e-07,-1.115799302301275e-06,,,,,0.005159257859676658,-0.17881469300956213
389,1644542223474133730,0.00980664975941,-9.61051654816,0.176519691944,acc,3.977461249473545e-08,-7.159430097955371e-07,,,,,0.005159377409598661,-0.17881580880886444
390,1644542223474297523,,,,gyr,3.976208863601592e-08,-7.159437054556038e-07,-0.00174532923847,-0.00349065847695,0.00523598771542,1.7492806638709073e-05,0.005159377409598661,-0.17881580880886444
391,1644542223476147413,0.0294199492782,-9.64974308014,0.225552946329,acc,1.1929551791166445e-07,-9.145989782095978e-07,,,,,0.0051594171716872975,-0.1788165247525699
392,1644542223478161335,-0.00980664975941,-9.57129001617,0.294199496508,acc,-3.977461249473545e-08,-1.1932383899530623e-06,,,,,0.00515953646720521,-0.17881743935154812
393,1644542223479309320,,,,gyr,-3.977461249473545e-08,-1.1932383899530623e-06,0.0,0.0,0.0,-0.0,0.00515953646720521,-0.17881743935154812
394,1644542223480177164,0.0294199492782,-9.62032318115,0.264779537916,acc,1.1954992200262e-07,-1.0759492753171828e-06,,,,,0.0051594966925927145,-0.17881863258993808
395,1644542223482190847,0.0392265990376,-9.66935634613,0.225552946329,acc,1.5906069054888596e-07,-9.145989782095978e-07,,,,,0.005159616242514717,-0.1788197085392134
396,1644542223484202862,0.0,-9.62032318115,0.294199496508,acc,0.0,-1.190979684539685e-06,,,,,0.005159775303205266,-0.1788206231381916
397,1644542223484320879,,,,gyr,-2.083457092671706e-11,-1.1909796843574489e-06,0.0,-0.00349065847695,0.00174532923847,1.7493640906085063e-05,0.005159775303205266,-0.1788206231381916
398,1644542223486218691,0.0392265990376,-9.61051654816,0.264779537916,acc,1.5939989600349333e-07,-1.0759492753171828e-06,,,,,0.005159775282370695,-0.17882181411787595
399,1644542223488234520,0.0392265990376,-9.66935634613,0.294199496508,acc,1.5939989600349333e-07,-1.195499235167049e-06,,,,,0.005159934682266699,-0.17882289006715127
400,1644542223489332438,,,,gyr,1.5939989600349333e-07,-1.195499235167049e-06,0.0,0.0,0.0,-0.0,0.005159934682266699,-0.17882289006715127
401,1644542223490248203,0.0294199492782,-9.64974308014,0.313812792301,acc,1.1929551791166445e-07,-1.2724855243918985e-06,,,,,0.0051600940821627025,-0.17882408556638643
402,1644542223492262125,0.0392265990376,-9.62032318115,0.362846046686,acc,1.5909844997877958e-07,-1.4716606849687898e-06,,,,,0.0051602133776806145,-0.17882535805191083
403,1644542223494278193,0.0686465501785,-9.64974308014,0.294199496508,acc,2.7901597499623306e-07,-1.1957827326811512e-06,,,,,0.005160372476130593,-0.1788268297125958
404,1644542223494342089,,,,gyr,2.7901597499623306e-07,-1.1957827326811512e-06,0.0,0.0,-0.00349065847695,-0.0,0.005160372476130593,-0.1788268297125958
405,1644542223496291637,0.0392265990376,-9.67916297913,0.313812792301,acc,1.5902293560031746e-07,-1.2721834848033507e-06,,,,,0.005160651492105589,-0.1788280254953285
406,1644542223498305559,0.0392265990376,-9.66935634613,0.294199496508,acc,1.5909844997877958e-07,-1.1932383899530623e-06,,,,,0.0051608105150411894,-0.1788292976788133
407,1644542223499353409,,,,gyr,1.5909844997877958e-07,-1.1932383899530623e-06,0.0,0.0,0.00349065847695,-0.0,0.0051608105150411894,-0.1788292976788133
408,1644542223500319242,0.0686465501785,-9.67916297913,0.343232750893,acc,2.7835621601364845e-07,-1.3917810800702698e-06,,,,,0.005160969613491168,-0.17883049091720327
409,1644542223502335310,0.0392265990376,-9.71838951111,0.264779537916,acc,1.5943769567156158e-07,-1.076204423071259e-06,,,,,0.005161247969707182,-0.17883188269828335
410,1644542223504349232,0.0784531980753,-9.70858287811,0.402072638273,acc,3.181968999579648e-07,-1.6307591047288162e-06,,,,,0.0051614074074028534,-0.17883295890270642
411,1644542223504364967,,,,gyr,3.181968999579648e-07,-1.6307591047288162e-06,0.0,0.0,-0.00174532923847,-0.0,0.0051614074074028534,-0.17883295890270642
412,1644542223506363153,0.0392265990376,-9.67916297913,0.362846046686,acc,1.5909829198019726e-07,-1.4716592234818807e-06,,,,,0.005161725604302812,-0.17883458966181115
413,1644542223508376598,0.0686465501785,-9.70858287811,0.343232750893,acc,2.7829042128389853e-07,-1.3914521064215196e-06,,,,,0.005161884702594792,-0.17883606132103463
414,1644542223509376764,,,,gyr,2.7829042128389853e-07,-1.3914521064215196e-06,0.0,0.0,0.0,-0.0,0.005161884702594792,-0.17883606132103463
415,1644542223510390520,0.0686465501785,-9.71838951111,0.38245934248,acc,2.784222950177553e-07,-1.551209894850831e-06,,,,,0.005162162993016075,-0.17883745277314106
416,1644542223512406588,0.0686465501785,-9.71838951111,0.38245934248,acc,2.7901597499623306e-07,-1.554517540371571e-06,,,,,0.005162441415311093,-0.1788390039830359
417,1644542223514388084,,,,gyr,2.790023785481859e-07,-1.5545199806983608e-06,0.0,-0.00174532923847,0.00174532923847,8.74640331932948e-06,0.005162441415311093,-0.1788390039830359
418,1644542223514420271,0.0294199492782,-9.71838951111,0.402072638273,acc,1.1929551791166445e-07,-1.6303720705741994e-06,,,,,0.0051627204176896415,-0.1788405585030166
419,1644542223516434193,0.0686465501785,-9.70858287811,0.362846046686,acc,2.784222950177553e-07,-1.4716606849687898e-06,,,,,0.005162839713207554,-0.17884218887508718
420,1644542223518450022,0.00980664975941,-9.66935634613,0.402072638273,acc,3.984997400091397e-08,-1.6338489264678203e-06,,,,,0.005163118135502571,-0.17884366053577216
421,1644542223519399881,,,,gyr,3.982139067103918e-08,-1.6338496233720368e-06,0.0,-0.00349065847695,0.00349065847695,1.749447168280258e-05,0.005163118135502571,-0.17884366053577216
422,1644542223520463705,0.0294199492782,-9.70858287811,0.38245934248,acc,1.1929551791166445e-07,-1.5508417404075745e-06,,,,,0.005163157956893242,-0.17884529438539554
423,1644542223522477627,0.0294199492782,-9.66935634613,0.38245934248,acc,1.1932383748408468e-07,-1.551209894850831e-06,,,,,0.0051632772524111544,-0.17884684522713595
424,1644542223524411440,,,,gyr,1.193102693250851e-07,-1.551210938495674e-06,0.0,-0.00174532923847,0.00523598771542,8.746820453017475e-06,0.0051632772524111544,-0.17884684522713595
425,1644542223524491549,0.0686465501785,-9.66935634613,0.362846046686,acc,2.784222950177553e-07,-1.4716606849687898e-06,,,,,0.005163396562680479,-0.17884839643807446
426,1644542223526505232,0.0686465501785,-9.62032318115,0.294199496508,acc,2.7835621601364845e-07,-1.1929551942252736e-06,,,,,0.005163674984975497,-0.17884986809875944
427,1644542223528521061,0.0392265990376,-9.64974308014,0.274586200714,acc,1.5939989600349333e-07,-1.115799302301275e-06,,,,,0.005163953341191511,-0.17885106105395365
428,1644542223529422760,,,,gyr,1.5939989600349333e-07,-1.115799302301275e-06,-0.00523598771542,0.0,0.0,-0.0,0.005163953341191511,-0.17885106105395365
429,1644542223530534983,0.0392265990376,-9.64974308014,0.362846046686,acc,1.5909844997877958e-07,-1.4716606849687898e-06,,,,,0.0051641127410875145,-0.17885217685325597
430,1644542223532548666,0.00980664975941,-9.62032318115,0.362846046686,acc,3.9765172637262036e-08,-1.4713114102368949e-06,,,,,0.005164271839537493,-0.17885364851394095
431,1644542223534434557,,,,gyr,3.9765172637262036e-08,-1.4713114102368949e-06,-0.00349065847695,0.0,-0.00174532923847,-0.0,0.005164271839537493,-0.17885364851394095
432,1644542223534562588,0.0392265990376,-9.66935634613,0.313812792301,acc,1.5909844997877958e-07,-1.2727875998310479e-06,,,,,0.0051643116047101305,-0.17885511982535118
433,1644542223536576509,0.0686465501785,-9.64974308014,0.274586200714,acc,2.7842201852022867e-07,-1.1136880740809147e-06,,,,,0.005164470703160109,-0.17885639261295103
434,1644542223538592100,0.0294199492782,-9.64974308014,0.274586200714,acc,1.195216942097033e-07,-1.11553584289357e-06,,,,,0.005164749125178629,-0.17885750630102512
435,1644542223539446115,,,,gyr,1.195216942097033e-07,-1.11553584289357e-06,-0.00523598771542,0.0,0.00349065847695,-0.0,0.005164749125178629,-0.17885750630102512
436,1644542223540606022,0.0392265990376,-9.64974308014,0.264779537916,acc,1.5909844997877958e-07,-1.0739145146933057e-06,,,,,0.005164868646872839,-0.17885862183686801
437,1644542223542619944,0.00980664975941,-9.66935634613,0.264779537916,acc,3.977461249473545e-08,-1.0739145146933057e-06,,,,,0.005165027745322817,-0.17885969575138272
438,1644542223544457436,,,,gyr,3.977461249473545e-08,-1.0739145146933057e-06,-0.00349065847695,0.0,0.0,-0.0,0.005165027745322817,-0.17885969575138272
439,1644542223544633627,0.0392265990376,-9.61051654816,0.274586200714,acc,1.5906069054888596e-07,-1.1134248640545938e-06,,,,,0.0051650675199353124,-0.17886076966589742
440,1644542223546647549,0.0294199492782,-9.62032318115,0.274586200714,acc,1.1932383748408468e-07,-1.1136891800710211e-06,,,,,0.005165226580625861,-0.17886188309076148
441,1644542223548663378,0.0294199492782,-9.67916297913,0.245166242123,acc,1.1954992200262e-07,-9.962493424554722e-07,,,,,0.005165345904463345,-0.17886299677994155
442,1644542223549469233,,,,gyr,1.1954992200262e-07,-9.962493424554722e-07,-0.00523598771542,0.0,0.00523598771542,-0.0,0.005165345904463345,-0.17886299677994155
443,1644542223550677061,0.0294199492782,-9.66935634613,0.225552946329,acc,1.1929551791166445e-07,-9.145989782095978e-07,,,,,0.005165465454385348,-0.17886399302928402
444,1644542223552690983,0.0392265990376,-9.64974308014,0.245166242123,acc,1.5909844997877958e-07,-9.943653048153203e-07,,,,,0.00516558474990326,-0.17886490762826224
445,1644542223554480791,,,,gyr,1.5909844997877958e-07,-9.943653048153203e-07,-0.00523598771542,0.0,0.0,-0.0,0.00516558474990326,-0.17886490762826224
446,1644542223554704905,0.0784531980753,-9.61051654816,0.225552946329,acc,3.181968999579648e-07,-9.148160949332792e-07,,,,,0.005165743848353239,-0.17886590199356706
447,1644542223556718588,0.0,-9.64974308014,0.196132987738,acc,0.0,-7.953034225352816e-07,,,,,0.005166062045253197,-0.178866816809662
448,1644542223558734417,0.0294199492782,-9.57129001617,0.245166242123,acc,1.1954992200262e-07,-9.962493424554722e-07,,,,,0.005166062045253197,-0.17886761211308452
449,1644542223559492350,,,,gyr,1.1954992200262e-07,-9.962493424554722e-07,-0.00872664619237,0.0,0.0,-0.0,0.005166062045253197,-0.17886761211308452
450,1644542223560748339,0.0294199492782,-9.58109664917,0.245166242123,acc,1.1932383748408468e-07,-9.943653048153203e-07,,,,,0.0051661815951752,-0.178868608362427
451,1644542223562762022,0.0294199492782,-9.62032318115,0.176519691944,acc,1.1929551791166445e-07,-7.157730923646017e-07,,,,,0.005166300919012684,-0.1788696027277318
452,1644542223564502001,,,,gyr,1.1929551791166445e-07,-7.157730923646017e-07,-0.00349065847695,0.0,0.0,-0.0,0.005166300919012684,-0.1788696027277318
453,1644542223564775944,0.00980664975941,-9.57129001617,0.245166242123,acc,3.977461249473545e-08,-9.943653048153203e-07,,,,,0.005166420214530596,-0.17887031850082416
454,1644542223566791773,0.0294199492782,-9.62032318115,0.274586200714,acc,1.1954992200262e-07,-1.115799302301275e-06,,,,,0.005166459989143091,-0.17887131286612898
455,1644542223568803549,0.0,-9.58109664917,0.176519691944,acc,0.0,-7.144180300681581e-07,,,,,0.005166579539065094,-0.1788724286654313
456,1644542223569513321,,,,gyr,0.0,-7.144180300681581e-07,-0.00872664619237,0.0,0.00349065847695,-0.0,0.005166579539065094,-0.1788724286654313
457,1644542223570819378,0.0392265990376,-9.58109664917,0.196132987738,acc,1.5939989600349333e-07,-7.969994497438957e-07,,,,,0.005166579539065094,-0.17887314308346136
458,1644542223572833300,0.0392265990376,-9.61051654816,0.245166242123,acc,1.5909844997877958e-07,-9.943653048153203e-07,,,,,0.005166738938961098,-0.1788739400829111
459,1644542223574525118,,,,gyr,1.5909844997877958e-07,-9.943653048153203e-07,-0.00872664619237,0.0,0.00523598771542,-0.0,0.005166738938961098,-0.1788739400829111
460,1644542223574849129,0.0294199492782,-9.58109664917,0.264779537916,acc,1.1954992200262e-07,-1.0759492753171828e-06,,,,,0.0051668980374110765,-0.17887493444821592
461,1644542223576862812,0.00980664975941,-9.58109664917,0.245166242123,acc,3.9765172637262036e-08,-9.941293083802777e-07,,,,,0.005167017587333079,-0.17887601039749124
462,1644542223578876734,0.0294199492782,-9.61051654816,0.274586200714,acc,1.1932383748408468e-07,-1.1136891800710211e-06,,,,,0.0051670573525057165,-0.1788770045267996
463,1644542223579536676,,,,gyr,1.1932383748408468e-07,-1.1136891800710211e-06,-0.0069813169539,0.0,-0.00174532923847,-0.0,0.0051670573525057165,-0.1788770045267996
464,1644542223580892563,0.0294199492782,-9.64974308014,0.245166242123,acc,1.1954992200262e-07,-9.962493424554722e-07,,,,,0.005167176676343201,-0.17887811821597968
465,1644542223582906246,0.00980664975941,-9.64974308014,0.225552946329,acc,3.9765172637262036e-08,-9.145989782095978e-07,,,,,0.005167296226265204,-0.17887911446532215
466,1644542223584547997,,,,gyr,3.975717318260598e-08,-9.145993259769218e-07,-0.00349065847695,-0.00174532923847,0.0,8.74640506465872e-06,0.005167296226265204,-0.17887911446532215
467,1644542223584920168,0.0392265990376,-9.66935634613,0.264779537916,acc,1.5909844997877958e-07,-1.0739145146933057e-06,,,,,0.005167335983438387,-0.17888002906464812
468,1644542223586934090,0.0294199492782,-9.64974308014,0.343232750893,acc,1.1932383748408468e-07,-1.3921114750908047e-06,,,,,0.005167495081888365,-0.17888110297916282
469,1644542223588949680,0.0392265990376,-9.67916297913,0.264779537916,acc,1.5936210081675026e-07,-1.0756941578120511e-06,,,,,0.00516761440572585,-0.17888249509063792
470,1644542223589559793,,,,gyr,1.5936210081675026e-07,-1.0756941578120511e-06,-0.00174532923847,0.0,-0.00174532923847,-0.0,0.00516761440572585,-0.17888249509063792
471,1644542223590963602,0.0294199492782,-9.61051654816,0.225552946329,acc,1.1932383748408468e-07,-9.148160949332792e-07,,,,,0.0051677737678266665,-0.17888357078479572
472,1644542223592977524,0.00980664975941,-9.61051654816,0.245166242123,acc,3.977461249473545e-08,-9.943653048153203e-07,,,,,0.005167893091664151,-0.17888448560089065
473,1644542223594571352,,,,gyr,3.977461249473545e-08,-9.943653048153203e-07,-0.00349065847695,0.0,0.0,-0.0,0.005167893091664151,-0.17888448560089065
474,1644542223594991207,0.0392265990376,-9.62032318115,0.264779537916,acc,1.5906069054888596e-07,-1.0736596385469026e-06,,,,,0.005167932866276646,-0.17888547996619547
475,1644542223597007036,0.00980664975941,-9.62032318115,0.264779537916,acc,3.984997400091397e-08,-1.0759492753171828e-06,,,,,0.0051680919269671945,-0.17888655362583403
476,1644542223599020958,0.0392265990376,-9.67916297913,0.38245934248,acc,1.5909844997877958e-07,-1.551209894850831e-06,,,,,0.005168131776941196,-0.17888762957510934
477,1644542223599582672,,,,gyr,1.5909844997877958e-07,-1.551209894850831e-06,-0.00349065847695,0.0,-0.00174532923847,-0.0,0.005168131776941196,-0.17888762957510934
478,1644542223601032734,-0.00980664975941,-9.61051654816,0.362846046686,acc,-3.968989139698195e-08,-1.4685260043036362e-06,,,,,0.005168290875391174,-0.17888918078500418
479,1644542223603048563,0.00980664975941,-9.61051654816,0.274586200714,acc,3.984997400091397e-08,-1.115799302301275e-06,,,,,0.0051682511854997774,-0.17889064931100848
480,1644542223604594469,,,,gyr,3.984997400091397e-08,-1.115799302301275e-06,-0.00523598771542,0.0,0.00174532923847,-0.0,0.0051682511854997774,-0.17889064931100848
481,1644542223605062485,0.0294199492782,-9.62032318115,0.362846046686,acc,1.1932383748408468e-07,-1.4716606849687898e-06,,,,,0.005168291035473779,-0.1788917651103108
482,1644542223607076168,0.0,-9.67916297913,0.343232750893,acc,0.0,-1.3917810800702698e-06,,,,,0.005168410359311263,-0.17889323677099578
483,1644542223609091997,0.0294199492782,-9.67916297913,0.274586200714,acc,1.1954992200262e-07,-1.115799302301275e-06,,,,,0.005168410359311263,-0.17889462855207586
484,1644542223609606028,,,,gyr,1.195401623018881e-07,-1.115800347940295e-06,-0.00349065847695,-0.00174532923847,0.0,8.746820453017475e-06,0.005168410359311263,-0.17889462855207586
485,1644542223611103773,0.0,-9.62032318115,0.38245934248,acc,0.0,-1.5479057720223498e-06,,,,,0.005168529899473565,-0.1788957443524238
486,1644542223613119602,0.00980664975941,-9.67916297913,0.313812792301,acc,3.984997400091397e-08,-1.2751991680287593e-06,,,,,0.005168529899473565,-0.17889729225819584
487,1644542223614617586,,,,gyr,3.984997400091397e-08,-1.2751991680287593e-06,-0.00523598771542,0.0,0.0,-0.0,0.005168529899473565,-0.17889729225819584
488,1644542223615133524,0.0294199492782,-9.67916297913,0.313812792301,acc,1.1932383748408468e-07,-1.2727875998310479e-06,,,,,0.005168569749447566,-0.17889856745736388
489,1644542223617147446,0.0392265990376,-9.67916297913,0.294199496508,acc,1.5909844997877958e-07,-1.1932383899530623e-06,,,,,0.0051686890732850505,-0.17889984024496372
490,1644542223619161129,0.00980664975941,-9.67916297913,0.294199496508,acc,3.9765172637262036e-08,-1.1929551942252736e-06,,,,,0.005168848171735029,-0.17890103348335368
491,1644542223619629145,,,,gyr,3.9765172637262036e-08,-1.1929551942252736e-06,-0.00872664619237,0.0,0.00523598771542,-0.0,0.005168848171735029,-0.17890103348335368
492,1644542223621175051,0.00980664975941,-9.67916297913,0.313812792301,acc,3.977461249473545e-08,-1.2727875998310479e-06,,,,,0.0051688879369076665,-0.1789022264385479
493,1644542223623190880,0.0294199492782,-9.66935634613,0.294199496508,acc,1.1954992200262e-07,-1.195499235167049e-06,,,,,0.005168927711520162,-0.17890349922614773
494,1644542223624640703,,,,gyr,1.1954992200262e-07,-1.195499235167049e-06,-0.0139626339078,0.0,0.00349065847695,-0.0,0.005168927711520162,-0.17890349922614773
495,1644542223625204563,0.0686465501785,-9.64974308014,0.294199496508,acc,2.7835621601364845e-07,-1.1929551942252736e-06,,,,,0.005169047261442164,-0.1789046947253829
496,1644542223627218485,0.0294199492782,-9.66935634613,0.274586200714,acc,1.1932383748408468e-07,-1.1136891800710211e-06,,,,,0.005169325617658178,-0.1789058876805771
497,1644542223629232407,0.0686465501785,-9.70858287811,0.264779537916,acc,2.784222950177553e-07,-1.0739145146933057e-06,,,,,0.005169444941495662,-0.17890700136975718
498,1644542223629650354,,,,gyr,2.784410744976081e-07,-1.0739096457637996e-06,-0.0069813169539,0.00349065847695,0.00349065847695,-1.7486980729711046e-05,0.005169444941495662,-0.17890700136975718
499,1644542223631246090,0.0294199492782,-9.66935634613,0.274586200714,acc,1.1929551791166445e-07,-1.1134248640545938e-06,,,,,0.00516972338257016,-0.17890807527940294
500,1644542223633261919,0.0294199492782,-9.64974308014,0.362846046686,acc,1.1954992200262e-07,-1.474449060740336e-06,,,,,0.005169842678088072,-0.178909188704267
501,1644542223634661913,,,,gyr,1.1954992200262e-07,-1.474449060740336e-06,-0.00349065847695,0.0,0.0,-0.0,0.005169842678088072,-0.178909188704267
502,1644542223635275841,0.0294199492782,-9.66935634613,0.343232750893,acc,1.1932383748408468e-07,-1.3921114750908047e-06,,,,,0.0051699622280100745,-0.17891066315332774
503,1644542223637289524,0.0392265990376,-9.67916297913,0.294199496508,acc,1.5906069054888596e-07,-1.1929551942252736e-06,,,,,0.005170081551847559,-0.17891205526480283
504,1644542223639305353,0.0686465501785,-9.67916297913,0.274586200714,acc,2.7894982557531875e-07,-1.115799302301275e-06,,,,,0.0051702406125381075,-0.17891324821999705
505,1644542223639673233,,,,gyr,2.7894982557531875e-07,-1.115799302301275e-06,-0.00349065847695,0.0,0.0,-0.0,0.0051702406125381075,-0.17891324821999705
506,1644542223641319275,0.0392265990376,-9.62032318115,0.343232750893,acc,1.5909844997877958e-07,-1.3921114750908047e-06,,,,,0.005170519562363683,-0.17891436401929936
507,1644542223643332958,0.0686465501785,-9.62032318115,0.274586200714,acc,2.7835621601364845e-07,-1.1134248640545938e-06,,,,,0.005170678660813661,-0.17891575613077446
508,1644542223644685030,,,,gyr,2.783464766131219e-07,-1.1134272988594667e-06,-0.00174532923847,-0.00174532923847,0.0,8.74723584137623e-06,0.005170678660813661,-0.17891575613077446
509,1644542223645348787,0.0686465501785,-9.62032318115,0.274586200714,acc,2.7894982557531875e-07,-1.115799302301275e-06,,,,,0.005170957007290275,-0.17891686955807332
510,1644542223647362709,0.0392265990376,-9.61051654816,0.313812792301,acc,1.5909844997877958e-07,-1.2727875998310479e-06,,,,,0.00517123595711585,-0.17891798535737563
511,1644542223649376392,0.0392265990376,-9.66935634613,0.264779537916,acc,1.5906069054888596e-07,-1.0736596385469026e-06,,,,,0.0051713950555658285,-0.17891925814497547
512,1644542223649696589,,,,gyr,1.5906069054888596e-07,-1.0736596385469026e-06,0.00349065847695,0.0,0.0,-0.0,0.0051713950555658285,-0.17891925814497547
513,1644542223651392221,0.0686465501785,-9.62032318115,0.274586200714,acc,2.7894982557531875e-07,-1.115799302301275e-06,,,,,0.005171554116256377,-0.17892033180461403
514,1644542223653406143,0.0784531980753,-9.62032318115,0.274586200714,acc,3.181968999579648e-07,-1.1136891800710211e-06,,,,,0.005171833066081952,-0.17892144760391634
515,1644542223654707909,,,,gyr,3.1817741835979933e-07,-1.1136947460574712e-06,0.00174532923847,-0.00349065847695,0.00349065847695,1.7492806638709073e-05,0.005171833066081952,-0.17892144760391634
516,1644542223655420065,0.0686465501785,-9.62032318115,0.274586200714,acc,2.784222950177553e-07,-1.1136891800710211e-06,,,,,0.005172151243500312,-0.1789225612986624
517,1644542223657433748,0.0980664938688,-9.64974308014,0.274586200714,acc,3.9765171126682975e-07,-1.1134248640545938e-06,,,,,0.0051724296657953295,-0.17892367498784248
518,1644542223659447670,0.0686465501785,-9.64974308014,0.225552946329,acc,2.784222950177553e-07,-9.148160949332792e-07,,,,,0.005172827317506596,-0.17892478841270654
519,1644542223659719706,,,,gyr,2.784142928949699e-07,-9.148185303237591e-07,-0.00349065847695,-0.00174532923847,0.0,8.74723584137623e-06,0.005172827317506596,-0.17892478841270654
520,1644542223661463737,0.12748645246,-9.66935634613,0.245166242123,acc,5.181720196017698e-07,-9.964846018357185e-07,,,,,0.0051731057317994916,-0.17892570323123685
521,1644542223663477182,0.0980664938688,-9.64974308014,0.225552946329,acc,3.975577188018794e-07,-9.143827955302144e-07,,,,,0.005173623903819093,-0.1789266997158387
522,1644542223664731264,,,,gyr,3.9754972084612964e-07,-9.143862728605284e-07,0.0,-0.00174532923847,0.00174532923847,8.746818707688236e-06,0.005173623903819093,-0.1789266997158387
523,1644542223665491104,0.0686465501785,-9.58109664917,0.225552946329,acc,2.784222950177553e-07,-9.148160949332792e-07,,,,,0.005174021453539939,-0.17892761410211155
524,1644542223667505026,0.0392265990376,-9.64974308014,0.245166242123,acc,1.5909844997877958e-07,-9.943653048153203e-07,,,,,0.005174299875834957,-0.1789285289182065
525,1644542223669520855,0.0686465501785,-9.66935634613,0.264779537916,acc,2.7894982557531875e-07,-1.0759492753171828e-06,,,,,0.0051744589742849356,-0.1789295232835113
526,1644542223669742823,,,,gyr,2.7894982557531875e-07,-1.0759492753171828e-06,-0.00349065847695,0.0,0.0,-0.0,0.0051744589742849356,-0.1789295232835113
527,1644542223671534777,0.0686465501785,-9.58109664917,0.225552946329,acc,2.784222950177553e-07,-9.148160949332792e-07,,,,,0.005174737924110511,-0.17893059923278662
528,1644542223673548698,0.0784531980753,-9.66935634613,0.225552946329,acc,3.181965839608001e-07,-9.148151864414233e-07,,,,,0.0051750163464055286,-0.17893151404888155
529,1644542223674754381,,,,gyr,3.181965839608001e-07,-9.148151864414233e-07,0.0,0.0,0.00349065847695,-0.0,0.0051750163464055286,-0.17893151404888155
530,1644542223675562143,0.0294199492782,-9.62032318115,0.274586200714,acc,1.192673201711082e-07,-1.1131616851355941e-06,,,,,0.0051753345429894895,-0.178932428864068
531,1644542223677578211,0.0686465501785,-9.58109664917,0.196132987738,acc,2.7901597499623306e-07,-7.971884480770581e-07,,,,,0.0051754538103096605,-0.17893354202575312
532,1644542223679592133,0.0392265990376,-9.58109664917,0.274586200714,acc,1.5909844997877958e-07,-1.1136891800710211e-06,,,,,0.005175732826284657,-0.1789343392142012
533,1644542223679765940,,,,gyr,1.5909844997877958e-07,-1.1136891800710211e-06,-0.00523598771542,0.0,0.0,-0.0,0.005175732826284657,-0.1789343392142012
534,1644542223681605816,0.0392265990376,-9.58109664917,0.264779537916,acc,1.5906069054888596e-07,-1.0736596385469026e-06,,,,,0.005175891924734635,-0.17893545290338128
535,1644542223683619738,0.0392265990376,-9.61051654816,0.245166242123,acc,1.5909844997877958e-07,-9.943653048153203e-07,,,,,0.005176050985425184,-0.17893652656301984
536,1644542223684777498,,,,gyr,1.5908105488833528e-07,-9.94368087873766e-07,0.0,-0.00349065847695,0.0,1.749363741542659e-05,0.005176050985425184,-0.17893652656301984
537,1644542223685635567,0.0294199492782,-9.58109664917,0.274586200714,acc,1.1954992200262e-07,-1.115799302301275e-06,,,,,0.005176210066480072,-0.1789375209311077
538,1644542223687649488,0.0392265990376,-9.58109664917,0.225552946329,acc,1.5909829198019726e-07,-9.148151864414233e-07,,,,,0.005176329616402075,-0.17893863673041002
539,1644542223689663172,0.0294199492782,-9.61051654816,0.245166242123,acc,1.192956363965973e-07,-9.941302957547106e-07,,,,,0.005176488714694055,-0.17893955154559646
540,1644542223689789057,,,,gyr,1.192956363965973e-07,-9.941302957547106e-07,-0.00174532923847,0.0,0.00174532923847,-0.0,0.005176488714694055,-0.17893955154559646
541,1644542223691677094,0.0392265990376,-9.61051654816,0.196132987738,acc,1.5909844997877958e-07,-7.954922196775783e-07,,,,,0.005176608010330451,-0.1789405456758922
542,1644542223693692923,0.0294199492782,-9.61051654816,0.245166242123,acc,1.1954992200262e-07,-9.962493424554722e-07,,,,,0.00517676710878043,-0.1789413411681119
543,1644542223694800854,,,,gyr,1.1954992200262e-07,-9.962493424554722e-07,0.00174532923847,0.0,0.0,-0.0,0.00517676710878043,-0.1789413411681119
544,1644542223695706606,0.0294199492782,-9.64974308014,0.274586200714,acc,1.1929551791166445e-07,-1.1134248640545938e-06,,,,,0.005176886658702432,-0.17894233741745436
545,1644542223697720528,0.0294199492782,-9.62032318115,0.274586200714,acc,1.1932383748408468e-07,-1.1136891800710211e-06,,,,,0.005177005954220344,-0.1789434508423184
546,1644542223699734449,0.0,-9.67916297913,0.225552946329,acc,0.0,-9.148151864414233e-07,,,,,0.005177125278057829,-0.17894456453149848
547,1644542223699812174,,,,gyr,-2.4004027747084248e-11,-9.148151861265e-07,0.00174532923847,-0.00523598771542,0.00174532923847,2.6239209958038555e-05,0.005177125278057829,-0.17894456453149848
548,1644542223701750040,0.00980664975941,-9.62032318115,0.225552946329,acc,3.984056473660839e-08,-9.163329965088831e-07,,,,,0.005177125254053801,-0.17894547934668462
549,1644542223703763962,0.00980664975941,-9.66935634613,0.245166242123,acc,3.977461249473545e-08,-9.943653048153203e-07,,,,,0.005177165094618538,-0.17894639567968113
550,1644542223704821825,,,,gyr,3.977461249473545e-08,-9.943653048153203e-07,0.0,0.0,0.0,-0.0,0.005177165094618538,-0.17894639567968113
551,1644542223705777884,0.0294199492782,-9.66935634613,0.294199496508,acc,1.1932383748408468e-07,-1.1932383899530623e-06,,,,,0.005177204869231033,-0.17894739004498594
552,1644542223707791567,0.0,-9.64974308014,0.313812792301,acc,0.0,-1.2724855243918985e-06,,,,,0.005177324193068517,-0.1789485832833759
553,1644542223709805489,0.00980664975941,-9.61051654816,0.245166242123,acc,3.977461249473545e-08,-9.943653048153203e-07,,,,,0.005177324193068517,-0.1789498557689003
554,1644542223709833384,,,,gyr,3.977461249473545e-08,-9.943653048153203e-07,-0.00349065847695,0.0,0.00174532923847,-0.0,0.005177324193068517,-0.1789498557689003
555,1644542223711821318,0.0392265990376,-9.66935634613,0.245166242123,acc,1.5939989600349333e-07,-9.962493424554722e-07,,,,,0.0051773639676810125,-0.17895085013420511
556,1644542223713833094,0.00980664975941,-9.66935634613,0.313812792301,acc,3.968989139698195e-08,-1.2700765247029366e-06,,,,,0.005177523367577016,-0.17895184638354758
557,1644542223714844942,,,,gyr,3.967878226635735e-08,-1.2700768718146365e-06,-0.00349065847695,-0.00174532923847,0.00174532923847,8.746818707688236e-06,0.005177523367577016,-0.17895184638354758
558,1644542223715848923,0.00980664975941,-9.62032318115,0.264779537916,acc,3.984997400091397e-08,-1.0759492753171828e-06,,,,,0.005177563046359282,-0.1789531164604194
559,1644542223717860699,0.0,-9.62032318115,0.294199496508,acc,0.0,-1.1906967569882706e-06,,,,,0.0051776028963332835,-0.1789541924096947
560,1644542223719856501,,,,gyr,-3.12444322385738e-11,-1.1906967565783363e-06,-0.00349065847695,-0.00523598771542,0.0,2.624046135910254e-05,0.0051776028963332835,-0.1789541924096947
561,1644542223719874620,-0.00980664975941,-9.64974308014,0.274586200714,acc,-3.977457299508987e-08,-1.1136880740809147e-06,,,,,0.005177602865088851,-0.1789553831064513
562,1644542223721888542,-0.00980664975941,-9.66935634613,0.343232750893,acc,-3.977461249473545e-08,-1.3921114750908047e-06,,,,,0.005177563090515856,-0.17895649679452538
563,1644542223723904371,0.00980664975941,-9.62032318115,0.274586200714,acc,3.984997400091397e-08,-1.115799302301275e-06,,,,,0.005177523315903361,-0.17895788890600048
564,1644542223724868059,,,,gyr,3.984997400091397e-08,-1.115799302301275e-06,0.0,0.0,0.0,-0.0,0.005177523315903361,-0.17895788890600048
565,1644542223725918055,-0.00980664975941,-9.62032318115,0.343232750893,acc,-3.976521213223966e-08,-1.3917824623945239e-06,,,,,0.005177563165877362,-0.1789590047053028
566,1644542223727931976,-0.00980664975941,-9.66935634613,0.38245934248,acc,-3.977457299508987e-08,-1.5512083543646459e-06,,,,,0.005177523400665229,-0.17896039648776518
567,1644542223729879618,,,,gyr,-3.977457299508987e-08,-1.5512083543646459e-06,0.0,0.0,0.00174532923847,-0.0,0.005177523400665229,-0.17896039648776518
568,1644542223729945898,-0.0294199492782,-9.66935634613,0.362846046686,acc,-1.1932383748408468e-07,-1.4716606849687898e-06,,,,,0.005177483626092234,-0.17896194769611956
569,1644542223731961489,0.0,-9.66935634613,0.313812792301,acc,0.0,-1.2748980715709808e-06,,,,,0.005177364302254749,-0.17896341935680454
570,1644542223733975410,0.0,-9.66935634613,0.294199496508,acc,0.0,-1.19323720496368e-06,,,,,0.005177364302254749,-0.1789646942548761
571,1644542223734891415,,,,gyr,-1.0437527246388793e-11,-1.1932372049180301e-06,-0.00523598771542,-0.00174532923847,0.00174532923847,8.74723584137623e-06,0.005177364302254749,-0.1789646942548761
572,1644542223735991240,0.00980664975941,-9.67916297913,0.313812792301,acc,3.9850013537981744e-08,-1.2752004332149283e-06,,,,,0.005177364291817222,-0.178965887492081
573,1644542223738004923,0.0,-9.67916297913,0.362846046686,acc,0.0,-1.4713114102368949e-06,,,,,0.00517740414183076,-0.17896716269251423
574,1644542223739902735,,,,gyr,0.0,-1.4713114102368949e-06,0.0,0.0,0.0,-0.0,0.00517740414183076,-0.17896716269251423
575,1644542223740020752,0.00980664975941,-9.67916297913,0.313812792301,acc,3.984997400091397e-08,-1.2751991680287593e-06,,,,,0.00517740414183076,-0.17896863400392446
576,1644542223742034674,0.0294199492782,-9.67916297913,0.294199496508,acc,1.1932383748408468e-07,-1.1932383899530623e-06,,,,,0.005177443991804761,-0.1789699092030925
577,1644542223744048595,0.00980664975941,-9.66935634613,0.343232750893,acc,3.977457299508987e-08,-1.3921100926031715e-06,,,,,0.0051775633156422455,-0.17897110244148245
578,1644542223744914293,,,,gyr,3.977457299508987e-08,-1.3921100926031715e-06,-0.00523598771542,0.0,0.00349065847695,-0.0,0.0051775633156422455,-0.17897110244148245
579,1644542223746062279,0.00980664975941,-9.67916297913,0.313812792301,acc,3.976521213223966e-08,-1.2724867882311824e-06,,,,,0.005177603090215241,-0.17897249455157505
580,1644542223748076200,0.0,-9.66935634613,0.294199496508,acc,0.0,-1.19323720496368e-06,,,,,0.0051776428554273736,-0.17897376703836326
581,1644542223749926090,,,,gyr,-1.0437527246388793e-11,-1.1932372049180301e-06,-0.00174532923847,-0.00174532923847,0.0,8.74723584137623e-06,0.0051776428554273736,-0.17897376703836326
582,1644542223750092030,0.00980664975941,-9.67916297913,0.313812792301,acc,3.9850013537981744e-08,-1.2752004332149283e-06,,,,,0.005177642844989846,-0.17897496027556817
583,1644542223752105713,0.00980664975941,-9.62032318115,0.294199496508,acc,3.9765172637262036e-08,-1.1929551942252736e-06,,,,,0.005177682695003384,-0.1789762354760014
584,1644542223754119635,0.0392265990376,-9.64974308014,0.274586200714,acc,1.5909844997877958e-07,-1.1136891800710211e-06,,,,,0.0051777224601760215,-0.1789774284311956
585,1644542223754937410,,,,gyr,1.5909844997877958e-07,-1.1136891800710211e-06,-0.00174532923847,0.0,0.0,-0.0,0.0051777224601760215,-0.1789774284311956
586,1644542223756135464,0.0392265990376,-9.64974308014,0.274586200714,acc,1.5939989600349333e-07,-1.115799302301275e-06,,,,,0.005177881558626,-0.17897854212037567
587,1644542223758149147,0.0294199492782,-9.66935634613,0.274586200714,acc,1.1929551791166445e-07,-1.1134248640545938e-06,,,,,0.005178040958522004,-0.178979657919678
588,1644542223759949207,,,,gyr,1.1929551791166445e-07,-1.1134248640545938e-06,-0.00174532923847,0.0,0.00523598771542,-0.0,0.005178040958522004,-0.178979657919678
589,1644542223760163069,0.0392265990376,-9.64974308014,0.245166242123,acc,1.5909844997877958e-07,-9.943653048153203e-07,,,,,0.005178160254039916,-0.17898077134454204
590,1644542223762178898,0.0686465501785,-9.62032318115,0.245166242123,acc,2.7894982557531875e-07,-9.962493424554722e-07,,,,,0.005178319352489895,-0.17898176570984686
591,1644542223764192820,0.0294199492782,-9.62032318115,0.274586200714,acc,1.1932383748408468e-07,-1.1136891800710211e-06,,,,,0.00517859830231547,-0.17898276195918933
592,1644542223764960766,,,,gyr,1.1932383748408468e-07,-1.1136891800710211e-06,-0.00523598771542,0.0,-0.00174532923847,-0.0,0.00517859830231547,-0.17898276195918933
593,1644542223766206503,0.0294199492782,-9.62032318115,0.274586200714,acc,1.1929551791166445e-07,-1.1134248640545938e-06,,,,,0.005178717626152954,-0.1789838756483694
594,1644542223768222332,0.0686465501785,-9.61051654816,0.274586200714,acc,2.7894982557531875e-07,-1.115799302301275e-06,,,,,0.005178836921670866,-0.17898498907323346
595,1644542223769970179,,,,gyr,2.789400700476985e-07,-1.115801741137868e-06,-0.00174532923847,-0.00174532923847,0.00174532923847,8.743074976471718e-06,0.005178836921670866,-0.17898498907323346
596,1644542223770236254,0.0392265990376,-9.62032318115,0.274586200714,acc,1.5909844997877958e-07,-1.1136891800710211e-06,,,,,0.0051791158617409145,-0.1789861048749746
597,1644542223772249937,0.00980664975941,-9.61051654816,0.245166242123,acc,3.9765172637262036e-08,-9.941293083802777e-07,,,,,0.005179274960190893,-0.17898721856415467
598,1644542223774263859,0.0980664938688,-9.58109664917,0.264779537916,acc,3.9774610983797795e-07,-1.0739145146933057e-06,,,,,0.0051793147253635305,-0.17898821269346304
599,1644542223774983883,,,,gyr,3.9774610983797795e-07,-1.0739145146933057e-06,-0.00174532923847,0.0,0.0,-0.0,0.0051793147253635305,-0.17898821269346304
600,1644542223776279688,0.0392265990376,-9.62032318115,0.225552946329,acc,1.5939989600349333e-07,-9.165494095896984e-07,,,,,0.0051797124714733685,-0.17898928660797775
601,1644542223778293371,0.0294199492782,-9.62032318115,0.176519691944,acc,1.1929551791166445e-07,-7.157730923646017e-07,,,,,0.0051798718713693724,-0.17899020315738734
602,1644542223779993296,,,,gyr,1.1928300177780145e-07,-7.157751782744872e-07,-0.00174532923847,-0.00349065847695,0.00174532923847,1.748614995299353e-05,0.0051798718713693724,-0.17899020315738734
603,1644542223780307293,0.0392265990376,-9.64974308014,0.245166242123,acc,1.5909844997877958e-07,-9.943653048153203e-07,,,,,0.0051799911543711505,-0.1789909189325656
604,1644542223782323360,0.0784531980753,-9.62032318115,0.196132987738,acc,3.188750750096437e-07,-7.971876572423734e-07,,,,,0.005180150252821129,-0.17899191329787043
605,1644542223784337044,0.0686465501785,-9.62032318115,0.176519691944,acc,2.783564924784993e-07,-7.157738032741839e-07,,,,,0.005180469127896139,-0.17899271048552767
606,1644542223785004854,,,,gyr,2.783502317241583e-07,-7.157762379805789e-07,0.0,-0.00174532923847,0.0,8.746818707688236e-06,0.005180469127896139,-0.17899271048552767
607,1644542223786350727,0.0686465501785,-9.61051654816,0.294199496508,acc,2.7835621601364845e-07,-1.1929551942252736e-06,,,,,0.005180747478127863,-0.17899342626176565
608,1644542223788364649,0.0294199492782,-9.58109664917,0.225552946329,acc,1.1932383748408468e-07,-9.148160949332792e-07,,,,,0.005181025834343877,-0.17899461921695986
609,1644542223790016651,,,,gyr,1.1933984169009173e-07,-9.148140072857906e-07,0.0,0.00349065847695,-0.00349065847695,-1.749447168280258e-05,0.005181025834343877,-0.17899461921695986
610,1644542223790380716,0.0392265990376,-9.57129001617,0.225552946329,acc,1.5943753750461862e-07,-9.167658482229563e-07,,,,,0.005181145174185567,-0.17899553403096716
611,1644542223792394400,0.0294199492782,-9.62032318115,0.245166242123,acc,1.192956363965973e-07,-9.941302957547106e-07,,,,,0.005181304611723072,-0.1789964507968154
612,1644542223794408321,0.0686465501785,-9.61051654816,0.196132987738,acc,2.7842201852022867e-07,-7.954914296846966e-07,,,,,0.005181423907359468,-0.17899744492711114
613,1644542223795027971,,,,gyr,2.7842201852022867e-07,-7.954914296846966e-07,0.0,0.0,0.0,-0.0,0.005181423907359468,-0.17899744492711114
614,1644542223796422005,0.0294199492782,-9.61051654816,0.264779537916,acc,1.192956363965973e-07,-1.0736607049112757e-06,,,,,0.005181702329377988,-0.17899824041854082
615,1644542223798437834,0.0392265990376,-9.61051654816,0.264779537916,acc,1.5939989600349333e-07,-1.0759492753171828e-06,,,,,0.0051818216250143845,-0.1789993140792457
616,1644542223800039768,,,,gyr,1.5939989600349333e-07,-1.0759492753171828e-06,0.0,0.0,0.00174532923847,-0.0,0.0051818216250143845,-0.1789993140792457
617,1644542223800451756,0.0294199492782,-9.61051654816,0.245166242123,acc,1.1932383748408468e-07,-9.943653048153203e-07,,,,,0.005181981024910388,-0.17900039002852103
618,1644542223802467585,0.0392265990376,-9.58109664917,0.225552946329,acc,1.5939989600349333e-07,-9.165494095896984e-07,,,,,0.005182100348747873,-0.17900138439382585
619,1644542223804481506,0.0686465501785,-9.61051654816,0.274586200714,acc,2.7842201852022867e-07,-1.1136880740809147e-06,,,,,0.005182259748643877,-0.17900230094323544
620,1644542223805051327,,,,gyr,2.7842201852022867e-07,-1.1136880740809147e-06,-0.00174532923847,0.0,0.0,-0.0,0.005182259748643877,-0.17900230094323544
621,1644542223806495190,0.0686465501785,-9.62032318115,0.313812792301,acc,2.783564924784993e-07,-1.2724867882311824e-06,,,,,0.005182538170662397,-0.17900341463130953
622,1644542223808509111,0.0686465501785,-9.62032318115,0.264779537916,acc,2.7842201852022867e-07,-1.0739134482028975e-06,,,,,0.005182816527154875,-0.17900468711809775
623,1644542223810062647,,,,gyr,2.7842201852022867e-07,-1.0739134482028975e-06,-0.00349065847695,0.0,0.0,-0.0,0.005182816527154875,-0.17900468711809775
624,1644542223810524940,0.0392265990376,-9.62032318115,0.313812792301,acc,1.5939989600349333e-07,-1.2751991680287593e-06,,,,,0.005183094949173395,-0.17900576103154595
625,1644542223812538624,0.0686465501785,-9.62032318115,0.274586200714,acc,2.783564924784993e-07,-1.1134259699139971e-06,,,,,0.005183254349069399,-0.17900703623071398
626,1644542223814554453,0.0686465501785,-9.66935634613,0.274586200714,acc,2.7894982557531875e-07,-1.115799302301275e-06,,,,,0.005183532705561877,-0.1790081496566839
627,1644542223815074444,,,,gyr,2.789303052133347e-07,-1.1158041822103504e-06,-0.00349065847695,-0.00349065847695,0.0,1.749447168280258e-05,0.005183532705561877,-0.1790081496566839
628,1644542223816568375,0.0294199492782,-9.61051654816,0.294199496508,acc,1.1932383748408468e-07,-1.1932383899530623e-06,,,,,0.005183811635867091,-0.17900926546086612
629,1644542223818582058,0.0686465501785,-9.64974308014,0.294199496508,acc,2.7835621601364845e-07,-1.1929551942252736e-06,,,,,0.005183930959704575,-0.17901045869925608
630,1644542223820086002,,,,gyr,2.783353468454366e-07,-1.19296006350545e-06,-0.00349065847695,-0.00349065847695,0.00349065847695,1.749363741542659e-05,0.005183930959704575,-0.17901045869925608
631,1644542223820595980,0.0294199492782,-9.62032318115,0.264779537916,acc,1.1932383748408468e-07,-1.0739145146933057e-06,,,,,0.00518420929505142,-0.1790116516593196
632,1644542223822611809,0.0392265990376,-9.67916297913,0.274586200714,acc,1.5939989600349333e-07,-1.115799302301275e-06,,,,,0.005184328618888905,-0.1790127255738343
633,1644542223824625731,0.0294199492782,-9.67916297913,0.245166242123,acc,1.1932383748408468e-07,-9.943653048153203e-07,,,,,0.005184488018784909,-0.1790138413731366
634,1644542223825097561,,,,gyr,1.1931513994473431e-07,-9.943663484814646e-07,-0.00523598771542,-0.00174532923847,0.0,8.746820453017475e-06,0.005184488018784909,-0.1790138413731366
635,1644542223826639414,0.00980664975941,-9.67916297913,0.245166242123,acc,3.9765172637262036e-08,-9.941293083802777e-07,,,,,0.005184607333924853,-0.1790148357394851
636,1644542223828653336,0.00980664975941,-9.67916297913,0.294199496508,acc,3.977461249473545e-08,-1.1932383899530623e-06,,,,,0.00518464709909749,-0.17901582986879347
637,1644542223830109119,,,,gyr,3.9764175453342096e-08,-1.1932387378087416e-06,0.0,-0.00174532923847,0.0,8.746818707688236e-06,0.00518464709909749,-0.17901582986879347
638,1644542223830667019,0.00980664975941,-9.67916297913,0.313812792301,acc,3.9765172637262036e-08,-1.2724855243918985e-06,,,,,0.0051846868632729436,-0.1790170231075313
639,1644542223832680941,0.0392265990376,-9.64974308014,0.274586200714,acc,1.5909844997877958e-07,-1.1136891800710211e-06,,,,,0.005184726628445581,-0.17901829559305568
640,1644542223834696770,0.0392265990376,-9.67916297913,0.313812792301,acc,1.5939989600349333e-07,-1.2751991680287593e-06,,,,,0.0051848857268955596,-0.17901940928223575
641,1644542223835120678,,,,gyr,1.5939989600349333e-07,-1.2751991680287593e-06,-0.00174532923847,0.0,0.0,-0.0,0.0051848857268955596,-0.17901940928223575
642,1644542223836710691,0.0294199492782,-9.66935634613,0.313812792301,acc,1.1932371898514792e-07,-1.2727863358423893e-06,,,,,0.0051850451267915635,-0.1790206844814038
643,1644542223838724375,0.0294199492782,-9.70858287811,0.294199496508,acc,1.192956363965973e-07,-1.1929563790746171e-06,,,,,0.005185164450510549,-0.17902195726773965
644,1644542223840132236,,,,gyr,1.192956363965973e-07,-1.1929563790746171e-06,0.00174532923847,0.0,0.00174532923847,-0.0,0.005185164450510549,-0.17902195726773965
645,1644542223840738297,0.00980664975941,-9.62032318115,0.264779537916,acc,3.977461249473545e-08,-1.0739145146933057e-06,,,,,0.005185283746146945,-0.17902315022411872
646,1644542223842754126,0.0392265990376,-9.61051654816,0.294199496508,acc,1.5939989600349333e-07,-1.195499235167049e-06,,,,,0.00518532352075944,-0.17902422413863342
647,1644542223844767809,0.00980664975941,-9.66935634613,0.343232750893,acc,3.9765172637262036e-08,-1.3917810800702698e-06,,,,,0.005185482920655444,-0.17902541963786858
648,1644542223845141888,,,,gyr,3.9765172637262036e-08,-1.3917810800702698e-06,-0.00174532923847,0.0,0.0,-0.0,0.005185482920655444,-0.17902541963786858
649,1644542223846781731,0.0294199492782,-9.66935634613,0.264779537916,acc,1.1932383748408468e-07,-1.0739145146933057e-06,,,,,0.0051855226858280815,-0.17902681141894866
650,1644542223848795652,0.00980664975941,-9.64974308014,0.313812792301,acc,3.977457299508987e-08,-1.2727863358423893e-06,,,,,0.005185642009665566,-0.17902788533346337
651,1644542223850153446,,,,gyr,3.9752307326338415e-08,-1.2727870314495938e-06,-0.00349065847695,-0.00349065847695,0.00174532923847,1.749363741542659e-05,0.005185642009665566,-0.17902788533346337
652,1644542223850811243,0.00980664975941,-9.66935634613,0.313812792301,acc,3.984056473660839e-08,-1.2748980715709808e-06,,,,,0.005185681761972892,-0.1790291581204948
653,1644542223852825165,0.0,-9.64974308014,0.274586200714,acc,0.0,-1.1136891800710211e-06,,,,,0.005185721602537629,-0.17903043301856636
654,1644542223854839087,0.0294199492782,-9.67916297913,0.294199496508,acc,1.1932383748408468e-07,-1.1932383899530623e-06,,,,,0.005185721602537629,-0.17903154670774643
655,1644542223855165005,,,,gyr,1.193134004375657e-07,-1.1932394336115992e-06,-0.00349065847695,-0.00174532923847,0.00523598771542,8.746820453017475e-06,0.005185721602537629,-0.17903154670774643
656,1644542223856852770,0.0,-9.62032318115,0.274586200714,acc,0.0,-1.1134248640545938e-06,,,,,0.005185840915938066,-0.17903273994718005
657,1644542223858866692,-0.00980664975941,-9.67916297913,0.264779537916,acc,-3.977461249473545e-08,-1.0739145146933057e-06,,,,,0.005185840915938066,-0.1790338533720441
658,1644542223860176563,,,,gyr,-3.978400582878139e-08,-1.0739141667509001e-06,-0.00349065847695,-0.00174532923847,-0.00174532923847,8.746818707688236e-06,0.005185840915938066,-0.1790338533720441
659,1644542223860882521,0.00980664975941,-9.66935634613,0.196132987738,acc,3.984997400091397e-08,-7.969994497438957e-07,,,,,0.005185801131932238,-0.17903492728621087
660,1644542223862894297,-0.00980664975941,-9.66935634613,0.264779537916,acc,-3.968989139698195e-08,-1.0716270451022373e-06,,,,,0.005185840981906239,-0.1790357242856606
661,1644542223864910126,0.0,-9.66935634613,0.264779537916,acc,0.0,-1.0759492753171828e-06,,,,,0.005185801292014842,-0.17903679591270572
662,1644542223865188122,,,,gyr,0.0,-1.0759492753171828e-06,0.0,0.0,0.0,-0.0,0.005185801292014842,-0.17903679591270572
663,1644542223866925955,0.0294199492782,-9.66935634613,0.245166242123,acc,1.1954992200262e-07,-9.962493424554722e-07,,,,,0.005185801292014842,-0.17903787186198103
664,1644542223868937731,0.0,-9.61051654816,0.245166242123,acc,0.0,-9.922472773875712e-07,,,,,0.005185920841936845,-0.1790388681113235
665,1644542223870199680,,,,gyr,-8.679007048395659e-12,-9.922472773496144e-07,0.0,-0.00174532923847,0.00349065847695,8.746818707688236e-06,0.005185920841936845,-0.1790388681113235
666,1644542223870953560,0.00980664975941,-9.62032318115,0.313812792301,acc,3.984997400091397e-08,-1.2751991680287593e-06,,,,,0.005185920833257838,-0.17903986035860084
667,1644542223872969389,0.0294199492782,-9.64974308014,0.274586200714,acc,1.1954992200262e-07,-1.115799302301275e-06,,,,,0.005185960683231839,-0.17904113555776888
668,1644542223874983311,0.00980664975941,-9.62032318115,0.245166242123,acc,3.977461249473545e-08,-9.943653048153203e-07,,,,,0.005186080233153842,-0.1790422513570712
669,1644542223875211477,,,,gyr,3.97659145453802e-08,-9.943656526951948e-07,0.0,-0.00174532923847,0.0,8.74723584137623e-06,0.005186080233153842,-0.1790422513570712
670,1644542223876999378,0.0294199492782,-9.64974308014,0.264779537916,acc,1.1957815312846397e-07,-1.0762033554444165e-06,,,,,0.005186119999068387,-0.1790432457227239
671,1644542223879012823,0.00980664975941,-9.61051654816,0.245166242123,acc,3.975577339040995e-08,-9.938943272107602e-07,,,,,0.005186239577221516,-0.17904432192607933
672,1644542223880222797,,,,gyr,3.975577339040995e-08,-9.938943272107602e-07,0.00174532923847,0.0,0.00174532923847,-0.0,0.005186239577221516,-0.17904432192607933
673,1644542223881026745,0.0294199492782,-9.67916297913,0.245166242123,acc,1.1932383748408468e-07,-9.943653048153203e-07,,,,,0.005186279332994906,-0.17904531582040653
674,1644542223883040667,0.0,-9.62032318115,0.294199496508,acc,0.0,-1.1932383899530623e-06,,,,,0.005186398656832391,-0.17904631018571135
675,1644542223885056496,0.0294199492782,-9.62032318115,0.225552946329,acc,1.1954992200262e-07,-9.165494095896984e-07,,,,,0.005186398656832391,-0.1790475034241013
676,1644542223885234356,,,,gyr,1.1953388819808398e-07,-9.165515008128596e-07,0.0,-0.00349065847695,0.0,1.7493640906085063e-05,0.005186398656832391,-0.1790475034241013
677,1644542223887070417,0.0294199492782,-9.61051654816,0.264779537916,acc,1.1932371898514792e-07,-1.0739134482028975e-06,,,,,0.005186518190720589,-0.1790484199756021
678,1644542223889086246,0.0392265990376,-9.61051654816,0.225552946329,acc,1.5939989600349333e-07,-9.165494095896984e-07,,,,,0.005186637514439574,-0.1790494938890503
679,1644542223890246153,,,,gyr,1.5939989600349333e-07,-9.165494095896984e-07,0.0,0.0,0.00174532923847,-0.0,0.005186637514439574,-0.1790494938890503
680,1644542223891100168,0.00980664975941,-9.61051654816,0.225552946329,acc,3.977461249473545e-08,-9.148160949332792e-07,,,,,0.005186796914335578,-0.1790504104384599
681,1644542223893113852,0.0,-9.61051654816,0.264779537916,acc,0.0,-1.0736607049112757e-06,,,,,0.005186836688948073,-0.17905132525455483
682,1644542223895127773,0.0392265990376,-9.64974308014,0.176519691944,acc,1.5909829198019726e-07,-7.159422988019315e-07,,,,,0.005186836688948073,-0.17905239891525973
683,1644542223895257473,,,,gyr,1.5909829198019726e-07,-7.159422988019315e-07,0.0,0.0,0.0,-0.0,0.005186836688948073,-0.17905239891525973
684,1644542223897143602,0.0392265990376,-9.66935634613,0.264779537916,acc,1.5939989600349333e-07,-1.0759492753171828e-06,,,,,0.005186995787240053,-0.17905311485755854
685,1644542223899157286,0.0294199492782,-9.64974308014,0.245166242123,acc,1.192956363965973e-07,-9.941302957547106e-07,,,,,0.005187155187136057,-0.17905419080683385
686,1644542223900269270,,,,gyr,1.192782445940345e-07,-9.941323826167133e-07,0.00174532923847,-0.00349065847695,0.00174532923847,1.749447168280258e-05,0.005187155187136057,-0.17905419080683385
687,1644542223901171207,0.0686465501785,-9.64974308014,0.245166242123,acc,2.7842201852022867e-07,-9.943643173241883e-07,,,,,0.005187274465380651,-0.17905518493921646
688,1644542223903185129,0.0294199492782,-9.62032318115,0.245166242123,acc,1.1932383748408468e-07,-9.943653048153203e-07,,,,,0.005187552887399171,-0.1790561793035338
689,1644542223905200958,0.0784531980753,-9.62032318115,0.274586200714,acc,3.18799792007393e-07,-1.115799302301275e-06,,,,,0.005187672211236656,-0.1790571736688386
690,1644542223905280828,,,,gyr,3.18799792007393e-07,-1.115799302301275e-06,0.0,0.0,0.0,-0.0,0.005187672211236656,-0.1790571736688386
691,1644542223907214642,0.0392265990376,-9.61051654816,0.313812792301,acc,1.5906084852879645e-07,-1.2724867882311824e-06,,,,,0.0051879910110286635,-0.17905828946814092
692,1644542223909228563,0.0686465501785,-9.64974308014,0.245166242123,acc,2.7842201852022867e-07,-9.943643173241883e-07,,,,,0.0051881500718771924,-0.17905956195492914
693,1644542223910290480,,,,gyr,2.784307127261492e-07,-9.943618829054572e-07,0.0,0.00174532923847,0.0,-8.743492110159711e-06,0.0051881500718771924,-0.17905956195492914
694,1644542223911242485,0.0980664938688,-9.66935634613,0.245166242123,acc,3.9774610983797795e-07,-9.943653048153203e-07,,,,,0.005188428502589919,-0.17906055631681206
695,1644542223913256407,0.0686465501785,-9.62032318115,0.264779537916,acc,2.784222950177553e-07,-1.0739145146933057e-06,,,,,0.005188826248699757,-0.17906155068211688
696,1644542223915272236,0.0294199492782,-9.64974308014,0.264779537916,acc,1.1954992200262e-07,-1.0759492753171828e-06,,,,,0.0051891046709947744,-0.17906262459663158
697,1644542223915304184,,,,gyr,1.1954992200262e-07,-1.0759492753171828e-06,0.0,0.0,0.0,-0.0,0.0051891046709947744,-0.17906262459663158
698,1644542223917286158,0.0392265990376,-9.64974308014,0.274586200714,acc,1.5909844997877958e-07,-1.1136891800710211e-06,,,,,0.005189224220916777,-0.1790637005459069
699,1644542223919300079,0.0686465501785,-9.64974308014,0.264779537916,acc,2.7842201852022867e-07,-1.0739134482028975e-06,,,,,0.005189383319366756,-0.17906481423508697
700,1644542223920314074,,,,gyr,2.7842201852022867e-07,-1.0739134482028975e-06,0.0,0.0,0.0,-0.0,0.005189383319366756,-0.17906481423508697
701,1644542223921314001,0.0392265990376,-9.62032318115,0.274586200714,acc,1.5909844997877958e-07,-1.1136891800710211e-06,,,,,0.005189661741385276,-0.17906588814853516
702,1644542223923329830,0.0392265990376,-9.62032318115,0.313812792301,acc,1.5939989600349333e-07,-1.2751991680287593e-06,,,,,0.005189820839835255,-0.17906700183771523
703,1644542223925325632,,,,gyr,1.5939989600349333e-07,-1.2751991680287593e-06,-0.0069813169539,0.0,0.00349065847695,-0.0,0.005189820839835255,-0.17906700183771523
704,1644542223925343752,0.0686465501785,-9.66935634613,0.313812792301,acc,2.784222950177553e-07,-1.2727875998310479e-06,,,,,0.005189980239731259,-0.17906827703688327
705,1644542223927357435,0.0392265990376,-9.62032318115,0.264779537916,acc,1.5906069054888596e-07,-1.0736596385469026e-06,,,,,0.005190258662026276,-0.17906954982448312
706,1644542223929371357,0.0392265990376,-9.62032318115,0.294199496508,acc,1.5909844997877958e-07,-1.1932383899530623e-06,,,,,0.005190417722716825,-0.17907062348412167
707,1644542223930337429,,,,gyr,1.5908801243508117e-07,-1.1932397815790765e-06,0.0,-0.00174532923847,0.0,8.74723584137623e-06,0.005190417722716825,-0.17907062348412167
708,1644542223931387186,0.0294199492782,-9.62032318115,0.294199496508,acc,1.1954992200262e-07,-1.195499235167049e-06,,,,,0.00519057681072926,-0.17907181672390324
709,1644542223933401108,0.0392265990376,-9.66935634613,0.362846046686,acc,1.5909844997877958e-07,-1.4716606849687898e-06,,,,,0.005190696360651263,-0.1790730122231384
710,1644542223935349226,,,,gyr,1.5911132293578268e-07,-1.4716592932408245e-06,0.0,0.00174532923847,0.00174532923847,-8.74723584137623e-06,0.005190696360651263,-0.1790730122231384
711,1644542223935415030,0.0392265990376,-9.64974308014,0.264779537916,acc,1.5909844997877958e-07,-1.0739145146933057e-06,,,,,0.005190855471974199,-0.17907448388243163
712,1644542223937430859,0.00980664975941,-9.67916297913,0.274586200714,acc,3.984997400091397e-08,-1.115799302301275e-06,,,,,0.005191014570424177,-0.17907555779694634
713,1644542223939444780,0.0392265990376,-9.66935634613,0.294199496508,acc,1.5909829198019726e-07,-1.19323720496368e-06,,,,,0.005191054420398179,-0.17907667359624865
714,1644542223940360785,,,,gyr,1.5909829198019726e-07,-1.19323720496368e-06,-0.00349065847695,0.0,0.0,-0.0,0.005191054420398179,-0.17907667359624865
715,1644542223941460609,0.00980664975941,-9.67916297913,0.274586200714,acc,3.984997400091397e-08,-1.115799302301275e-06,,,,,0.005191213518690159,-0.17907786683345361
716,1644542223943474531,0.0392265990376,-9.66935634613,0.313812792301,acc,1.5909844997877958e-07,-1.2727875998310479e-06,,,,,0.00519125336866416,-0.17907898263275593
717,1644542223945372581,,,,gyr,1.5909844997877958e-07,-1.2727875998310479e-06,-0.0069813169539,0.0,0.0,-0.0,0.00519125336866416,-0.17907898263275593
718,1644542223945488453,0.0392265990376,-9.71838951111,0.343232750893,acc,1.5909844997877958e-07,-1.3921114750908047e-06,,,,,0.0051914124671141385,-0.17908025542035577
719,1644542223947502375,0.0392265990376,-9.66935634613,0.362846046686,acc,1.5909844997877958e-07,-1.4716606849687898e-06,,,,,0.005191571565564117,-0.17908164753183087
720,1644542223949518204,0.0392265990376,-9.67916297913,0.294199496508,acc,1.5939989600349333e-07,-1.195499235167049e-06,,,,,0.005191730664014096,-0.17908311919251585
721,1644542223950384378,,,,gyr,1.5938943868363711e-07,-1.195500629429796e-06,-0.00349065847695,-0.00174532923847,0.0,8.74723584137623e-06,0.005191730664014096,-0.17908311919251585
722,1644542223951531887,0.0686465501785,-9.66935634613,0.343232750893,acc,2.7835621601364845e-07,-1.3917810800702698e-06,,,,,0.00519189005345278,-0.17908431469314529
723,1644542223953545809,0.0392265990376,-9.61051654816,0.313812792301,acc,1.5909844997877958e-07,-1.2727875998310479e-06,,,,,0.005192168409668793,-0.17908570647422536
724,1644542223955395460,,,,gyr,1.590650545690588e-07,-1.2727917738123044e-06,-0.00349065847695,-0.00523598771542,0.00174532923847,2.6237963792962285e-05,0.005192168409668793,-0.17908570647422536
725,1644542223955559492,0.00980664975941,-9.67916297913,0.313812792301,acc,3.9765172637262036e-08,-1.2724855243918985e-06,,,,,0.005192327474723362,-0.17908697926599917
