,field.header.stamp,field.linear_acceleration.x,field.linear_acceleration.y,field.linear_acceleration.z,type,field.angular_velocity.x,field.angular_velocity.y,field.angular_velocity.z
0,1644543061744060278,0.137293100357,-9.66935634613,-0.529559075832,acc,,,
1,1644543061744310617,,,,gyr,0.0383972451091,-0.00174532923847,0.0279252678156
2,1644543061744813204,,,,gyr,-0.0279252678156,-0.0069813169539,0.00174532923847
3,1644543061745316029,,,,gyr,0.0209439508617,-0.0593411922455,-0.0506145469844
4,1644543061745864630,,,,gyr,-0.0680678412318,0.0383972451091,0.129154369235
5,1644543061746076822,0.137293100357,-9.62032318115,-0.509945809841,acc,,,
6,1644543061746319294,,,,gyr,-0.0104719754308,-0.0349065847695,-0.0645771846175
7,1644543061746819973,,,,gyr,-0.0680678412318,0.111701071262,-0.0104719754308
8,1644543061747322798,,,,gyr,0.0209439508617,-0.0872664600611,0.0104719754308
9,1644543061747825384,,,,gyr,0.0750491544604,-0.0296705961227,0.0383972451091
10,1644543061748093843,0.0784531980753,-9.57129001617,-0.509945809841,acc,,,
11,1644543061748373985,,,,gyr,-0.0558505356312,0.0104719754308,-0.0471238903701
12,1644543061748828650,,,,gyr,0.00523598771542,0.0139626339078,0.0
13,1644543061749329329,,,,gyr,-0.00523598771542,0.0104719754308,0.0977384373546
14,1644543061749831915,,,,gyr,0.0139626339078,-0.0715584978461,-0.130899697542
15,1644543061750110388,0.0686465501785,-9.58109664917,-0.490332484245,acc,,,
16,1644543061750334740,,,,gyr,0.0261799395084,0.104719758034,-0.106465086341
17,1644543061750883579,,,,gyr,-0.0750491544604,-0.069813169539,0.174532920122
18,1644543061752125263,0.0784531980753,-9.61051654816,-0.549172401428,acc,,,
19,1644543061754141808,0.0392265990376,-9.57129001617,-0.490332484245,acc,,,
20,1644543061756158590,0.0686465501785,-9.61051654816,-0.509945809841,acc,,,
21,1644543061758175373,0.0392265990376,-9.57129001617,-0.598205626011,acc,,,
22,1644543061760192156,0.0980664938688,-9.57129001617,-0.470719188452,acc,,,
23,1644543061762208700,0.0686465501785,-9.58109664917,-0.490332484245,acc,,,
24,1644543061764225483,0.0686465501785,-9.57129001617,-0.470719188452,acc,,,
25,1644543061766240120,0.0392265990376,-9.53206348419,-0.549172401428,acc,,,
26,1644543061768257141,0.0686465501785,-9.56148338318,-0.549172401428,acc,,,
27,1644543061770273685,0.0392265990376,-9.56148338318,-0.549172401428,acc,,,
28,1644543061772290468,0.0686465501785,-9.58109664917,-0.451105892658,acc,,,
29,1644543061773468018,,,,gyr,-0.0174532923847,0.0610865242779,0.0296705961227
30,1644543061774307013,0.0294199492782,-9.57129001617,-0.57859236002,acc,,,
31,1644543061774423361,,,,gyr,0.0191986225545,-0.0418879017234,-0.0785398185253
32,1644543062534259796,,,,gyr,-0.0296705961227,-0.0209439508617,0.00523598771542
33,1644543062534576178,0.196132987738,-9.5222568512,-0.470719188452,acc,,,
34,1644543062534762383,,,,gyr,0.0418879017234,0.0383972451091,0.00174532923847
35,1644543062535265207,,,,gyr,-0.0383972451091,-0.0680678412318,0.0436332300305
36,1644543062536316395,,,,gyr,-0.0296705961227,0.0750491544604,-0.0349065847695
37,1644543062536592722,0.343232750893,-9.58109664917,-0.421685934067,acc,,,
38,1644543062537271738,,,,gyr,-0.0209439508617,0.0785398185253,-0.0069813169539
39,1644543062537774324,,,,gyr,0.123918376863,-0.102974422276,-0.0139626339078
40,1644543062538275242,,,,gyr,-0.141371667385,0.0872664600611,0.0785398185253
41,1644543062538607597,0.00980664975941,-9.66935634613,-0.57859236002,acc,,,
42,1644543062538825989,,,,gyr,0.069813169539,-0.0750491544604,-0.0872664600611
43,1644543062539278507,,,,gyr,0.00349065847695,0.0471238903701,0.0959931090474
44,1644543062539781332,,,,gyr,-0.0349065847695,0.00174532923847,-0.0767944902182
45,1644543062540283918,,,,gyr,-0.0383972451091,-0.0471238903701,0.0593411922455
46,1644543062540624380,-0.0294199492782,-9.57129001617,-0.509945809841,acc,,,
47,1644543062540784359,,,,gyr,0.00349065847695,0.0855211317539,0.0383972451091
48,1644543062541335106,,,,gyr,0.0802851468325,-0.0645771846175,-0.0645771846175
49,1644543062541787863,,,,gyr,-0.150098308921,0.0436332300305,0.0191986225545
50,1644543062542643070,0.166713044047,-9.58109664917,-0.490332484245,acc,,,
51,1644543062544659615,0.274586200714,-9.66935634613,-0.421685934067,acc,,,
52,1644543062545302629,,,,gyr,0.0226892791688,-0.0069813169539,-0.0802851468325
53,1644543062546676397,0.0686465501785,-9.57129001617,-0.490332484245,acc,,,
54,1644543062547309399,,,,gyr,0.0,0.0314159244299,0.0523598790169
55,1644543062547811985,,,,gyr,-0.0226892791688,-0.0750491544604,0.0296705961227
56,1644543062548312664,,,,gyr,0.0925024524331,-0.0436332300305,0.101229093969
57,1644543062548691273,-0.0686465501785,-9.5222568512,-0.490332484245,acc,,,
58,1644543062548861504,,,,gyr,-0.0383972451091,0.0645771846175,-0.153588980436
59,1644543062549316168,,,,gyr,0.0209439508617,-0.0069813169539,0.0890117883682
60,1644543062549818754,,,,gyr,-0.0558505356312,0.0104719754308,-0.0471238903701
61,1644543062550321579,,,,gyr,-0.0209439508617,-0.0226892791688,-0.0209439508617
62,1644543062550709963,0.166713044047,-9.62032318115,-0.490332484245,acc,,,
63,1644543062550822258,,,,gyr,0.0139626339078,0.0104719754308,0.0872664600611
64,1644543062551372766,,,,gyr,0.0104719754308,-0.0383972451091,-0.0558505356312
65,1644543062551825523,,,,gyr,0.00523598771542,0.069813169539,0.0436332300305
66,1644543062552328110,,,,gyr,-0.0645771846175,-0.0750491544604,-0.0349065847695
67,1644543062552724838,0.166713044047,-9.57129001617,-0.509945809841,acc,,,
68,1644543062552830696,,,,gyr,0.0523598790169,0.0593411922455,0.0139626339078
69,1644543062553331614,,,,gyr,-0.0139626339078,-0.00523598771542,-0.0104719754308
70,1644543062553880453,,,,gyr,-0.0715584978461,-0.0558505356312,-0.0104719754308
71,1644543062554334879,,,,gyr,0.0523598790169,0.00872664619237,0.0296705961227
72,1644543062554741383,0.0392265990376,-9.57129001617,-0.470719188452,acc,,,
73,1644543062554837704,,,,gyr,-0.0191986225545,-0.00174532923847,0.0226892791688
74,1644543062555340290,,,,gyr,0.0436332300305,0.0523598790169,-0.0785398185253
75,1644543062555840969,,,,gyr,0.0,0.0069813169539,0.136135682464
76,1644543062556389570,,,,gyr,-0.0191986225545,-0.0436332300305,-0.0558505356312
77,1644543062556758404,0.00980664975941,-9.61051654816,-0.470719188452,acc,,,
78,1644543062556844234,,,,gyr,-0.0139626339078,0.0296705961227,-0.0750491544604
79,1644543062557346821,,,,gyr,-0.0296705961227,-0.0523598790169,0.0942477807403
80,1644543062557847738,,,,gyr,-0.0069813169539,0.0872664600611,-0.0471238903701
81,1644543062558350325,,,,gyr,0.0104719754308,-0.0314159244299,0.0436332300305
82,1644543062558774948,0.12748645246,-9.64974308014,-0.509945809841,acc,,,
83,1644543062558899164,,,,gyr,0.0104719754308,-0.0558505356312,0.0
84,1644543062559353828,,,,gyr,-0.0104719754308,0.0314159244299,-0.0349065847695
85,1644543062559856415,,,,gyr,-0.0104719754308,-0.0436332300305,0.0
86,1644543062560359240,,,,gyr,0.00872664619237,0.00523598771542,0.0418879017234
87,1644543062560791731,0.137293100357,-9.58109664917,-0.598205626011,acc,,,
88,1644543062560859919,,,,gyr,-0.0104719754308,0.0593411922455,-0.069813169539
89,1644543062561408520,,,,gyr,0.0174532923847,-0.0523598790169,0.0104719754308
90,1644543062561863184,,,,gyr,-0.0296705961227,0.0209439508617,0.0209439508617
91,1644543062562366009,,,,gyr,-0.0226892791688,-0.0069813169539,0.0191986225545
92,1644543062562808275,0.0784531980753,-9.61051654816,-0.509945809841,acc,,,
93,1644543062562866449,,,,gyr,0.0139626339078,-0.0261799395084,-0.0209439508617
94,1644543062563369036,,,,gyr,-0.0471238903701,0.0418879017234,0.0296705961227
95,1644543062563917875,,,,gyr,-0.00174532923847,-0.0436332300305,0.0418879017234
96,1644543062564372540,,,,gyr,0.0314159244299,0.0349065847695,-0.0610865242779
97,1644543062564825296,0.0,-9.57129001617,-0.509945809841,acc,,,
98,1644543062564875126,,,,gyr,0.0139626339078,-0.0436332300305,-0.0296705961227
99,1644543062565376043,,,,gyr,-0.0104719754308,0.0139626339078,0.0750491544604
100,1644543062565878630,,,,gyr,-0.0104719754308,-0.0209439508617,0.0104719754308
101,1644543062566427469,,,,gyr,0.0296705961227,0.0558505356312,-0.00523598771542
102,1644543062566842079,0.0784531980753,-9.57129001617,-0.549172401428,acc,,,
103,1644543062566882133,,,,gyr,-0.0471238903701,-0.0349065847695,-0.0471238903701
104,1644543062567384720,,,,gyr,0.0139626339078,0.0296705961227,0.0925024524331
105,1644543062567885160,,,,gyr,0.0139626339078,-0.0436332300305,-0.137881010771
106,1644543062568387985,,,,gyr,-0.00174532923847,0.0,-0.0104719754308
107,1644543062568858624,0.12748645246,-9.66935634613,-0.509945809841,acc,,,
108,1644543062568936825,,,,gyr,-0.0610865242779,-0.0296705961227,0.0872664600611
109,1644543062569391251,,,,gyr,0.0436332300305,0.0436332300305,-0.0418879017234
110,1644543062569894075,,,,gyr,-0.0261799395084,-0.0436332300305,0.0296705961227
111,1644543062570394754,,,,gyr,0.0,0.0645771846175,-0.0471238903701
112,1644543062570875406,0.0392265990376,-9.61051654816,-0.509945809841,acc,,,
113,1644543062570897579,,,,gyr,0.00174532923847,0.00872664619237,-0.0645771846175
114,1644543062571446180,,,,gyr,-0.0174532923847,-0.0296705961227,0.179768905044
115,1644543062571900845,,,,gyr,0.0279252678156,-0.0610865242779,-0.120427720249
116,1644543062572403669,,,,gyr,-0.0523598790169,0.0872664600611,0.0418879017234
117,1644543062572892189,0.0294199492782,-9.57129001617,-0.549172401428,acc,,,
118,1644543062572904110,,,,gyr,0.0680678412318,-0.0226892791688,0.111701071262
119,1644543062573406696,,,,gyr,-0.0523598790169,-0.0436332300305,-0.185004904866
120,1644543062573955536,,,,gyr,0.00523598771542,0.0610865242779,0.106465086341
121,1644543062574410200,,,,gyr,-0.0209439508617,-0.0750491544604,-0.0680678412318
122,1644543062574910879,0.0784531980753,-9.57129001617,-0.509945809841,acc,,,
123,1644543062574912786,,,,gyr,-0.00174532923847,0.0925024524331,0.0383972451091
124,1644543062575413465,,,,gyr,0.0139626339078,-0.0471238903701,-0.0383972451091
125,1644543062575916290,,,,gyr,-0.0261799395084,0.00523598771542,-0.0750491544604
126,1644543062576465130,,,,gyr,0.0139626339078,0.00174532923847,0.174532920122
127,1644543062576919794,,,,gyr,-0.0383972451091,0.0349065847695,-0.150098308921
128,1644543062576927662,0.0980664938688,-9.61051654816,-0.558979034424,acc,,,
129,1644543062577422380,,,,gyr,0.00872664619237,-0.0750491544604,0.0471238903701
130,1644543062577923059,,,,gyr,0.0959931090474,0.0349065847695,0.0558505356312
131,1644543062578425884,,,,gyr,-0.157079637051,0.0349065847695,-0.0977384373546
132,1644543062578944445,0.0686465501785,-9.53206348419,-0.549172401428,acc,,,
133,1644543062578974247,,,,gyr,0.0349065847695,0.0,-0.0104719754308
134,1644543062579428911,,,,gyr,0.0349065847695,-0.0925024524331,0.167551606894
135,1644543062579931736,,,,gyr,-0.0942477807403,0.0925024524331,-0.139626339078
136,1644543062580432415,,,,gyr,0.0349065847695,-0.0139626339078,-0.00523598771542
137,1644543062580935001,,,,gyr,0.0436332300305,0.00174532923847,0.0767944902182
138,1644543062580961227,0.0980664938688,-9.57129001617,-0.549172401428,acc,,,
139,1644543062581483841,,,,gyr,-0.0680678412318,-0.0383972451091,-0.0680678412318
140,1644543062581938505,,,,gyr,0.0645771846175,-0.0209439508617,0.0
141,1644543062582441092,,,,gyr,-0.069813169539,0.0209439508617,0.0523598790169
142,1644543062582942009,,,,gyr,0.0349065847695,0.0139626339078,-0.0209439508617
143,1644543062582977772,0.137293100357,-9.61051654816,-0.558979034424,acc,,,
144,1644543062583444595,,,,gyr,-0.00523598771542,-0.0558505356312,-0.0261799395084
145,1644543062583993196,,,,gyr,0.0,0.00349065847695,0.0261799395084
146,1644543062584447861,,,,gyr,-0.0209439508617,0.0558505356312,0.0837758034468
147,1644543062584950447,,,,gyr,-0.0471238903701,-0.0436332300305,-0.127409040928
148,1644543062584994555,0.0784531980753,-9.56148338318,-0.509945809841,acc,,,
149,1644543062585451126,,,,gyr,0.0785398185253,0.0785398185253,0.0837758034468
150,1644543062585953951,,,,gyr,-0.0383972451091,-0.0645771846175,0.0209439508617
151,1644543062586502790,,,,gyr,-0.0314159244299,0.00174532923847,-0.179768905044
152,1644543062586957216,,,,gyr,-0.0209439508617,0.0383972451091,0.150098308921
153,1644543062587011337,0.0784531980753,-9.57129001617,-0.529559075832,acc,,,
154,1644543062587460041,,,,gyr,0.0349065847695,-0.0506145469844,-0.0645771846175
155,1644543062587960720,,,,gyr,0.0069813169539,0.00174532923847,0.00174532923847
156,1644543062588463306,,,,gyr,-0.0069813169539,0.0767944902182,0.0069813169539
157,1644543062589011908,,,,gyr,0.0209439508617,-0.144862323999,0.0104719754308
158,1644543062589028120,0.0784531980753,-9.64974308014,-0.509945809841,acc,,,
159,1644543062589466810,,,,gyr,0.0436332300305,0.0314159244299,-0.0558505356312
160,1644543062589969397,,,,gyr,-0.106465086341,0.0436332300305,0.104719758034
161,1644543062590470076,,,,gyr,0.0349065847695,-0.0104719754308,-0.0349065847695
162,1644543062590972662,,,,gyr,-0.00523598771542,-0.00349065847695,-0.0715584978461
163,1644543062591044903,0.0784531980753,-9.58109664917,-0.529559075832,acc,,,
164,1644543062591521502,,,,gyr,-0.0226892791688,-0.0349065847695,-0.0261799395084
165,1644543062591976166,,,,gyr,-0.0558505356312,0.0610865242779,0.0296705961227
166,1644543062592478752,,,,gyr,0.0785398185253,-0.0383972451091,0.0104719754308
167,1644543062592979431,,,,gyr,-0.0645771846175,0.0645771846175,0.0191986225545
168,1644543062593061447,0.0686465501785,-9.57129001617,-0.549172401428,acc,,,
169,1644543062593482256,,,,gyr,0.0436332300305,-0.101229093969,-0.0767944902182
170,1644543062594031096,,,,gyr,-0.0174532923847,0.069813169539,0.162315621972
171,1644543062594485521,,,,gyr,-0.0645771846175,-0.0069813169539,-0.167551606894
172,1644543062594988346,,,,gyr,0.0383972451091,-0.0925024524331,0.167551606894
173,1644543062595078468,0.12748645246,-9.64974308014,-0.549172401428,acc,,,
174,1644543062595488787,,,,gyr,0.0,0.0349065847695,-0.0523598790169
175,1644543062595991373,,,,gyr,-0.0174532923847,-0.00523598771542,-0.0785398185253
176,1644543062596540213,,,,gyr,0.0261799395084,-0.0750491544604,0.0139626339078
177,1644543062596994877,,,,gyr,0.0383972451091,0.0959931090474,0.0558505356312
178,1644543062597095013,0.0980664938688,-9.57129001617,-0.549172401428,acc,,,
179,1644543062597497463,,,,gyr,-0.0610865242779,-0.0680678412318,-0.0506145469844
180,1644543062597998381,,,,gyr,0.0226892791688,0.0471238903701,0.136135682464
181,1644543062598500967,,,,gyr,-0.0139626339078,-0.069813169539,-0.130899697542
182,1644543062599049807,,,,gyr,0.0104719754308,0.0785398185253,0.069813169539
183,1644543062599111795,0.0980664938688,-9.57129001617,-0.57859236002,acc,,,
184,1644543062599504471,,,,gyr,-0.0750491544604,-0.0942477807403,-0.0174532923847
185,1644543062600007057,,,,gyr,0.0506145469844,0.111701071262,-0.0069813169539
186,1644543062600507736,,,,gyr,0.0,-0.0349065847695,-0.104719758034
187,1644543062601010561,,,,gyr,0.0349065847695,-0.0383972451091,0.141371667385
188,1644543062601128578,0.0784531980753,-9.64974308014,-0.509945809841,acc,,,
189,1644543062601559162,,,,gyr,-0.104719758034,0.0,-0.0715584978461
190,1644543062602013588,,,,gyr,0.0104719754308,0.0,0.0139626339078
191,1644543062602516413,,,,gyr,-0.0959931090474,0.0593411922455,-0.0959931090474
192,1644543062603017092,,,,gyr,0.132645025849,-0.0471238903701,0.0837758034468
193,1644543062603145361,0.0294199492782,-9.58109664917,-0.558979034424,acc,,,
194,1644543062603519678,,,,gyr,-0.0226892791688,0.00349065847695,-0.0383972451091
195,1644543062604068518,,,,gyr,0.0139626339078,-0.0191986225545,0.0
196,1644543062604523182,,,,gyr,-0.0261799395084,0.0209439508617,0.115191727877
197,1644543062605025768,,,,gyr,-0.0139626339078,-0.00349065847695,-0.150098308921
198,1644543062605162144,0.12748645246,-9.57129001617,-0.549172401428,acc,,,
199,1644543062605526686,,,,gyr,0.0436332300305,0.0104719754308,0.0523598790169
200,1644543062606029272,,,,gyr,-0.0069813169539,-0.0296705961227,0.0645771846175
201,1644543062606577873,,,,gyr,-0.0314159244299,0.0715584978461,-0.123918376863
202,1644543062607032537,,,,gyr,0.0296705961227,-0.0942477807403,0.150098308921
203,1644543062607178688,0.137293100357,-9.61051654816,-0.509945809841,acc,,,
204,1644543062607535124,,,,gyr,-0.11344639957,0.0610865242779,-0.193731546402
205,1644543062608035803,,,,gyr,0.136135682464,-0.0349065847695,0.0471238903701
206,1644543062608538628,,,,gyr,-0.0349065847695,0.0471238903701,-0.0104719754308
207,1644543062609087467,,,,gyr,-0.0750491544604,-0.0209439508617,-0.0261799395084
208,1644543062609195471,0.0980664938688,-9.57129001617,-0.509945809841,acc,,,
209,1644543062609541893,,,,gyr,0.0209439508617,-0.0209439508617,0.0558505356312
210,1644543062610044718,,,,gyr,0.0174532923847,-0.0174532923847,0.0
211,1644543062610545397,,,,gyr,-0.00174532923847,0.0261799395084,-0.00174532923847
212,1644543062611047983,,,,gyr,0.0279252678156,-0.0104719754308,0.0
213,1644543062611212254,0.0686465501785,-9.61051654816,-0.509945809841,acc,,,
214,1644543062611596584,,,,gyr,-0.0593411922455,0.0104719754308,-0.0418879017234
215,1644543062612051487,,,,gyr,0.069813169539,-0.0471238903701,0.0837758034468
216,1644543062612551928,,,,gyr,-0.0383972451091,0.0523598790169,-0.0802851468325
217,1644543062613054752,,,,gyr,0.0139626339078,0.0,-0.0139626339078
218,1644543062613229036,0.0686465501785,-9.57129001617,-0.529559075832,acc,,,
219,1644543062613557339,,,,gyr,-0.0349065847695,-0.0471238903701,0.00523598771542
220,1644543062614106178,,,,gyr,0.0418879017234,0.0785398185253,0.0191986225545
221,1644543062614560843,,,,gyr,-0.0471238903701,-0.0471238903701,-0.139626339078
222,1644543062615063429,,,,gyr,-0.00523598771542,-0.0104719754308,0.0959931090474
223,1644543062615245819,0.0980664938688,-9.62032318115,-0.529559075832,acc,,,
224,1644543062615564108,,,,gyr,0.0069813169539,0.0174532923847,0.109955742955
225,1644543062616066933,,,,gyr,-0.0680678412318,-0.0715584978461,-0.185004904866
226,1644543062616615534,,,,gyr,0.0767944902182,0.069813169539,0.0558505356312
227,1644543062617070198,,,,gyr,-0.0645771846175,0.0383972451091,0.069813169539
228,1644543062617262363,0.137293100357,-9.62032318115,-0.558979034424,acc,,,
229,1644543062617573023,,,,gyr,0.0523598790169,-0.0785398185253,0.0104719754308
230,1644543062618073463,,,,gyr,-0.0104719754308,0.0785398185253,-0.00174532923847
231,1644543062618576288,,,,gyr,0.0349065847695,-0.0209439508617,-0.0209439508617
232,1644543062619124889,,,,gyr,-0.0209439508617,-0.0645771846175,0.0296705961227
233,1644543062619279385,0.0686465501785,-9.56148338318,-0.549172401428,acc,,,
234,1644543062619579554,,,,gyr,-0.0436332300305,0.0890117883682,-0.104719758034
235,1644543062620082378,,,,gyr,0.0872664600611,-0.0191986225545,0.0471238903701
236,1644543062620583057,,,,gyr,-0.0610865242779,-0.0436332300305,-0.00174532923847
237,1644543062621085644,,,,gyr,-0.0174532923847,0.0104719754308,0.0523598790169
238,1644543062621294022,0.00980664975941,-9.58109664917,-0.529559075832,acc,,,
239,1644543062621634483,,,,gyr,-0.0069813169539,0.0645771846175,-0.0767944902182
240,1644543062622089148,,,,gyr,0.0104719754308,-0.0593411922455,-0.0069813169539
241,1644543062622589827,,,,gyr,-0.0715584978461,0.0383972451091,-0.00174532923847
242,1644543062623092175,,,,gyr,0.00523598771542,-0.111701071262,0.0645771846175
243,1644543062623312712,0.0686465501785,-9.53206348419,-0.558979034424,acc,,,
244,1644543062623594999,,,,gyr,0.0226892791688,0.106465086341,0.00523598771542
245,1644543062624143839,,,,gyr,-0.0226892791688,0.0104719754308,-0.102974422276
246,1644543062624598503,,,,gyr,0.00872664619237,-0.069813169539,0.104719758034
247,1644543062625099182,,,,gyr,-0.0279252678156,-0.0069813169539,-0.148352980614
248,1644543062625329256,0.137293100357,-9.58109664917,-0.509945809841,acc,,,
249,1644543062625601768,,,,gyr,0.0139626339078,0.0349065847695,0.0750491544604
250,1644543062626104593,,,,gyr,0.0226892791688,-0.0349065847695,0.0209439508617
251,1644543062626653433,,,,gyr,-0.0139626339078,0.0959931090474,-0.136135682464
252,1644543062627107859,,,,gyr,0.0436332300305,-0.111701071262,0.0977384373546
253,1644543062627346277,0.0980664938688,-9.58109664917,-0.529559075832,acc,,,
254,1644543062627608538,,,,gyr,-0.0296705961227,0.0558505356312,0.00872664619237
255,1644543062628111362,,,,gyr,0.0383972451091,-0.0767944902182,0.0104719754308
256,1644543062628613949,,,,gyr,-0.0436332300305,0.139626339078,-0.150098308921
257,1644543062629162550,,,,gyr,-0.00174532923847,-0.11344639957,0.11344639957
258,1644543062629363060,0.0784531980753,-9.61051654816,-0.509945809841,acc,,,
259,1644543062629617214,,,,gyr,-0.0261799395084,0.0959931090474,-0.0523598790169
260,1644543062630119801,,,,gyr,0.0104719754308,-0.176278248429,0.0785398185253
261,1644543062630620718,,,,gyr,-0.0715584978461,0.150098308921,-0.130899697542
262,1644543062631123304,,,,gyr,0.0785398185253,-0.0558505356312,0.0436332300305
263,1644543062631379604,0.0784531980753,-9.61051654816,-0.558979034424,acc,,,
264,1644543062631672144,,,,gyr,0.0,0.0680678412318,0.153588980436
265,1644543062632126808,,,,gyr,0.00523598771542,-0.0610865242779,-0.130899697542
266,1644543062632627487,,,,gyr,0.00174532923847,0.00872664619237,-0.0209439508617
267,1644543062633130074,,,,gyr,-0.0645771846175,-0.0104719754308,0.0645771846175
268,1644543062633394480,0.12748645246,-9.62032318115,-0.529559075832,acc,,,
269,1644543062633632898,,,,gyr,-0.00174532923847,-0.0261799395084,-0.115191727877
270,1644543062634181499,,,,gyr,0.0104719754308,0.0750491544604,0.0471238903701
271,1644543062634635925,,,,gyr,-0.0418879017234,-0.0349065847695,0.0872664600611
272,1644543062635136604,,,,gyr,0.0314159244299,0.0209439508617,-0.150098308921
273,1644543062635411024,0.166713044047,-9.56148338318,-0.57859236002,acc,,,
274,1644543062635639429,,,,gyr,-0.0069813169539,-0.0471238903701,0.0715584978461
275,1644543062636142015,,,,gyr,-0.0506145469844,0.0069813169539,0.0
276,1644543062636690855,,,,gyr,0.0226892791688,0.0209439508617,-0.122173048556
277,1644543062637145519,,,,gyr,0.0506145469844,-0.0226892791688,0.0872664600611
278,1644543062637428045,0.0980664938688,-9.61051654816,-0.558979034424,acc,,,
279,1644543062637646198,,,,gyr,-0.0645771846175,0.0104719754308,-0.0069813169539
280,1644543062638149023,,,,gyr,0.0,0.0261799395084,-0.0436332300305
281,1644543062638651609,,,,gyr,0.0,-0.0593411922455,0.0296705961227
282,1644543062639200211,,,,gyr,0.0104719754308,-0.0174532923847,0.0296705961227
283,1644543062639444590,0.0686465501785,-9.62032318115,-0.549172401428,acc,,,
284,1644543062639655113,,,,gyr,-0.0174532923847,0.0750491544604,0.0139626339078
285,1644543062640155554,,,,gyr,-0.0471238903701,-0.0523598790169,0.00174532923847
286,1644543062640658140,,,,gyr,0.0104719754308,0.0383972451091,0.0104719754308
287,1644543062641160965,,,,gyr,-0.0314159244299,-0.0383972451091,-0.0296705961227
288,1644543062641459465,-0.0392265990376,-9.48303031921,-0.529559075832,acc,,,
289,1644543062641709805,,,,gyr,0.0226892791688,0.0,-0.0226892791688
290,1644543062642164230,,,,gyr,0.0104719754308,0.0349065847695,0.00349065847695
291,1644543062642665148,,,,gyr,-0.0104719754308,-0.0349065847695,-0.00174532923847
292,1644543062643167734,,,,gyr,-0.0279252678156,-0.0349065847695,-0.0645771846175
293,1644543062643477917,0.12748645246,-9.66935634613,-0.509945809841,acc,,,
294,1644543062643670321,,,,gyr,0.0436332300305,0.0104719754308,-0.0872664600611
295,1644543062644219160,,,,gyr,-0.0715584978461,-0.0261799395084,0.165806278586
296,1644543062644673824,,,,gyr,0.0523598790169,0.0226892791688,-0.0523598790169
297,1644543062645174265,,,,gyr,-0.0418879017234,0.0,-0.0209439508617
298,1644543062645494938,0.245166242123,-9.58109664917,-0.529559075832,acc,,,
299,1644543062645677090,,,,gyr,0.0279252678156,0.0558505356312,0.0104719754308
300,1644543062646179676,,,,gyr,-0.0837758034468,-0.0296705961227,-0.0610865242779
301,1644543062646728516,,,,gyr,0.0610865242779,-0.0436332300305,0.0558505356312
302,1644543062647183180,,,,gyr,-0.0104719754308,0.0715584978461,-0.0436332300305
303,1644543062647511721,0.196132987738,-9.57129001617,-0.509945809841,acc,,,
304,1644543062647683859,,,,gyr,-0.0296705961227,-0.104719758034,0.0925024524331
305,1644543062648186445,,,,gyr,0.0139626339078,0.0610865242779,-0.0785398185253
306,1644543062648689270,,,,gyr,-0.0296705961227,-0.0069813169539,0.0104719754308
307,1644543062649238110,,,,gyr,-0.0349065847695,-0.0349065847695,0.0436332300305
308,1644543062649528265,0.0686465501785,-9.62032318115,-0.451105892658,acc,,,
309,1644543062649692535,,,,gyr,0.0715584978461,-0.0296705961227,0.0209439508617
310,1644543062650193453,,,,gyr,-0.11344639957,0.122173048556,-0.0436332300305
311,1644543062650696039,,,,gyr,0.0610865242779,-0.122173048556,0.0436332300305
312,1644543062651196480,,,,gyr,-0.0593411922455,0.0610865242779,-0.127409040928
313,1644543062651543140,0.00980664975941,-9.57129001617,-0.451105892658,acc,,,
314,1644543062651747227,,,,gyr,0.0523598790169,-0.0523598790169,0.0610865242779
315,1644543062652201891,,,,gyr,-0.0506145469844,0.0436332300305,0.0837758034468
316,1644543062652702570,,,,gyr,0.0471238903701,-0.0715584978461,-0.118682384491
317,1644543062653205395,,,,gyr,-0.0349065847695,-0.0104719754308,0.0977384373546
318,1644543062653559923,0.0980664938688,-9.57129001617,-0.490332484245,acc,,,
319,1644543062653706074,,,,gyr,-0.0645771846175,0.0680678412318,-0.0715584978461
320,1644543062654256821,,,,gyr,0.0837758034468,-0.0506145469844,0.0680678412318
321,1644543062654711485,,,,gyr,-0.0977384373546,0.0383972451091,-0.0383972451091
322,1644543062655212164,,,,gyr,-0.0104719754308,0.00174532923847,-0.00523598771542
323,1644543062655576706,0.137293100357,-9.57129001617,-0.451105892658,acc,,,
324,1644543062655714750,,,,gyr,-0.0069813169539,0.00174532923847,0.0785398185253
325,1644543062656215429,,,,gyr,-0.0314159244299,0.0209439508617,-0.118682384491
326,1644543062656766176,,,,gyr,0.0785398185253,-0.0593411922455,0.167551606894
327,1644543062657220602,,,,gyr,-0.0785398185253,-0.0104719754308,-0.158824965358
328,1644543062657593250,0.0686465501785,-9.56148338318,-0.490332484245,acc,,,
329,1644543062657721519,,,,gyr,-0.0104719754308,0.0104719754308,0.0785398185253
330,1644543062658224106,,,,gyr,0.0069813169539,0.0296705961227,-0.0471238903701
331,1644543062658726692,,,,gyr,0.0261799395084,-0.0418879017234,-0.0209439508617
332,1644543062659275532,,,,gyr,-0.069813169539,0.0383972451091,0.0139626339078
333,1644543062659610033,0.0784531980753,-9.56148338318,-0.451105892658,acc,,,
334,1644543062659730196,,,,gyr,0.0645771846175,-0.0349065847695,-0.0139626339078
335,1644543062660230875,,,,gyr,0.0139626339078,-0.0209439508617,0.0139626339078
336,1644543062660733700,,,,gyr,-0.0925024524331,0.0261799395084,-0.0959931090474
337,1644543062661234379,,,,gyr,0.0,0.0174532923847,0.069813169539
338,1644543062661626816,0.12748645246,-9.58109664917,-0.509945809841,acc,,,
339,1644543062661784887,,,,gyr,0.0069813169539,0.0,-0.0471238903701
340,1644543062662239790,,,,gyr,-0.0383972451091,0.0261799395084,0.00174532923847
341,1644543062662740231,,,,gyr,0.0959931090474,-0.0436332300305,0.0977384373546
342,1644543062663242817,,,,gyr,-0.106465086341,-0.0139626339078,-0.0645771846175
343,1644543062663643599,0.12748645246,-9.64974308014,-0.402072638273,acc,,,
344,1644543062663743734,,,,gyr,-0.0383972451091,0.0523598790169,0.0069813169539
345,1644543062664294481,,,,gyr,0.0977384373546,-0.0785398185253,0.0139626339078
346,1644543062664748907,,,,gyr,-0.0593411922455,0.0349065847695,0.0523598790169
347,1644543062665249825,,,,gyr,0.00872664619237,-0.0174532923847,-0.150098308921
348,1644543062665660381,0.0980664938688,-9.64974308014,-0.402072638273,acc,,,
349,1644543062665752411,,,,gyr,0.0436332300305,-0.0471238903701,0.0977384373546
350,1644543062666253090,,,,gyr,-0.0942477807403,0.0436332300305,0.00523598771542
351,1644543062666803837,,,,gyr,0.0104719754308,0.0209439508617,-0.0139626339078
352,1644543062667258501,,,,gyr,0.0593411922455,-0.0471238903701,0.0785398185253
353,1644543062667676926,0.0686465501785,-9.58109664917,-0.509945809841,acc,,,
354,1644543062667758942,,,,gyr,0.00523598771542,0.0209439508617,-0.11344639957
355,1644543062668261766,,,,gyr,-0.0715584978461,-0.0139626339078,0.069813169539
356,1644543062668762445,,,,gyr,-0.0383972451091,0.0296705961227,-0.0977384373546
357,1644543062669313192,,,,gyr,0.0261799395084,-0.0383972451091,0.0593411922455
358,1644543062669693947,0.0686465501785,-9.64974308014,-0.509945809841,acc,,,
359,1644543062669767857,,,,gyr,0.0226892791688,0.0383972451091,0.0314159244299
360,1644543062670268536,,,,gyr,-0.0645771846175,0.0174532923847,-0.0680678412318
361,1644543062670771122,,,,gyr,0.0610865242779,-0.0226892791688,0.0942477807403
362,1644543062671272039,,,,gyr,-0.0349065847695,-0.0349065847695,0.0069813169539
363,1644543062671710491,0.12748645246,-9.62032318115,-0.509945809841,acc,,,
364,1644543062671822786,,,,gyr,0.0750491544604,0.0104719754308,-0.0785398185253
365,1644543062672277451,,,,gyr,-0.118682384491,0.00872664619237,0.0942477807403
366,1644543062672778130,,,,gyr,0.0785398185253,0.0436332300305,-0.130899697542
367,1644543062673280716,,,,gyr,-0.101229093969,-0.0104719754308,0.122173048556
368,1644543062673725367,0.0980664938688,-9.61051654816,-0.451105892658,acc,,,
369,1644543062673781157,,,,gyr,0.0558505356312,-0.0209439508617,-0.0296705961227
370,1644543062674332142,,,,gyr,-0.0296705961227,0.0104719754308,0.0191986225545
371,1644543062674786568,,,,gyr,-0.0523598790169,-0.00349065847695,-0.0715584978461
372,1644543062675287247,,,,gyr,0.0942477807403,-0.0645771846175,0.102974422276
373,1644543062675741911,0.0784531980753,-9.58109664917,-0.490332484245,acc,,,
374,1644543062675790071,,,,gyr,-0.0349065847695,0.0261799395084,-0.0104719754308
375,1644543062676290751,,,,gyr,0.00174532923847,0.0296705961227,-0.0139626339078
376,1644543062676841497,,,,gyr,-0.0715584978461,-0.0069813169539,0.00523598771542
377,1644543062677296162,,,,gyr,0.0314159244299,0.0296705961227,-0.0296705961227
378,1644543062677758694,0.0980664938688,-9.62032318115,-0.549172401428,acc,,,
379,1644543062677796841,,,,gyr,0.0209439508617,-0.0680678412318,0.0191986225545
380,1644543062678299665,,,,gyr,-0.0785398185253,0.0645771846175,0.0069813169539
381,1644543062678800106,,,,gyr,0.0139626339078,-0.0261799395084,0.0069813169539
382,1644543062679350853,,,,gyr,0.0506145469844,-0.0523598790169,0.0226892791688
383,1644543062679775476,0.0980664938688,-9.61051654816,-0.490332484245,acc,,,
384,1644543062679803371,,,,gyr,-0.0296705961227,0.0104719754308,-0.0226892791688
385,1644543062680306196,,,,gyr,-0.0349065847695,-0.0191986225545,-0.0174532923847
386,1644543062680808783,,,,gyr,0.0104719754308,0.0209439508617,-0.00174532923847
387,1644543062681309462,,,,gyr,0.0261799395084,0.00174532923847,0.0872664600611
388,1644543062681792259,0.0392265990376,-9.61051654816,-0.470719188452,acc,,,
389,1644543062681860447,,,,gyr,0.00523598771542,-0.0261799395084,-0.0855211317539
390,1644543062682312965,,,,gyr,-0.0837758034468,0.0349065847695,0.0715584978461
391,1644543062682815790,,,,gyr,0.0680678412318,0.0296705961227,-0.0645771846175
392,1644543062683318377,,,,gyr,-0.0349065847695,-0.0872664600611,0.0139626339078
393,1644543062683809042,0.0784531980753,-9.62032318115,-0.470719188452,acc,,,
394,1644543062683819056,,,,gyr,0.0296705961227,0.0436332300305,-0.0436332300305
395,1644543062684369564,,,,gyr,-0.0383972451091,0.00523598771542,0.0
396,1644543062684822321,,,,gyr,0.0104719754308,0.0069813169539,-0.0296705961227
397,1644543062685324907,,,,gyr,-0.00174532923847,0.00349065847695,0.0785398185253
398,1644543062685825586,0.137293100357,-9.58109664917,-0.451105892658,acc,,,
399,1644543062685827732,,,,gyr,-0.0296705961227,0.0104719754308,-0.0523598790169
400,1644543062686328411,,,,gyr,0.0715584978461,-0.0645771846175,0.136135682464
401,1644543062686879158,,,,gyr,-0.0872664600611,0.0750491544604,-0.165806278586
402,1644543062687333822,,,,gyr,0.0104719754308,-0.0209439508617,0.0680678412318
403,1644543062687834501,,,,gyr,0.0523598790169,0.0,-0.069813169539
404,1644543062687842607,0.0980664938688,-9.56148338318,-0.509945809841,acc,,,
405,1644543062688337088,,,,gyr,-0.0872664600611,-0.0471238903701,0.130899697542
406,1644543062688838005,,,,gyr,0.0872664600611,0.0471238903701,-0.0209439508617
407,1644543062689388752,,,,gyr,-0.0785398185253,0.0139626339078,-0.0558505356312
408,1644543062689843178,,,,gyr,0.0418879017234,-0.0680678412318,0.0436332300305
409,1644543062689859152,0.0686465501785,-9.64974308014,-0.529559075832,acc,,,
410,1644543062690343857,,,,gyr,0.0209439508617,0.0191986225545,-0.0680678412318
411,1644543062690846443,,,,gyr,-0.0349065847695,-0.0139626339078,0.0471238903701
412,1644543062691347122,,,,gyr,-0.0296705961227,0.0506145469844,0.0209439508617
413,1644543062691875935,0.12748645246,-9.61051654816,-0.509945809841,acc,,,
414,1644543062691897869,,,,gyr,0.0209439508617,-0.0349065847695,0.0296705961227
415,1644543062692350626,,,,gyr,-0.0349065847695,0.0645771846175,-0.0837758034468
416,1644543062692853212,,,,gyr,0.0680678412318,-0.0296705961227,0.0139626339078
417,1644543062693356037,,,,gyr,0.0104719754308,-0.0139626339078,0.0471238903701
418,1644543062693856716,,,,gyr,-0.0139626339078,0.0191986225545,0.0139626339078
419,1644543062693892479,0.12748645246,-9.61051654816,-0.451105892658,acc,,,
420,1644543062694407463,,,,gyr,-0.0558505356312,0.0418879017234,0.0261799395084
421,1644543062694860220,,,,gyr,0.0471238903701,-0.0383972451091,-0.069813169539
422,1644543062695362806,,,,gyr,-0.0506145469844,0.0174532923847,0.102974422276
423,1644543062695865393,,,,gyr,0.0349065847695,0.0,0.00174532923847
424,1644543062695907354,0.12748645246,-9.57129001617,-0.549172401428,acc,,,
425,1644543062696366072,,,,gyr,0.0139626339078,-0.0837758034468,0.0523598790169
426,1644543062696916819,,,,gyr,-0.0209439508617,0.144862323999,-0.137881010771
427,1644543062697369337,,,,gyr,-0.0104719754308,-0.0436332300305,0.102974422276
428,1644543062697872162,,,,gyr,-0.0226892791688,0.0,0.0
429,1644543062697924137,0.0686465501785,-9.58109664917,-0.490332484245,acc,,,
430,1644543062698374748,,,,gyr,0.0680678412318,-0.0959931090474,-0.0436332300305
431,1644543062698875427,,,,gyr,-0.0506145469844,0.0296705961227,0.0471238903701
432,1644543062699426174,,,,gyr,0.0418879017234,0.0174532923847,-0.0436332300305
433,1644543062699878931,,,,gyr,-0.0872664600611,0.0174532923847,-0.0349065847695
434,1644543062699940920,0.137293100357,-9.62032318115,-0.421685934067,acc,,,
435,1644543062700381517,,,,gyr,0.0645771846175,-0.104719758034,0.157079637051
436,1644543062700884342,,,,gyr,-0.0715584978461,0.11344639957,-0.144862323999
437,1644543062701385021,,,,gyr,0.106465086341,-0.0436332300305,0.0383972451091
438,1644543062701933622,,,,gyr,-0.0523598790169,0.0104719754308,0.0418879017234
439,1644543062701957703,0.137293100357,-9.58109664917,-0.529559075832,acc,,,
440,1644543062702388287,,,,gyr,0.0436332300305,-0.00174532923847,0.00523598771542
441,1644543062702890873,,,,gyr,-0.0977384373546,0.069813169539,-0.0558505356312
442,1644543062703393459,,,,gyr,0.0750491544604,-0.0296705961227,0.122173048556
443,1644543062703894377,,,,gyr,-0.0139626339078,-0.0471238903701,-0.157079637051
444,1644543062703974247,0.0392265990376,-9.62032318115,-0.558979034424,acc,,,
445,1644543062704443216,,,,gyr,-0.0139626339078,0.0593411922455,0.193731546402
446,1644543062704897642,,,,gyr,0.0104719754308,-0.0349065847695,-0.188495561481
447,1644543062705400467,,,,gyr,0.0,0.00174532923847,0.111701071262
448,1644543062705903053,,,,gyr,-0.0139626339078,0.0261799395084,0.0296705961227
449,1644543062705991268,0.0784531980753,-9.64974308014,-0.529559075832,acc,,,
450,1644543062706403732,,,,gyr,0.0506145469844,-0.106465086341,-0.0209439508617
451,1644543062706952333,,,,gyr,-0.0785398185253,0.0471238903701,-0.069813169539
452,1644543062707406998,,,,gyr,0.0785398185253,0.0069813169539,0.0523598790169
453,1644543062707909584,,,,gyr,-0.0383972451091,0.0715584978461,-0.0925024524331
454,1644543062708007813,0.166713044047,-9.58109664917,-0.549172401428,acc,,,
455,1644543062708412409,,,,gyr,-0.0139626339078,-0.0837758034468,0.141371667385
456,1644543062708913088,,,,gyr,0.0069813169539,0.0872664600611,-0.0558505356312
457,1644543062709461927,,,,gyr,-0.0261799395084,-0.0383972451091,0.0104719754308
458,1644543062709916592,,,,gyr,0.0471238903701,-0.0296705961227,-0.0296705961227
459,1644543062710022688,0.137293100357,-9.57129001617,-0.529559075832,acc,,,
460,1644543062710419178,,,,gyr,-0.0471238903701,0.0226892791688,-0.0209439508617
461,1644543062710919857,,,,gyr,0.0,0.0506145469844,0.144862323999
462,1644543062711422682,,,,gyr,-0.00523598771542,-0.0855211317539,-0.153588980436
463,1644543062711971283,,,,gyr,0.0104719754308,0.0959931090474,0.0523598790169
464,1644543062712039232,0.0980664938688,-9.64974308014,-0.490332484245,acc,,,
465,1644543062712425947,,,,gyr,-0.0261799395084,-0.0418879017234,0.0209439508617
466,1644543062712928772,,,,gyr,0.00349065847695,-0.0174532923847,0.0104719754308
467,1644543062713429213,,,,gyr,0.0,0.0942477807403,-0.0349065847695
468,1644543062713931799,,,,gyr,0.0,0.0296705961227,-0.00523598771542
469,1644543062714056253,0.0686465501785,-9.61051654816,-0.558979034424,acc,,,
470,1644543062714480639,,,,gyr,0.0383972451091,-0.0104719754308,0.0959931090474
471,1644543062714935303,,,,gyr,0.0226892791688,-0.0523598790169,-0.0296705961227
472,1644543062715437889,,,,gyr,-0.069813169539,0.0523598790169,-0.00349065847695
473,1644543062715938807,,,,gyr,-0.0069813169539,0.0069813169539,-0.0296705961227
474,1644543062716073036,0.0784531980753,-9.58109664917,-0.509945809841,acc,,,
475,1644543062716441393,,,,gyr,0.0645771846175,0.0139626339078,0.102974422276
476,1644543062716990232,,,,gyr,0.0139626339078,-0.0680678412318,-0.0436332300305
477,1644543062717444897,,,,gyr,-0.0558505356312,0.0872664600611,-0.0209439508617
478,1644543062717947483,,,,gyr,0.0104719754308,0.0209439508617,-0.0104719754308
479,1644543062718089581,0.137293100357,-9.64974308014,-0.490332484245,acc,,,
480,1644543062718447924,,,,gyr,-0.0139626339078,0.0942477807403,0.0750491544604
481,1644543062718950748,,,,gyr,0.0139626339078,-0.130899697542,-0.0069813169539
482,1644543062719499588,,,,gyr,-0.0296705961227,0.141371667385,-0.130899697542
483,1644543062719954014,,,,gyr,-0.0104719754308,-0.0436332300305,0.0942477807403
484,1644543062720106363,0.0784531980753,-9.58109664917,-0.529559075832,acc,,,
485,1644543062720456839,,,,gyr,0.0977384373546,-0.0296705961227,0.0139626339078
486,1644543062720957518,,,,gyr,-0.0383972451091,0.122173048556,0.00523598771542
487,1644543062721460104,,,,gyr,-0.0209439508617,-0.0436332300305,0.0191986225545
488,1644543062722008944,,,,gyr,0.00523598771542,0.0802851468325,-0.069813169539
489,1644543062722123146,0.0784531980753,-9.61051654816,-0.421685934067,acc,,,
490,1644543062722463608,,,,gyr,-0.0349065847695,-0.00174532923847,0.0645771846175
491,1644543062722966194,,,,gyr,0.069813169539,0.0209439508617,0.0523598790169
492,1644543062723467112,,,,gyr,-0.0139626339078,-0.0890117883682,-0.0471238903701
493,1644543062723969698,,,,gyr,-0.0174532923847,0.153588980436,-0.0191986225545
494,1644543062724139929,0.12748645246,-9.61051654816,-0.509945809841,acc,,,
495,1644543062724518299,,,,gyr,-0.0558505356312,0.0174532923847,0.00872664619237
496,1644543062724972963,,,,gyr,0.0785398185253,-0.00349065847695,0.0104719754308
497,1644543062725475550,,,,gyr,-0.0139626339078,0.0104719754308,-0.0349065847695
498,1644543062725976229,,,,gyr,0.0104719754308,0.0436332300305,0.0785398185253
499,1644543062726154566,0.0784531980753,-9.57129001617,-0.490332484245,acc,,,
500,1644543062726479053,,,,gyr,-0.0174532923847,0.0314159244299,-0.0139626339078
501,1644543062727027893,,,,gyr,0.0069813169539,-0.0471238903701,-0.0471238903701
502,1644543062727482319,,,,gyr,-0.0139626339078,0.0959931090474,0.0104719754308
503,1644543062727985144,,,,gyr,0.0506145469844,0.0209439508617,0.0523598790169
504,1644543062728171349,0.0686465501785,-9.58109664917,-0.549172401428,acc,,,
505,1644543062728485823,,,,gyr,-0.0139626339078,0.00174532923847,0.00174532923847
506,1644543062728988409,,,,gyr,-0.0349065847695,0.0715584978461,0.0383972451091
507,1644543062729537010,,,,gyr,0.0069813169539,0.00174532923847,-0.0314159244299
508,1644543062729991674,,,,gyr,-0.00523598771542,-0.0436332300305,0.0558505356312
509,1644543062730187893,0.0784531980753,-9.57129001617,-0.558979034424,acc,,,
510,1644543062730494499,,,,gyr,0.0069813169539,0.102974422276,-0.0855211317539
511,1644543062730995178,,,,gyr,-0.0436332300305,0.0,0.00174532923847
512,1644543062731497765,,,,gyr,0.0872664600611,-0.0593411922455,0.130899697542
513,1644543062732046604,,,,gyr,-0.0436332300305,0.122173048556,-0.0890117883682
514,1644543062732204914,0.0980664938688,-9.62032318115,-0.549172401428,acc,,,
515,1644543062732501268,,,,gyr,0.00523598771542,-0.0506145469844,0.0069813169539
516,1644543062733003855,,,,gyr,0.0191986225545,0.141371667385,-0.00872664619237
517,1644543062733504534,,,,gyr,-0.0296705961227,-0.0506145469844,0.0715584978461
518,1644543062734007359,,,,gyr,0.0,0.0383972451091,-0.0855211317539
519,1644543062734221697,0.0686465501785,-9.57129001617,-0.529559075832,acc,,,
520,1644543062734555960,,,,gyr,0.0,-0.0104719754308,0.115191727877
521,1644543062735010624,,,,gyr,0.0296705961227,0.0471238903701,-0.0837758034468
522,1644543062735513449,,,,gyr,-0.0209439508617,0.0209439508617,0.0226892791688
523,1644543062736013889,,,,gyr,-0.0104719754308,-0.0104719754308,-0.00349065847695
524,1644543062736236334,0.0980664938688,-9.58109664917,-0.490332484245,acc,,,
525,1644543062736516714,,,,gyr,-0.0139626339078,0.123918376863,-0.00174532923847
526,1644543062737065315,,,,gyr,0.0436332300305,-0.0855211317539,-0.00349065847695
527,1644543062737519979,,,,gyr,-0.0226892791688,0.0523598790169,-0.0349065847695
528,1644543062738022804,,,,gyr,-0.0436332300305,0.0785398185253,0.130899697542
529,1644543062738253117,0.0980664938688,-9.61051654816,-0.509945809841,acc,,,
530,1644543062738523483,,,,gyr,0.069813169539,-0.0174532923847,-0.0471238903701
531,1644543062739026070,,,,gyr,-0.0139626339078,0.0872664600611,-0.0523598790169
532,1644543062739574909,,,,gyr,0.0261799395084,-0.0226892791688,-0.00523598771542
533,1644543062740029573,,,,gyr,-0.0349065847695,0.0523598790169,-0.00523598771542
534,1644543062740269661,0.0686465501785,-9.57129001617,-0.451105892658,acc,,,
535,1644543062740532160,,,,gyr,-0.0296705961227,0.0349065847695,0.0680678412318
536,1644543062741033077,,,,gyr,0.0872664600611,-0.0139626339078,-0.0174532923847
537,1644543062741535664,,,,gyr,-0.0715584978461,0.11344639957,-0.00523598771542
538,1644543062742084265,,,,gyr,0.0209439508617,-0.0139626339078,0.0785398185253
539,1644543062742286682,0.0784531980753,-9.56148338318,-0.558979034424,acc,,,
540,1644543062742538929,,,,gyr,-0.0645771846175,0.0558505356312,-0.0750491544604
541,1644543062743041515,,,,gyr,0.0209439508617,0.0191986225545,0.0104719754308
542,1644543062743542194,,,,gyr,0.0383972451091,0.00349065847695,-0.0593411922455
543,1644543062744045019,,,,gyr,-0.069813169539,0.069813169539,0.0837758034468
544,1644543062744303226,0.0784531980753,-9.57129001617,-0.529559075832,acc,,,
545,1644543062744593620,,,,gyr,0.118682384491,0.0226892791688,0.0872664600611
546,1644543062745048046,,,,gyr,-0.0977384373546,0.0104719754308,-0.0523598790169
547,1644543062745550871,,,,gyr,0.0349065847695,0.0349065847695,0.00523598771542
548,1644543062746051311,,,,gyr,-0.0261799395084,0.0680678412318,-0.0296705961227
549,1644543062746319771,0.0784531980753,-9.62032318115,-0.509945809841,acc,,,
550,1644543062746553898,,,,gyr,-0.00872664619237,0.00523598771542,-0.0104719754308
551,1644543062747102737,,,,gyr,0.0506145469844,-0.00349065847695,0.0872664600611
552,1644543062747557163,,,,gyr,-0.0558505356312,0.0645771846175,-0.0349065847695
553,1644543062748059750,,,,gyr,-0.0383972451091,0.00174532923847,-0.00872664619237
554,1644543062748336077,0.0686465501785,-9.58109664917,-0.529559075832,acc,,,
555,1644543062748560429,,,,gyr,0.123918376863,0.148352980614,0.0226892791688
556,1644543062749063015,,,,gyr,-0.115191727877,-0.0279252678156,0.00174532923847
557,1644543062749611855,,,,gyr,0.0750491544604,-0.0104719754308,0.0226892791688
558,1644543062750066280,,,,gyr,-0.0349065847695,0.123918376863,0.0069813169539
559,1644543062750350475,0.0784531980753,-9.61051654816,-0.558979034424,acc,,,
560,1644543062750568867,,,,gyr,-0.0261799395084,0.0383972451091,0.0872664600611
561,1644543062751069546,,,,gyr,-0.0645771846175,0.0436332300305,-0.0523598790169
562,1644543062751572132,,,,gyr,0.11344639957,0.0,-0.106465086341
563,1644543062752120733,,,,gyr,-0.0314159244299,0.0785398185253,0.129154369235
564,1644543062752367258,0.0784531980753,-9.58109664917,-0.509945809841,acc,,,
565,1644543062752575397,,,,gyr,0.0314159244299,0.0767944902182,-0.0523598790169
566,1644543062753077984,,,,gyr,-0.0104719754308,0.0139626339078,0.0872664600611
567,1644543062753578663,,,,gyr,-0.0349065847695,0.0872664600611,-0.0436332300305
568,1644543062754081011,,,,gyr,-0.0174532923847,-0.0104719754308,0.0296705961227
569,1644543062754383564,0.0784531980753,-9.58109664917,-0.509945809841,acc,,,
570,1644543062754629850,,,,gyr,0.0593411922455,0.136135682464,-0.0645771846175
571,1644543062755084515,,,,gyr,-0.0471238903701,-0.0139626339078,0.101229093969
572,1644543062755586863,,,,gyr,0.0104719754308,0.069813169539,-0.0767944902182
573,1644543062756087542,,,,gyr,0.0209439508617,0.0610865242779,-0.0069813169539
574,1644543062756399870,0.0784531980753,-9.57129001617,-0.549172401428,acc,,,
575,1644543062756590128,,,,gyr,-0.0471238903701,0.00523598771542,0.0383972451091
576,1644543062757138968,,,,gyr,-0.0279252678156,0.0750491544604,0.00523598771542
577,1644543062757593393,,,,gyr,0.0296705961227,0.11344639957,0.102974422276
578,1644543062758095980,,,,gyr,-0.0925024524331,-0.0261799395084,-0.0593411922455
579,1644543062758416414,0.0686465501785,-9.58109664917,-0.470719188452,acc,,,
580,1644543062758596659,,,,gyr,0.0383972451091,0.153588980436,0.0383972451091
581,1644543062759099483,,,,gyr,0.0,-0.0523598790169,-0.0174532923847
582,1644543062759647846,,,,gyr,-0.00349065847695,0.162315621972,-0.0872664600611
583,1644543062760102510,,,,gyr,0.0296705961227,0.0226892791688,0.141371667385
584,1644543062760430813,0.0784531980753,-9.58109664917,-0.451105892658,acc,,,
585,1644543062760605097,,,,gyr,-0.0261799395084,0.111701071262,-0.109955742955
586,1644543062761105776,,,,gyr,0.0139626339078,0.0645771846175,0.0785398185253
587,1644543062761608362,,,,gyr,-0.00349065847695,0.0750491544604,0.0139626339078
588,1644543062762156963,,,,gyr,-0.0785398185253,0.106465086341,0.0104719754308
589,1644543062762447357,0.0980664938688,-9.61051654816,-0.451105892658,acc,,,
590,1644543062762611628,,,,gyr,0.115191727877,0.0104719754308,0.0104719754308
591,1644543062763114214,,,,gyr,0.00523598771542,0.104719758034,-0.0104719754308
592,1644543062763614655,,,,gyr,-0.0174532923847,0.109955742955,0.0209439508617
593,1644543062764117479,,,,gyr,-0.0174532923847,0.0523598790169,0.0785398185253
594,1644543062764463902,0.0294199492782,-9.64974308014,-0.470719188452,acc,,,
595,1644543062764666080,,,,gyr,0.00523598771542,0.0942477807403,-0.0872664600611
596,1644543062765120506,,,,gyr,-0.0418879017234,0.0767944902182,0.0785398185253
597,1644543062765623331,,,,gyr,0.0680678412318,0.153588980436,0.0261799395084
598,1644543062766123772,,,,gyr,-0.0645771846175,0.069813169539,-0.0506145469844
599,1644543062766480207,0.0294199492782,-9.58109664917,-0.402072638273,acc,,,
600,1644543062766626358,,,,gyr,0.069813169539,0.0872664600611,0.0418879017234
601,1644543062767174959,,,,gyr,-0.0872664600611,0.153588980436,-0.0802851468325
602,1644543062767629623,,,,gyr,0.0296705961227,0.0872664600611,0.0802851468325
603,1644543062768496513,0.12748645246,-9.61051654816,-0.421685934067,acc,,,
604,1644543062768632889,,,,gyr,-0.0226892791688,0.183259576559,-0.0558505356312
605,1644543062769135475,,,,gyr,-0.00174532923847,0.0645771846175,0.0558505356312
606,1644543062769684076,,,,gyr,0.0209439508617,0.130899697542,-0.0942477807403
607,1644543062770138741,,,,gyr,0.0314159244299,0.148352980614,0.139626339078
608,1644543062770513296,0.0686465501785,-9.58109664917,-0.470719188452,acc,,,
609,1644543062770639420,,,,gyr,-0.00349065847695,0.106465086341,-0.0925024524331
610,1644543062771141768,,,,gyr,0.0558505356312,0.153588980436,0.104719758034
611,1644543062771644592,,,,gyr,-0.0750491544604,0.280998021364,-0.0558505356312
612,1644543062772193193,,,,gyr,0.0174532923847,0.0610865242779,0.0610865242779
613,1644543062772529602,0.0686465501785,-9.62032318115,-0.402072638273,acc,,,
614,1644543062772647619,,,,gyr,0.0471238903701,0.211184844375,0.0174532923847
615,1644543062773148537,,,,gyr,-0.0418879017234,0.0872664600611,0.0139626339078
616,1644543062773650885,,,,gyr,0.0296705961227,0.193731546402,-0.0925024524331
617,1644543062774153471,,,,gyr,0.0349065847695,0.0785398185253,0.0767944902182
618,1644543062774546146,0.0784531980753,-9.57129001617,-0.451105892658,acc,,,
619,1644543062774702072,,,,gyr,-0.0523598790169,0.211184844375,0.132645025849
620,1644543062775156736,,,,gyr,-0.0069813169539,0.162315621972,-0.106465086341
621,1644543062775657415,,,,gyr,0.0104719754308,0.137881010771,-0.0139626339078
622,1644543062776160002,,,,gyr,0.00349065847695,0.176278248429,0.0226892791688
623,1644543062776562452,0.12748645246,-9.61051654816,-0.451105892658,acc,,,
624,1644543062776662588,,,,gyr,-0.0349065847695,0.193731546402,0.115191727877
625,1644543062777211189,,,,gyr,0.0558505356312,0.0872664600611,-0.106465086341
626,1644543062777665854,,,,gyr,-0.00349065847695,0.193731546402,0.102974422276
627,1644543062778166533,,,,gyr,0.0506145469844,0.183259576559,-0.0296705961227
628,1644543062778578758,0.0294199492782,-9.58109664917,-0.509945809841,acc,,,
629,1644543062778669119,,,,gyr,0.00174532923847,0.202458187938,0.144862323999
630,1644543062779171705,,,,gyr,-0.0349065847695,0.167551606894,-0.0872664600611
631,1644543062779720545,,,,gyr,-0.0349065847695,0.214675500989,-0.00174532923847
632,1644543062780174732,,,,gyr,0.0610865242779,0.0715584978461,0.11344639957
633,1644543062780593395,0.0686465501785,-9.61051654816,-0.529559075832,acc,,,
634,1644543062780675650,,,,gyr,0.0139626339078,0.267035365105,-0.150098308921
635,1644543062781178236,,,,gyr,-0.0558505356312,0.104719758034,0.228638127446
636,1644543062781680584,,,,gyr,-0.0069813169539,0.158824965358,-0.200712859631
637,1644543062782229424,,,,gyr,0.0785398185253,0.171042263508,0.188495561481
638,1644543062782609940,0.0980664938688,-9.66935634613,-0.421685934067,acc,,,
639,1644543062782683849,,,,gyr,-0.0523598790169,0.23212878406,-0.0593411922455
640,1644543062783184528,,,,gyr,0.0593411922455,0.153588980436,-0.00523598771542
641,1644543062783687353,,,,gyr,-0.0558505356312,0.171042263508,-0.0226892791688
642,1644543062784189701,,,,gyr,0.0296705961227,0.254818081856,0.0
643,1644543062784626245,0.0980664938688,-9.62032318115,-0.490332484245,acc,,,
644,1644543062784738541,,,,gyr,-0.0436332300305,0.150098308921,0.176278248429
645,1644543062785193205,,,,gyr,0.122173048556,0.171042263508,-0.0471238903701
646,1644543062785693645,,,,gyr,-0.0715584978461,0.183259576559,-0.0209439508617
647,1644543062786196232,,,,gyr,-0.0139626339078,0.28274333477,0.0802851468325
648,1644543062786642790,0.0980664938688,-9.58109664917,-0.470719188452,acc,,,
649,1644543062786698818,,,,gyr,0.0645771846175,0.130899697542,-0.0279252678156
650,1644543062787247658,,,,gyr,0.0314159244299,0.226892799139,-0.0296705961227
651,1644543062787702084,,,,gyr,0.0,0.254818081856,0.0226892791688
652,1644543062788202524,,,,gyr,-0.0296705961227,0.132645025849,0.0715584978461
653,1644543062788659096,0.0392265990376,-9.62032318115,-0.402072638273,acc,,,
654,1644543062788705349,,,,gyr,-0.0314159244299,0.350811183453,0.0418879017234
655,1644543062789207697,,,,gyr,0.0802851468325,0.228638127446,-0.0174532923847
656,1644543062789756536,,,,gyr,-0.0104719754308,0.218166157603,0.106465086341
657,1644543062790211201,,,,gyr,-0.0558505356312,0.191986218095,-0.0785398185253
658,1644543062790675879,0.12748645246,-9.61051654816,-0.402072638273,acc,,,
659,1644543062790711641,,,,gyr,0.0837758034468,0.228638127446,0.0523598790169
660,1644543062791214466,,,,gyr,-0.0191986225545,0.291469991207,0.0872664600611
661,1644543062791717052,,,,gyr,0.0069813169539,0.214675500989,-0.0383972451091
662,1644543062792265654,,,,gyr,0.0436332300305,0.211184844375,-0.0139626339078
663,1644543062792692184,0.12748645246,-9.57129001617,-0.529559075832,acc,,,
664,1644543062792720318,,,,gyr,0.0209439508617,0.237364768982,0.0872664600611
665,1644543062793220758,,,,gyr,-0.0174532923847,0.244346097112,0.0802851468325
666,1644543062793723345,,,,gyr,-0.0069813169539,0.214675500989,-0.0610865242779
667,1644543062794226170,,,,gyr,0.0314159244299,0.202458187938,0.069813169539
668,1644543062794708490,0.12748645246,-9.61051654816,-0.598205626011,acc,,,
669,1644543062794774771,,,,gyr,0.00174532923847,0.235619440675,0.00523598771542
670,1644543062795229197,,,,gyr,-0.0767944902182,0.158824965358,0.0837758034468
671,1644543062795729637,,,,gyr,0.176278248429,0.167551606894,0.0261799395084
672,1644543062796232462,,,,gyr,-0.130899697542,0.240855440497,-0.111701071262
673,1644543062796725035,0.176519691944,-9.58109664917,-0.725692093372,acc,,,
674,1644543062796735048,,,,gyr,0.11344639957,0.102974422276,0.104719758034
675,1644543062797283649,,,,gyr,-0.0069813169539,0.137881010771,0.0314159244299
676,1644543062797738314,,,,gyr,0.0209439508617,0.141371667385,0.0174532923847
677,1644543062798238754,,,,gyr,-0.0209439508617,0.106465086341,-0.00174532923847
678,1644543062798741341,0.245166242123,-9.66935634613,-0.725692093372,acc,,,
679,1644543062798741341,,,,gyr,-0.0209439508617,0.0593411922455,-0.0558505356312
680,1644543062799244165,,,,gyr,-0.0418879017234,0.0593411922455,0.0523598790169
681,1644543062799792767,,,,gyr,0.0680678412318,0.150098308921,0.0872664600611
682,1644543062800247431,,,,gyr,0.0209439508617,-0.0750491544604,-0.101229093969
683,1644543062800747871,,,,gyr,-0.00174532923847,0.0785398185253,-0.0104719754308
684,1644543062800755978,-0.0784531980753,-9.45361042023,-0.696272134781,acc,,,
685,1644543062801250458,,,,gyr,-0.0296705961227,0.0715584978461,0.122173048556
686,1644543062801753283,,,,gyr,0.0506145469844,0.0,-0.0296705961227
687,1644543062802301645,,,,gyr,-0.0471238903701,0.0314159244299,-0.00523598771542
688,1644543062802756310,,,,gyr,0.00523598771542,0.0855211317539,-0.0436332300305
689,1644543062802774429,0.00980664975941,-9.66935634613,-0.421685934067,acc,,,
690,1644543062803256989,,,,gyr,0.0523598790169,-0.0104719754308,0.0069813169539
691,1644543062803759575,,,,gyr,-0.0349065847695,0.118682384491,0.0296705961227
692,1644543062804262161,,,,gyr,0.0261799395084,0.0191986225545,-0.148352980614
693,1644543062804790735,0.176519691944,-9.61051654816,-0.313812792301,acc,,,
694,1644543062804810762,,,,gyr,-0.141371667385,0.137881010771,0.144862323999
695,1644543062805265427,,,,gyr,0.069813169539,0.0645771846175,-0.0104719754308
696,1644543062805766106,,,,gyr,-0.0174532923847,0.0925024524331,0.00349065847695
697,1644543062806268454,,,,gyr,0.101229093969,0.104719758034,0.0942477807403
698,1644543062806769371,,,,gyr,-0.0174532923847,0.0418879017234,-0.141371667385
699,1644543062806823254,0.166713044047,-9.61051654816,-0.362846046686,acc,,,
700,1644543062807319880,,,,gyr,-0.0680678412318,0.157079637051,0.127409040928
701,1644543062807774305,,,,gyr,-0.0261799395084,0.185004904866,-0.106465086341
702,1644543062808275223,,,,gyr,0.123918376863,0.0296705961227,0.167551606894
703,1644543062808777571,,,,gyr,-0.104719758034,0.150098308921,-0.069813169539
704,1644543062808821678,-0.0392265990376,-9.61051654816,-0.38245934248,acc,,,
705,1644543062809278250,,,,gyr,-0.0523598790169,0.132645025849,0.00523598771542
706,1644543062809828758,,,,gyr,0.0977384373546,0.0942477807403,0.0226892791688
707,1644543062810283422,,,,gyr,0.0349065847695,0.144862323999,0.0418879017234
708,1644543062810784101,,,,gyr,-0.0715584978461,0.188495561481,-0.0925024524331
709,1644543062810840130,0.0686465501785,-9.67916297913,-0.451105892658,acc,,,
710,1644543062811286688,,,,gyr,0.0261799395084,0.102974422276,0.165806278586
711,1644543062811787367,,,,gyr,0.0226892791688,0.200712859631,-0.0558505356312
712,1644543062812337875,,,,gyr,0.00872664619237,0.11344639957,0.104719758034
713,1644543062812792540,,,,gyr,-0.0261799395084,0.167551606894,-0.0925024524331
714,1644543062812856674,0.137293100357,-9.57129001617,-0.402072638273,acc,,,
715,1644543062813293219,,,,gyr,0.0,0.141371667385,0.0872664600611
716,1644543062813795567,,,,gyr,0.0750491544604,0.141371667385,-0.139626339078
717,1644543062814296484,,,,gyr,-0.0471238903701,0.069813169539,0.0558505356312
718,1644543062814847231,,,,gyr,0.0261799395084,0.0104719754308,-0.0226892791688
719,1644543062814872980,0.343232750893,-9.61051654816,-0.774725317955,acc,,,
720,1644543062815301418,,,,gyr,-0.104719758034,0.0680678412318,0.0174532923847
721,1644543062815802336,,,,gyr,0.0523598790169,-0.0349065847695,-0.0855211317539
722,1644543062816304922,,,,gyr,0.0,0.0209439508617,0.0645771846175
723,1644543062816807270,,,,gyr,0.0104719754308,-0.0436332300305,0.0471238903701
724,1644543062816889763,-0.0686465501785,-9.53206348419,-0.686465501785,acc,,,
725,1644543062817356110,,,,gyr,0.0139626339078,0.0296705961227,-0.0506145469844
726,1644543062817810535,,,,gyr,-0.0855211317539,0.0610865242779,-0.00174532923847
727,1644543062818311214,,,,gyr,0.069813169539,-0.0837758034468,0.0261799395084
728,1644543062818814039,,,,gyr,-0.0174532923847,0.0104719754308,-0.0069813169539
729,1644543062818906069,0.12748645246,-9.78703689575,-0.529559075832,acc,,,
730,1644543062819314480,,,,gyr,-0.0226892791688,-0.0069813169539,-0.0349065847695
731,1644543062819865227,,,,gyr,0.0383972451091,-0.0261799395084,0.0959931090474
732,1644543062820319653,,,,gyr,-0.0523598790169,0.0349065847695,-0.069813169539
733,1644543062820922375,0.0294199492782,-9.39477062225,-0.451105892658,acc,,,
734,1644543062821322918,,,,gyr,-0.0802851468325,0.0837758034468,-0.0872664600611
735,1644543062821823597,,,,gyr,0.0314159244299,-0.00872664619237,-0.0680678412318
736,1644543062822374344,,,,gyr,0.0593411922455,-0.0645771846175,0.00523598771542
737,1644543062822828770,,,,gyr,-0.0418879017234,0.0959931090474,0.0767944902182
738,1644543062822938919,0.137293100357,-9.62032318115,-0.490332484245,acc,,,
739,1644543062823329449,,,,gyr,-0.0261799395084,-0.00349065847695,0.0436332300305
740,1644543062823832035,,,,gyr,-0.0139626339078,0.0174532923847,-0.0506145469844
741,1644543062824332476,,,,gyr,0.0,-0.0104719754308,-0.0139626339078
742,1644543062824883223,,,,gyr,0.0314159244299,0.0226892791688,0.104719758034
743,1644543062824955225,0.0784531980753,-9.66935634613,-0.402072638273,acc,,,
744,1644543062825337887,,,,gyr,-0.0610865242779,-0.0261799395084,-0.0872664600611
745,1644543062825838327,,,,gyr,-0.0139626339078,0.0279252678156,-0.0261799395084
746,1644543062826341152,,,,gyr,0.0069813169539,-0.069813169539,0.0645771846175
747,1644543062826841593,,,,gyr,-0.0296705961227,0.0785398185253,-0.0593411922455
748,1644543062826971769,0.0784531980753,-9.56148338318,-0.402072638273,acc,,,
749,1644543062827392340,,,,gyr,-0.0104719754308,-0.0104719754308,-0.0104719754308
750,1644543062827847004,,,,gyr,0.0209439508617,-0.0436332300305,-0.0069813169539
751,1644543062828347445,,,,gyr,-0.0296705961227,-0.0174532923847,-0.0471238903701
752,1644543062828850031,,,,gyr,0.0104719754308,0.0209439508617,0.0959931090474
753,1644543062828988314,0.0686465501785,-9.56148338318,-0.470719188452,acc,,,
754,1644543062829350471,,,,gyr,0.0436332300305,-0.00872664619237,0.0296705961227
755,1644543062829901457,,,,gyr,-0.0436332300305,0.0750491544604,-0.0750491544604
756,1644543062830355883,,,,gyr,0.0104719754308,-0.0558505356312,0.0174532923847
757,1644543062830856562,,,,gyr,-0.0104719754308,-0.0139626339078,-0.123918376863
758,1644543062831004620,0.0784531980753,-9.64974308014,-0.451105892658,acc,,,
759,1644543062831359148,,,,gyr,-0.0436332300305,0.0383972451091,0.171042263508
760,1644543062831859589,,,,gyr,0.0314159244299,-0.00174532923847,-0.171042263508
761,1644543062832410336,,,,gyr,-0.0436332300305,-0.0506145469844,0.193731546402
762,1644543062832863092,,,,gyr,0.0872664600611,0.00523598771542,-0.0349065847695
763,1644543062833021164,0.0980664938688,-9.57129001617,-0.421685934067,acc,,,
764,1644543062833365440,,,,gyr,-0.0471238903701,0.0436332300305,-0.0436332300305
765,1644543062833868265,,,,gyr,0.0279252678156,-0.0226892791688,-0.0104719754308
766,1644543062834368706,,,,gyr,-0.0261799395084,0.0069813169539,0.0750491544604
767,1644543062834919453,,,,gyr,-0.0209439508617,0.0,-0.0715584978461
768,1644543062835037708,0.0980664938688,-9.57129001617,-0.421685934067,acc,,,
769,1644543062835371971,,,,gyr,-0.0261799395084,-0.0209439508617,0.0296705961227
770,1644543062835874557,,,,gyr,0.0,0.0191986225545,-0.00174532923847
771,1644543062836377144,,,,gyr,0.0,0.00349065847695,-0.00872664619237
772,1644543062836877823,,,,gyr,0.0296705961227,0.0349065847695,-0.0802851468325
773,1644543062837054014,0.0980664938688,-9.66935634613,-0.509945809841,acc,,,
774,1644543062837428570,,,,gyr,-0.0506145469844,-0.0296705961227,0.0383972451091
775,1644543062837881088,,,,gyr,0.0349065847695,0.0296705961227,0.0872664600611
776,1644543062838383436,,,,gyr,-0.00523598771542,0.0209439508617,-0.0558505356312
777,1644543062838886261,,,,gyr,-0.00174532923847,0.0,-0.0296705961227
778,1644543062839070559,0.12748645246,-9.66935634613,-0.470719188452,acc,,,
779,1644543062839386940,,,,gyr,-0.0209439508617,-0.0104719754308,0.069813169539
780,1644543062839937449,,,,gyr,-0.0226892791688,-0.0261799395084,-0.109955742955
781,1644543062840392113,,,,gyr,0.0139626339078,-0.0296705961227,0.130899697542
782,1644543062840892553,,,,gyr,0.0,0.0349065847695,-0.0680678412318
783,1644543062841086864,0.0980664938688,-9.58109664917,-0.529559075832,acc,,,
784,1644543062841395378,,,,gyr,-0.0104719754308,-0.0104719754308,-0.0471238903701
785,1644543062841896057,,,,gyr,-0.0349065847695,0.0191986225545,0.102974422276
786,1644543062842446566,,,,gyr,-0.0139626339078,-0.00872664619237,-0.0610865242779
787,1644543062842901230,,,,gyr,0.0715584978461,-0.0296705961227,0.0436332300305
788,1644543062843103170,0.137293100357,-9.61051654816,-0.509945809841,acc,,,
789,1644543062843401909,,,,gyr,-0.0715584978461,0.0436332300305,-0.0523598790169
790,1644543062843904257,,,,gyr,0.0383972451091,0.0104719754308,0.130899697542
791,1644543062844404936,,,,gyr,-0.069813169539,-0.0715584978461,-0.102974422276
792,1644543062844955683,,,,gyr,-0.00174532923847,0.0139626339078,-0.0209439508617
793,1644543062845119953,0.12748645246,-9.64974308014,-0.509945809841,acc,,,
794,1644543062845410109,,,,gyr,0.0942477807403,0.0296705961227,0.00872664619237
795,1644543062845910788,,,,gyr,-0.0523598790169,-0.0471238903701,0.0872664600611
796,1644543062846413374,,,,gyr,-0.00872664619237,0.0436332300305,-0.0959931090474
797,1644543062846914053,,,,gyr,0.0872664600611,-0.0261799395084,0.0436332300305
798,1644543062847136259,0.0392265990376,-9.53206348419,-0.529559075832,acc,,,
799,1644543062847462654,,,,gyr,-0.104719758034,0.0959931090474,-0.0191986225545
800,1644543062847919226,,,,gyr,0.0471238903701,-0.106465086341,0.118682384491
801,1644543062848419905,,,,gyr,-0.0139626339078,-0.0261799395084,-0.11344639957
802,1644543062848922253,,,,gyr,0.00523598771542,0.104719758034,0.0680678412318
803,1644543062849152803,0.0980664938688,-9.64974308014,-0.509945809841,acc,,,
804,1644543062849423170,,,,gyr,-0.00174532923847,-0.0610865242779,-0.0872664600611
805,1644543062849973679,,,,gyr,-0.0191986225545,0.00174532923847,0.0837758034468
806,1644543062850426197,,,,gyr,-0.0261799395084,0.0436332300305,-0.0349065847695
807,1644543062850929022,,,,gyr,0.0383972451091,-0.0436332300305,0.0436332300305
808,1644543062851169109,0.12748645246,-9.58109664917,-0.509945809841,acc,,,
809,1644543062851431370,,,,gyr,-0.101229093969,0.0610865242779,-0.0104719754308
810,1644543062851932049,,,,gyr,0.0506145469844,-0.0785398185253,-0.0104719754308
811,1644543062852480650,,,,gyr,-0.0471238903701,0.0349065847695,-0.0296705961227
812,1644543062852935314,,,,gyr,0.0558505356312,-0.0436332300305,0.0296705961227
813,1644543062853185654,0.137293100357,-9.58109664917,-0.549172401428,acc,,,
814,1644543062853437901,,,,gyr,0.0139626339078,0.0261799395084,0.0226892791688
815,1644543062853940487,,,,gyr,-0.0104719754308,-0.0314159244299,0.0296705961227
816,1644543062854441166,,,,gyr,-0.0436332300305,0.069813169539,-0.0645771846175
817,1644543062854989767,,,,gyr,0.0523598790169,-0.0174532923847,0.0
818,1644543062855202198,0.0980664938688,-9.61051654816,-0.549172401428,acc,,,
819,1644543062855444431,,,,gyr,-0.0523598790169,-0.00174532923847,0.0558505356312
820,1644543062855947018,,,,gyr,-0.0436332300305,-0.0104719754308,-0.115191727877
821,1644543062856449366,,,,gyr,0.0314159244299,0.0174532923847,0.179768905044
822,1644543062856950283,,,,gyr,0.0383972451091,-0.069813169539,-0.0279252678156
823,1644543062857218504,0.137293100357,-9.57129001617,-0.627625584602,acc,,,
824,1644543062857498884,,,,gyr,-0.0471238903701,0.0523598790169,-0.0558505356312
825,1644543062857953310,,,,gyr,0.0418879017234,-0.0226892791688,0.0750491544604
826,1644543062858456135,,,,gyr,-0.0610865242779,0.0139626339078,-0.0104719754308
827,1644543062858958721,,,,gyr,0.00174532923847,0.0261799395084,0.0069813169539
828,1644543062859234810,0.12748645246,-9.56148338318,-0.549172401428,acc,,,
829,1644543062859459162,,,,gyr,-0.0226892791688,-0.0471238903701,0.0296705961227
830,1644543062860007763,,,,gyr,0.0226892791688,0.0069813169539,-0.00174532923847
831,1644543062860462427,,,,gyr,0.00174532923847,-0.0296705961227,-0.0349065847695
832,1644543062860965014,,,,gyr,0.0349065847695,0.0471238903701,0.0610865242779
833,1644543062861251354,0.176519691944,-9.57129001617,-0.529559075832,acc,,,
834,1644543062861467838,,,,gyr,-0.0418879017234,-0.0296705961227,0.0104719754308
835,1644543062861968279,,,,gyr,-0.0349065847695,0.0471238903701,-0.0977384373546
836,1644543062862519026,,,,gyr,0.0506145469844,-0.130899697542,0.102974422276
837,1644543062862971544,,,,gyr,-0.0383972451091,0.174532920122,-0.0296705961227
838,1644543062863265753,0.12748645246,-9.75761604309,-0.598205626011,acc,,,
839,1644543062863474131,,,,gyr,-0.0645771846175,-0.106465086341,0.0506145469844
840,1644543062863976717,,,,gyr,0.0383972451091,0.0383972451091,-0.0645771846175
841,1644543062864477396,,,,gyr,0.0139626339078,-0.0191986225545,-0.0139626339078
842,1644543062865025997,,,,gyr,-0.0418879017234,0.00523598771542,0.111701071262
843,1644543062865284204,0.176519691944,-9.58109664917,-0.627625584602,acc,,,
844,1644543062865480423,,,,gyr,0.0349065847695,0.0436332300305,-0.0069813169539
845,1644543062865983248,,,,gyr,-0.0680678412318,-0.0523598790169,-0.0383972451091
846,1644543062866485834,,,,gyr,0.069813169539,-0.0209439508617,-0.0296705961227
847,1644543062866986275,,,,gyr,-0.0349065847695,-0.0209439508617,0.0174532923847
848,1644543062867300749,0.0392265990376,-9.42419052124,-0.558979034424,acc,,,
849,1644543062867534876,,,,gyr,-0.0645771846175,0.0436332300305,0.0977384373546
850,1644543062867989540,,,,gyr,0.0959931090474,-0.0104719754308,-0.0959931090474
851,1644543062868492126,,,,gyr,-0.0209439508617,0.0,0.0
852,1644543062868994951,,,,gyr,-0.0139626339078,-0.0139626339078,0.0802851468325
853,1644543062869317055,0.196132987738,-9.67916297913,-0.549172401428,acc,,,
854,1644543062869495392,,,,gyr,-0.0418879017234,0.0349065847695,0.0
855,1644543062870044231,,,,gyr,0.0139626339078,0.00872664619237,-0.0296705961227
856,1644543062870498419,,,,gyr,0.0,-0.0069813169539,0.118682384491
857,1644543062871001244,,,,gyr,-0.0191986225545,-0.069813169539,-0.165806278586
858,1644543062871331453,0.196132987738,-9.7478094101,-0.549172401428,acc,,,
859,1644543062871503830,,,,gyr,0.0523598790169,0.0104719754308,0.101229093969
860,1644543062872004509,,,,gyr,0.0,0.0383972451091,-0.0593411922455
861,1644543062872553110,,,,gyr,-0.0209439508617,-0.0139626339078,-0.0069813169539
862,1644543062873007536,,,,gyr,-0.00174532923847,-0.0104719754308,0.150098308921
863,1644543062873348236,0.0784531980753,-9.56148338318,-0.57859236002,acc,,,
864,1644543062873510361,,,,gyr,-0.0715584978461,0.00349065847695,-0.0872664600611
865,1644543062874011040,,,,gyr,0.0558505356312,-0.0645771846175,-0.0174532923847
866,1644543062874513388,,,,gyr,-0.0349065847695,0.111701071262,-0.0174532923847
867,1644543062875062227,,,,gyr,0.0296705961227,0.00174532923847,0.0104719754308
868,1644543062875364542,0.137293100357,-9.53206348419,-0.666852176189,acc,,,
869,1644543062875516653,,,,gyr,0.0226892791688,-0.0506145469844,0.00872664619237
870,1644543062876019239,,,,gyr,-0.0104719754308,0.0,-0.00349065847695
871,1644543062876519918,,,,gyr,-0.0349065847695,0.0191986225545,0.0925024524331
872,1644543062877022505,,,,gyr,-0.0226892791688,-0.069813169539,-0.0349065847695
873,1644543062877380848,0.225552946329,-9.66935634613,-0.57859236002,acc,,,
874,1644543062877571344,,,,gyr,-0.00872664619237,0.0436332300305,-0.0506145469844
875,1644543062878025770,,,,gyr,0.0767944902182,-0.0523598790169,0.0558505356312
876,1644543062878528357,,,,gyr,-0.0925024524331,0.0785398185253,0.0191986225545
877,1644543062879029036,,,,gyr,0.0610865242779,0.0191986225545,-0.0174532923847
878,1644543062879397392,0.166713044047,-9.58109664917,-0.558979034424,acc,,,
879,1644543062879531384,,,,gyr,-0.0506145469844,-0.0296705961227,0.0977384373546
880,1644543062880080223,,,,gyr,-0.0139626339078,0.0139626339078,-0.104719758034
881,1644543062880534887,,,,gyr,-0.00174532923847,0.00174532923847,-0.0314159244299
882,1644543062881037235,,,,gyr,0.0104719754308,0.00523598771542,-0.00174532923847
883,1644543062881413937,0.0784531980753,-9.61051654816,-0.598205626011,acc,,,
884,1644543062881538153,,,,gyr,0.00174532923847,-0.0715584978461,-0.00523598771542
885,1644543062882040501,,,,gyr,-0.0523598790169,-0.0226892791688,0.0523598790169
886,1644543062882589340,,,,gyr,0.0471238903701,0.0872664600611,-0.0349065847695
887,1644543062883044004,,,,gyr,0.0209439508617,-0.0558505356312,0.0104719754308
888,1644543062883430481,0.137293100357,-9.66935634613,-0.627625584602,acc,,,
889,1644543062883546352,,,,gyr,-0.0174532923847,0.0296705961227,0.0104719754308
890,1644543062884047031,,,,gyr,0.0069813169539,-0.0558505356312,0.00349065847695
891,1644543062884549618,,,,gyr,-0.0855211317539,0.0558505356312,-0.00523598771542
892,1644543062885098457,,,,gyr,0.106465086341,-0.00523598771542,0.0349065847695
893,1644543062885446787,0.0980664938688,-9.57129001617,-0.57859236002,acc,,,
894,1644543062885552883,,,,gyr,-0.102974422276,0.0174532923847,0.0436332300305
895,1644543062886055470,,,,gyr,0.0925024524331,0.0209439508617,-0.0104719754308
896,1644543062886556149,,,,gyr,-0.0715584978461,-0.0593411922455,0.0069813169539
897,1644543062887058735,,,,gyr,-0.0174532923847,0.0139626339078,-0.130899697542
898,1644543062887463093,0.0686465501785,-9.61051654816,-0.558979034424,acc,,,
899,1644543062887607336,,,,gyr,0.0279252678156,-0.0314159244299,0.0837758034468
900,1644543062888062000,,,,gyr,0.0314159244299,0.0069813169539,0.11344639957
901,1644543062888564348,,,,gyr,-0.0209439508617,-0.0069813169539,-0.197222203016
902,1644543062889065266,,,,gyr,0.0261799395084,0.0226892791688,0.132645025849
903,1644543062889479637,0.0784531980753,-9.61051654816,-0.598205626011,acc,,,
904,1644543062889567852,,,,gyr,-0.0436332300305,0.0261799395084,-0.0261799395084
905,1644543062890116453,,,,gyr,-0.0191986225545,-0.00523598771542,0.0872664600611
906,1644543062890571117,,,,gyr,0.0296705961227,-0.0523598790169,-0.0959931090474
907,1644543062891073465,,,,gyr,-0.0314159244299,0.00349065847695,-0.0296705961227
908,1644543062891498089,0.137293100357,-9.61051654816,-0.627625584602,acc,,,
909,1644543062891574144,,,,gyr,0.0104719754308,0.0645771846175,0.0296705961227
910,1644543062892076969,,,,gyr,0.0069813169539,-0.0104719754308,0.0191986225545
911,1644543062892625570,,,,gyr,-0.0139626339078,0.00174532923847,0.0471238903701
912,1644543062893079996,,,,gyr,-0.00174532923847,-0.0104719754308,-0.0506145469844
913,1644543062893514633,0.0784531980753,-9.56148338318,-0.529559075832,acc,,,
914,1644543062893582582,,,,gyr,0.00872664619237,-0.0069813169539,-0.0558505356312
915,1644543062894083261,,,,gyr,-0.0226892791688,-0.0069813169539,0.0610865242779
916,1644543062894585848,,,,gyr,0.0069813169539,0.00523598771542,0.00349065847695
917,1644543062895134449,,,,gyr,-0.0296705961227,-0.00523598771542,-0.0785398185253
918,1644543062895530939,0.0784531980753,-9.58109664917,-0.627625584602,acc,,,
919,1644543062895589113,,,,gyr,0.11344639957,-0.0296705961227,0.150098308921
920,1644543062896091461,,,,gyr,-0.069813169539,0.0436332300305,-0.0523598790169
921,1644543062896592379,,,,gyr,0.0942477807403,-0.0069813169539,0.0750491544604
922,1644543062897094965,,,,gyr,-0.0959931090474,0.0104719754308,-0.0767944902182
923,1644543062897547245,0.0980664938688,-9.58109664917,-0.549172401428,acc,,,
924,1644543062897643566,,,,gyr,0.0506145469844,-0.0558505356312,0.0174532923847
925,1644543062898098230,,,,gyr,-0.0471238903701,0.0139626339078,-0.0785398185253
926,1644543062898600817,,,,gyr,-0.0349065847695,-0.00523598771542,0.153588980436
927,1644543062899101257,,,,gyr,0.0715584978461,0.00872664619237,-0.0925024524331
928,1644543062899564028,0.0784531980753,-9.58109664917,-0.490332484245,acc,,,
929,1644543062899604082,,,,gyr,-0.0296705961227,0.0174532923847,0.0296705961227
930,1644543062900152683,,,,gyr,0.0261799395084,-0.0226892791688,0.0296705961227
931,1644543062900607109,,,,gyr,-0.00523598771542,-0.0715584978461,-0.0296705961227
932,1644543062901109934,,,,gyr,-0.0471238903701,0.0523598790169,-0.0523598790169
933,1644543062901580334,0.0686465501785,-9.61051654816,-0.509945809841,acc,,,
934,1644543062901610374,,,,gyr,0.0349065847695,0.0349065847695,0.129154369235
935,1644543062902112961,,,,gyr,0.0523598790169,-0.0349065847695,-0.0645771846175
936,1644543062902661562,,,,gyr,-0.127409040928,0.0436332300305,-0.0139626339078
937,1644543062903116226,,,,gyr,0.069813169539,-0.0349065847695,0.0506145469844
938,1644543062903596640,0.0784531980753,-9.61051654816,-0.558979034424,acc,,,
939,1644543062903618813,,,,gyr,-0.0349065847695,0.0279252678156,0.0209439508617
940,1644543062904119492,,,,gyr,0.0174532923847,-0.0349065847695,0.0296705961227
941,1644543062904622078,,,,gyr,-0.0261799395084,0.0436332300305,-0.111701071262
942,1644543062905170679,,,,gyr,-0.0139626339078,-0.0174532923847,0.102974422276
943,1644543062905613184,0.0784531980753,-9.62032318115,-0.509945809841,acc,,,
944,1644543062905625343,,,,gyr,0.0,-0.0610865242779,-0.144862323999
945,1644543062906127930,,,,gyr,0.0279252678156,0.0785398185253,0.111701071262
946,1644543062906628370,,,,gyr,0.00349065847695,-0.0139626339078,-0.0261799395084
947,1644543062907131195,,,,gyr,-0.0558505356312,0.0209439508617,0.102974422276
948,1644543062907629728,0.12748645246,-9.58109664917,-0.529559075832,acc,,,
949,1644543062907679796,,,,gyr,0.0610865242779,0.0139626339078,-0.0104719754308
950,1644543062908134222,,,,gyr,-0.0872664600611,-0.0174532923847,-0.104719758034
951,1644543062908637047,,,,gyr,0.0523598790169,0.00523598771542,0.0523598790169
952,1644543062909137487,,,,gyr,0.0104719754308,0.0261799395084,-0.0209439508617
953,1644543062909640074,,,,gyr,0.0,-0.0471238903701,0.0296705961227
954,1644543062909646034,0.0784531980753,-9.58109664917,-0.529559075832,acc,,,
955,1644543062910188675,,,,gyr,0.0314159244299,0.0139626339078,-0.0383972451091
956,1644543062910643339,,,,gyr,-0.0523598790169,-0.0558505356312,0.0855211317539
957,1644543062911145926,,,,gyr,-0.00872664619237,0.106465086341,-0.0610865242779
958,1644543062911646366,,,,gyr,-0.0767944902182,-0.0523598790169,0.0209439508617
959,1644543062911662579,0.0686465501785,-9.57129001617,-0.509945809841,acc,,,
960,1644543062912149191,,,,gyr,0.0296705961227,0.0,-0.0174532923847
961,1644543062912697792,,,,gyr,0.0383972451091,0.00174532923847,0.069813169539
962,1644543062913152456,,,,gyr,-0.0104719754308,-0.0279252678156,-0.0436332300305
963,1644543062913655043,,,,gyr,0.0296705961227,0.069813169539,0.0209439508617
964,1644543062913678885,0.0686465501785,-9.5222568512,-0.509945809841,acc,,,
965,1644543062914155483,,,,gyr,-0.0558505356312,-0.11344639957,-0.0506145469844
966,1644543062914658308,,,,gyr,0.0523598790169,0.11344639957,0.0296705961227
967,1644543062915206671,,,,gyr,-0.0069813169539,-0.141371667385,-0.0261799395084
968,1644543062915661335,,,,gyr,-0.0191986225545,0.0925024524331,0.136135682464
969,1644543062915697575,0.0784531980753,-9.5222568512,-0.509945809841,acc,,,
970,1644543062916164160,,,,gyr,0.0558505356312,-0.0925024524331,-0.158824965358
971,1644543062916664600,,,,gyr,-0.0890117883682,0.0523598790169,0.0261799395084
972,1644543062917167187,,,,gyr,0.0418879017234,-0.0349065847695,0.0383972451091
973,1644543062917713881,0.0784531980753,-9.5222568512,-0.451105892658,acc,,,
974,1644543062917715788,,,,gyr,0.00174532923847,0.0471238903701,-0.0471238903701
975,1644543062918170452,,,,gyr,0.0139626339078,-0.0645771846175,0.0523598790169
976,1644543062918673038,,,,gyr,-0.0471238903701,0.0471238903701,0.0209439508617
977,1644543062919173479,,,,gyr,0.0506145469844,-0.0471238903701,-0.0436332300305
978,1644543062919676304,,,,gyr,-0.0610865242779,0.0436332300305,-0.0750491544604
979,1644543062919730186,0.0980664938688,-9.56148338318,-0.421685934067,acc,,,
980,1644543062920224905,,,,gyr,0.0261799395084,0.0349065847695,0.214675500989
981,1644543062920679331,,,,gyr,-0.0174532923847,-0.122173048556,-0.0942477807403
982,1644543062921180248,,,,gyr,0.00872664619237,0.0785398185253,-0.0645771846175
983,1644543062921682596,,,,gyr,-0.0069813169539,0.0174532923847,0.0593411922455
984,1644543062921746731,0.0392265990376,-9.57129001617,-0.490332484245,acc,,,
985,1644543062922185421,,,,gyr,-0.0139626339078,-0.0104719754308,-0.0750491544604
986,1644543062922733784,,,,gyr,0.0383972451091,-0.0104719754308,0.0436332300305
987,1644543062923188448,,,,gyr,-0.0750491544604,0.0,0.0383972451091
988,1644543062923691273,,,,gyr,0.0104719754308,0.0226892791688,-0.0471238903701
989,1644543062923761129,0.0686465501785,-9.62032318115,-0.509945809841,acc,,,
990,1644543062924191713,,,,gyr,0.11344639957,-0.0383972451091,0.0977384373546
991,1644543062924694300,,,,gyr,-0.0785398185253,0.0104719754308,-0.0209439508617
992,1644543062925242901,,,,gyr,-0.0610865242779,0.0872664600611,-0.102974422276
993,1644543062925697565,,,,gyr,0.11344639957,-0.162315621972,0.123918376863
994,1644543062925777674,0.0686465501785,-9.62032318115,-0.549172401428,acc,,,
995,1644543062926200151,,,,gyr,-0.0296705961227,0.0506145469844,0.0261799395084
996,1644543062926700592,,,,gyr,-0.0471238903701,0.0436332300305,-0.0506145469844
997,1644543062927203417,,,,gyr,0.0750491544604,-0.0872664600611,-0.0296705961227
998,1644543062927752018,,,,gyr,0.0191986225545,0.0471238903701,0.0209439508617
999,1644543062927794218,0.0784531980753,-9.7478094101,-0.509945809841,acc,,,
1000,1644543062928206444,,,,gyr,-0.0593411922455,-0.0069813169539,-0.0296705961227
1001,1644543062928709269,,,,gyr,0.00174532923847,-0.0139626339078,0.0349065847695
1002,1644543062929209709,,,,gyr,0.0349065847695,0.0226892791688,-0.0296705961227
1003,1644543062929712296,,,,gyr,-0.0226892791688,-0.0349065847695,0.0610865242779
1004,1644543062929810524,0.0392265990376,-9.70858287811,-0.490332484245,acc,,,
1005,1644543062930260897,,,,gyr,-0.00523598771542,0.0209439508617,-0.00174532923847
1006,1644543062930715561,,,,gyr,0.0296705961227,0.0226892791688,-0.0209439508617
1007,1644543062931218147,,,,gyr,-0.0209439508617,-0.0226892791688,0.0349065847695
1008,1644543062931718826,,,,gyr,-0.0523598790169,0.0471238903701,-0.122173048556
1009,1644543062931826830,0.00980664975941,-9.58109664917,-0.470719188452,acc,,,
1010,1644543062932221413,,,,gyr,0.0645771846175,-0.0349065847695,0.148352980614
1011,1644543062932770014,,,,gyr,-0.0349065847695,0.0104719754308,-0.111701071262
1012,1644543062933224678,,,,gyr,-0.0436332300305,0.00174532923847,-0.0191986225545
1013,1644543062933727264,,,,gyr,0.0349065847695,-0.0750491544604,0.0645771846175
1014,1644543062933843613,0.12748645246,-9.62032318115,-0.529559075832,acc,,,
1015,1644543062934227705,,,,gyr,-0.0471238903701,0.0680678412318,-0.0785398185253
1016,1644543062934730530,,,,gyr,0.00349065847695,0.0,0.171042263508
1017,1644543062935279131,,,,gyr,0.0139626339078,-0.00872664619237,-0.193731546402
1018,1644543062935733557,,,,gyr,0.0296705961227,0.00174532923847,0.0785398185253
1019,1644543062935859919,0.137293100357,-9.61051654816,-0.490332484245,acc,,,
1020,1644543062936234474,,,,gyr,0.00523598771542,-0.0418879017234,-0.0209439508617
1021,1644543062936736822,,,,gyr,0.0174532923847,0.0,0.0645771846175
1022,1644543062937239408,,,,gyr,-0.0750491544604,-0.0209439508617,0.0226892791688
1023,1644543062937788248,,,,gyr,0.0645771846175,0.0383972451091,-0.0558505356312
1024,1644543062937876225,0.0392265990376,-9.39477062225,-0.451105892658,acc,,,
1025,1644543062938242674,,,,gyr,0.0261799395084,-0.00872664619237,0.0506145469844
1026,1644543062938743353,,,,gyr,-0.0436332300305,0.0523598790169,-0.144862323999
1027,1644543062939246178,,,,gyr,0.0104719754308,-0.069813169539,0.111701071262
1028,1644543062939748526,,,,gyr,-0.0069813169539,0.0209439508617,-0.0436332300305
1029,1644543062939892769,0.0686465501785,-9.43399715424,-0.509945809841,acc,,,
1030,1644543062940297365,,,,gyr,0.0174532923847,0.0104719754308,0.0209439508617
1031,1644543062940751791,,,,gyr,-0.0436332300305,0.0890117883682,0.0645771846175
1032,1644543062941252470,,,,gyr,0.069813169539,-0.130899697542,-0.00523598771542
1033,1644543062941755056,,,,gyr,-0.0558505356312,0.0174532923847,0.0279252678156
1034,1644543062941909075,0.137293100357,-9.5222568512,-0.451105892658,acc,,,
1035,1644543062942257643,,,,gyr,-0.0139626339078,0.0872664600611,-0.0645771846175
1036,1644543062942806482,,,,gyr,0.0209439508617,-0.102974422276,0.0750491544604
1037,1644543062943260670,,,,gyr,-0.0471238903701,0.0296705961227,-0.144862323999
1038,1644543062943761587,,,,gyr,0.0349065847695,0.0191986225545,-0.0139626339078
1039,1644543062943925619,0.0784531980753,-9.45361042023,-0.509945809841,acc,,,
1040,1644543062944264174,,,,gyr,-0.0279252678156,0.0383972451091,0.144862323999
1041,1644543062944766521,,,,gyr,0.0349065847695,-0.0296705961227,-0.0872664600611
1042,1644543062945315361,,,,gyr,0.0104719754308,0.0,-0.0139626339078
1043,1644543062945769787,,,,gyr,0.0261799395084,-0.0296705961227,-0.0349065847695
1044,1644543062945942163,0.0392265990376,-9.45361042023,-0.470719188452,acc,,,
1045,1644543062946270466,,,,gyr,-0.0506145469844,0.0942477807403,0.153588980436
1046,1644543062946773291,,,,gyr,-0.0104719754308,-0.0349065847695,-0.0610865242779
1047,1644543062947275639,,,,gyr,-0.00174532923847,-0.0959931090474,-0.0471238903701
1048,1644543062947824478,,,,gyr,-0.0296705961227,0.0296705961227,0.0471238903701
1049,1644543062947958469,0.0980664938688,-9.61051654816,-0.470719188452,acc,,,
1050,1644543062948278904,,,,gyr,0.0558505356312,0.00523598771542,0.0349065847695
1051,1644543062948779583,,,,gyr,-0.0139626339078,-0.00174532923847,-0.0296705961227
1052,1644543062949282169,,,,gyr,-0.0174532923847,0.0104719754308,-0.00872664619237
1053,1644543062949784756,,,,gyr,-0.0139626339078,-0.0104719754308,0.0750491544604
1054,1644543062949974775,0.0980664938688,-9.64974308014,-0.451105892658,acc,,,
1055,1644543062950333595,,,,gyr,0.00174532923847,-0.0279252678156,-0.0750491544604
1056,1644543062950787783,,,,gyr,0.0785398185253,-0.111701071262,0.0296705961227
1057,1644543062951288462,,,,gyr,-0.104719758034,0.115191727877,-0.0785398185253
1058,1644543062951791286,,,,gyr,0.0261799395084,0.0383972451091,0.0872664600611
1059,1644543062951991558,0.0392265990376,-9.56148338318,-0.490332484245,acc,,,
1060,1644543062952293634,,,,gyr,0.0139626339078,-0.0558505356312,-0.0174532923847
1061,1644543062952842474,,,,gyr,0.0558505356312,0.00174532923847,-0.0174532923847
1062,1644543062953296900,,,,gyr,-0.069813169539,0.0750491544604,0.0785398185253
1063,1644543062953797579,,,,gyr,0.0104719754308,-0.127409040928,0.00174532923847
1064,1644543062954007864,0.0294199492782,-9.64974308014,-0.402072638273,acc,,,
1065,1644543062954300404,,,,gyr,0.0104719754308,0.11344639957,-0.21991148591
1066,1644543062954802752,,,,gyr,-0.069813169539,-0.102974422276,0.185004904866
1067,1644543062955351591,,,,gyr,0.0209439508617,0.0279252678156,-0.0104719754308
1068,1644543062955806255,,,,gyr,0.069813169539,0.0349065847695,-0.0191986225545
1069,1644543062956024408,0.0392265990376,-9.70858287811,-0.421685934067,acc,,,
1070,1644543062956306696,,,,gyr,-0.115191727877,-0.0139626339078,-0.0174532923847
1071,1644543062956809282,,,,gyr,0.122173048556,-0.00523598771542,0.0523598790169
1072,1644543062957309723,,,,gyr,-0.0471238903701,0.00349065847695,0.0261799395084
1073,1644543062957860708,,,,gyr,-0.0209439508617,-0.0715584978461,-0.144862323999
1074,1644543062958040714,0.0980664938688,-9.64974308014,-0.421685934067,acc,,,
1075,1644543062958315134,,,,gyr,-0.0174532923847,0.0506145469844,0.0418879017234
1076,1644543062958815575,,,,gyr,0.0558505356312,0.0139626339078,-0.0191986225545
1077,1644543062959318399,,,,gyr,0.0261799395084,0.00523598771542,0.0872664600611
1078,1644543062959818840,,,,gyr,-0.0872664600611,0.0209439508617,-0.0855211317539
1079,1644543062960057020,0.0,-9.61051654816,-0.421685934067,acc,,,
1080,1644543062960369587,,,,gyr,0.0855211317539,-0.0785398185253,0.0296705961227
1081,1644543062960824251,,,,gyr,-0.00523598771542,0.0680678412318,-0.00174532923847
1082,1644543062961324692,,,,gyr,0.0069813169539,0.0349065847695,-0.0226892791688
1083,1644543062961827278,,,,gyr,-0.0645771846175,-0.0558505356312,0.130899697542
1084,1644543062962075710,0.0392265990376,-9.58109664917,-0.402072638273,acc,,,
1085,1644543062962327957,,,,gyr,0.0593411922455,0.00523598771542,-0.11344639957
1086,1644543062962878704,,,,gyr,-0.0104719754308,0.0104719754308,-0.0296705961227
1087,1644543062963333368,,,,gyr,0.00872664619237,0.0,0.115191727877
1088,1644543062963833809,,,,gyr,-0.0226892791688,-0.0314159244299,-0.0139626339078
1089,1644543062964092016,0.0784531980753,-9.62032318115,-0.421685934067,acc,,,
1090,1644543062964336395,,,,gyr,-0.0139626339078,0.0471238903701,-0.148352980614
1091,1644543062964836836,,,,gyr,0.0279252678156,-0.111701071262,0.176278248429
1092,1644543062965387583,,,,gyr,0.0,0.162315621972,-0.162315621972
1093,1644543062965842247,,,,gyr,-0.0104719754308,-0.104719758034,0.106465086341
1094,1644543062966108322,0.0294199492782,-9.58109664917,-0.451105892658,acc,,,
1095,1644543062966342688,,,,gyr,0.0139626339078,-0.0104719754308,-0.0750491544604
1096,1644543062966845512,,,,gyr,-0.0296705961227,0.0645771846175,0.0174532923847
1097,1644543062967347860,,,,gyr,0.0296705961227,-0.0471238903701,0.0174532923847
1098,1644543062967896700,,,,gyr,-0.0436332300305,0.0645771846175,0.0104719754308
1099,1644543062968125105,0.0294199492782,-9.53206348419,-0.470719188452,acc,,,
1100,1644543062968351364,,,,gyr,0.0610865242779,-0.0767944902182,-0.0296705961227
1101,1644543062968851805,,,,gyr,-0.0523598790169,0.0436332300305,0.0418879017234
1102,1644543062969354391,,,,gyr,-0.0104719754308,-0.0191986225545,-0.0069813169539
1103,1644543062969855070,,,,gyr,0.00174532923847,0.00174532923847,-0.00872664619237
1104,1644543062970141411,0.0392265990376,-9.56148338318,-0.421685934067,acc,,,
1105,1644543062970405817,,,,gyr,0.0436332300305,-0.0436332300305,-0.0645771846175
1106,1644543062970860243,,,,gyr,-0.0349065847695,0.0226892791688,0.0925024524331
1107,1644543062971360922,,,,gyr,-0.0226892791688,0.00523598771542,0.0069813169539
1108,1644543062971863508,,,,gyr,0.0872664600611,-0.0349065847695,-0.0383972451091
1109,1644543062972157717,0.12748645246,-9.58109664917,-0.421685934067,acc,,,
1110,1644543062972363949,,,,gyr,-0.0715584978461,0.0872664600611,-0.0349065847695
1111,1644543062972914696,,,,gyr,0.0296705961227,-0.0802851468325,0.069813169539
1112,1644543062973369360,,,,gyr,-0.0436332300305,0.0349065847695,0.0296705961227
1113,1644543062973869801,,,,gyr,0.0139626339078,0.0104719754308,-0.137881010771
1114,1644543062974174261,0.0980664938688,-9.5222568512,-0.451105892658,acc,,,
1115,1644543062974372625,,,,gyr,0.00523598771542,-0.0069813169539,0.144862323999
1116,1644543062974873066,,,,gyr,0.0226892791688,-0.00872664619237,0.0069813169539
1117,1644543062975423813,,,,gyr,0.0069813169539,-0.0593411922455,-0.0977384373546
1118,1644543062975878477,,,,gyr,-0.0785398185253,0.0471238903701,0.0296705961227
1119,1644543062976190567,0.0686465501785,-9.49283695221,-0.451105892658,acc,,,
1120,1644543062976378918,,,,gyr,0.0785398185253,-0.00174532923847,0.0610865242779
1121,1644543062976881504,,,,gyr,-0.0959931090474,0.0069813169539,-0.0767944902182
1122,1644543062977382183,,,,gyr,0.0942477807403,-0.0349065847695,0.0680678412318
1123,1644543062977932930,,,,gyr,-0.0349065847695,0.0680678412318,-0.0750491544604
1124,1644543062978207111,0.0686465501785,-9.53206348419,-0.451105892658,acc,,,
1125,1644543062978387356,,,,gyr,-0.0610865242779,-0.00523598771542,0.0436332300305
1126,1644543062978888035,,,,gyr,0.0296705961227,0.00523598771542,-0.0436332300305
1127,1644543062979390621,,,,gyr,-0.0645771846175,-0.0069813169539,0.122173048556
1128,1644543062979891062,,,,gyr,0.104719758034,-0.00174532923847,-0.0872664600611
1129,1644543062980223656,0.12748645246,-9.61051654816,-0.402072638273,acc,,,
1130,1644543062980441809,,,,gyr,0.0104719754308,-0.0418879017234,0.0418879017234
1131,1644543062980896473,,,,gyr,-0.0436332300305,0.00523598771542,-0.0872664600611
1132,1644543062981396914,,,,gyr,0.00349065847695,-0.0139626339078,0.0383972451091
1133,1644543062981899738,,,,gyr,-0.00872664619237,0.0226892791688,0.0296705961227
1134,1644543062982239962,0.0980664938688,-9.58109664917,-0.402072638273,acc,,,
1135,1644543062982400179,,,,gyr,0.0209439508617,0.0296705961227,0.0104719754308
1136,1644543062982950926,,,,gyr,-0.0506145469844,-0.00523598771542,-0.0558505356312
1137,1644543062983403206,,,,gyr,-0.0069813169539,0.00523598771542,0.120427720249
1138,1644543062983906031,,,,gyr,0.0558505356312,-0.0610865242779,-0.185004904866
1139,1644543062984256268,0.0686465501785,-9.61051654816,-0.421685934067,acc,,,
1140,1644543062984408617,,,,gyr,-0.0104719754308,0.0209439508617,0.118682384491
1141,1644543062984909296,,,,gyr,-0.0418879017234,0.130899697542,-0.0645771846175
1142,1644543062985460043,,,,gyr,0.0593411922455,-0.0349065847695,0.0261799395084
1143,1644543062985912323,,,,gyr,0.00872664619237,-0.0104719754308,-0.0104719754308
1144,1644543062986273050,0.0784531980753,-9.64974308014,-0.470719188452,acc,,,
1145,1644543062986415148,,,,gyr,-0.0558505356312,-0.0837758034468,0.0226892791688
1146,1644543062986917734,,,,gyr,0.0296705961227,0.0296705961227,-0.0645771846175
1147,1644543062987418175,,,,gyr,0.0296705961227,-0.0471238903701,0.0785398185253
1148,1644543062987968922,,,,gyr,-0.0767944902182,0.0436332300305,-0.069813169539
1149,1644543062988289356,0.12748645246,-9.67916297913,-0.509945809841,acc,,,
1150,1644543062988421440,,,,gyr,-0.0139626339078,0.00872664619237,0.00174532923847
1151,1644543062988924026,,,,gyr,0.0436332300305,-0.0645771846175,-0.0209439508617
1152,1644543062989426851,,,,gyr,0.0349065847695,0.0261799395084,-0.00349065847695
1153,1644543062989927292,,,,gyr,-0.0610865242779,0.0593411922455,-0.0279252678156
1154,1644543062990305901,0.0784531980753,-9.58109664917,-0.509945809841,acc,,,
1155,1644543062990478039,,,,gyr,0.0104719754308,-0.0069813169539,0.0872664600611
1156,1644543062990930557,,,,gyr,0.0069813169539,0.0209439508617,-0.0471238903701
1157,1644543062991433144,,,,gyr,-0.0261799395084,-0.0471238903701,0.0523598790169
1158,1644543062991935730,,,,gyr,0.00174532923847,-0.0279252678156,-0.0139626339078
1159,1644543062992322206,0.12748645246,-9.58109664917,-0.451105892658,acc,,,
1160,1644543062992436171,,,,gyr,0.00872664619237,-0.0104719754308,0.0349065847695
1161,1644543062992987156,,,,gyr,0.0104719754308,0.0383972451091,-0.0174532923847
1162,1644543062993439674,,,,gyr,0.0261799395084,-0.0645771846175,0.0
1163,1644543062993942022,,,,gyr,-0.0349065847695,0.0471238903701,0.0209439508617
1164,1644543062994338512,0.0980664938688,-9.64974308014,-0.509945809841,acc,,,
1165,1644543062994444847,,,,gyr,0.0,0.0785398185253,-0.0436332300305
1166,1644543062994945288,,,,gyr,0.0296705961227,-0.153588980436,0.0349065847695
1167,1644543062995496035,,,,gyr,-0.0296705961227,0.0977384373546,0.0418879017234
1168,1644543062995948792,,,,gyr,0.00349065847695,-0.00349065847695,-0.0279252678156
1169,1644543062996355295,0.0784531980753,-9.61051654816,-0.529559075832,acc,,,
1170,1644543062996451139,,,,gyr,-0.00523598771542,0.0104719754308,-0.0349065847695
1171,1644543062996953964,,,,gyr,-0.0349065847695,-0.0139626339078,-0.0349065847695
1172,1644543062997454405,,,,gyr,0.102974422276,-0.0750491544604,0.106465086341
1173,1644543062998005152,,,,gyr,-0.104719758034,0.0471238903701,-0.179768905044
1174,1644543062998371601,0.0784531980753,-9.57129001617,-0.529559075832,acc,,,
1175,1644543062998457670,,,,gyr,0.0750491544604,0.00349065847695,0.069813169539
1176,1644543062998960257,,,,gyr,-0.0471238903701,-0.0471238903701,-0.00349065847695
1177,1644543062999462843,,,,gyr,-0.0104719754308,0.0925024524331,-0.0383972451091
1178,1644543062999963284,,,,gyr,0.0558505356312,0.0,0.0785398185253
1179,1644543063000387907,0.0980664938688,-9.56148338318,-0.451105892658,acc,,,
1180,1644543063000514269,,,,gyr,-0.00174532923847,-0.0837758034468,0.0104719754308
1181,1644543063000966787,,,,gyr,-0.0506145469844,0.0645771846175,-0.0436332300305
1182,1644543063001469135,,,,gyr,0.0104719754308,-0.0261799395084,0.0523598790169
1183,1644543063001971960,,,,gyr,-0.0436332300305,0.0261799395084,-0.0837758034468
1184,1644543063002404451,0.0980664938688,-9.58109664917,-0.558979034424,acc,,,
1185,1644543063002472401,,,,gyr,0.0261799395084,-0.069813169539,0.0715584978461
1186,1644543063003021240,,,,gyr,0.0069813169539,0.0471238903701,-0.0296705961227
1187,1644543063003475904,,,,gyr,-0.0139626339078,-0.0349065847695,-0.0069813169539
1188,1644543063003978252,,,,gyr,0.0139626339078,0.0314159244299,0.0069813169539
1189,1644543063004420996,0.137293100357,-9.56148338318,-0.57859236002,acc,,,
1190,1644543063004480839,,,,gyr,0.0174532923847,-0.0436332300305,-0.0506145469844
1191,1644543063004981518,,,,gyr,0.00523598771542,0.0436332300305,0.0837758034468
1192,1644543063005530357,,,,gyr,-0.0785398185253,0.0191986225545,-0.0349065847695
1193,1644543063005984783,,,,gyr,0.0750491544604,-0.111701071262,-0.0418879017234
1194,1644543063006437302,0.166713044047,-9.56148338318,-0.549172401428,acc,,,
1195,1644543063006487370,,,,gyr,-0.069813169539,0.0296705961227,0.0174532923847
1196,1644543063006989956,,,,gyr,0.0296705961227,0.0872664600611,0.00174532923847
1197,1644543063007490396,,,,gyr,0.0349065847695,0.00174532923847,0.104719758034
1198,1644543063008041143,,,,gyr,-0.0471238903701,-0.0558505356312,-0.0925024524331
1199,1644543063008453846,0.137293100357,-9.53206348419,-0.529559075832,acc,,,
1200,1644543063008493900,,,,gyr,-0.0139626339078,0.0174532923847,-0.0610865242779
1201,1644543063008996248,,,,gyr,0.0506145469844,0.00174532923847,0.106465086341
1202,1644543063009499073,,,,gyr,0.0139626339078,0.0436332300305,-0.0471238903701
1203,1644543063009999514,,,,gyr,-0.0471238903701,-0.0383972451091,-0.00174532923847
1204,1644543063010470152,0.137293100357,-9.64974308014,-0.549172401428,acc,,,
1205,1644543063010548353,,,,gyr,0.0296705961227,-0.0296705961227,-0.0959931090474
1206,1644543063011003017,,,,gyr,-0.0645771846175,-0.0471238903701,0.0872664600611
1207,1644543063011505365,,,,gyr,0.0436332300305,0.0593411922455,-0.0226892791688
1208,1644543063012007952,,,,gyr,-0.0872664600611,-0.00174532923847,0.0890117883682
1209,1644543063012486458,0.166713044047,-9.64974308014,-0.57859236002,acc,,,
1210,1644543063012508631,,,,gyr,0.0558505356312,0.0104719754308,-0.0855211317539
1211,1644543063013059378,,,,gyr,0.0506145469844,-0.0139626339078,0.0925024524331
1212,1644543063013511896,,,,gyr,-0.0977384373546,0.0209439508617,0.0
1213,1644543063014014482,,,,gyr,0.0139626339078,0.0209439508617,-0.0977384373546
1214,1644543063014503002,0.196132987738,-10.1106557846,-0.274586200714,acc,,,
1215,1644543063014517069,,,,gyr,-0.0069813169539,-0.0209439508617,0.130899697542
1216,1644543063015017509,,,,gyr,-0.0226892791688,0.0174532923847,-0.0296705961227
1217,1644543063015566349,,,,gyr,-0.0139626339078,0.0261799395084,-0.0069813169539
1218,1644543063016021013,,,,gyr,0.0104719754308,0.0209439508617,0.0436332300305
1219,1644543063016519547,0.00980664975941,-9.42419052124,-1.04931151867,acc,,,
1220,1644543063016523361,,,,gyr,0.00174532923847,-0.0383972451091,-0.0837758034468
1221,1644543063017026186,,,,gyr,0.0209439508617,0.0209439508617,0.0750491544604
1222,1644543063017526627,,,,gyr,-0.0750491544604,-0.0471238903701,-0.0872664600611
1223,1644543063018077374,,,,gyr,0.0383972451091,0.069813169539,0.104719758034
1224,1644543063018530130,,,,gyr,0.0226892791688,-0.0645771846175,-0.0837758034468
1225,1644543063018535852,0.0784531980753,-9.34573745728,-0.529559075832,acc,,,
1226,1644543063019032478,,,,gyr,-0.00872664619237,-0.0680678412318,-0.00523598771542
1227,1644543063019535065,,,,gyr,-0.0383972451091,0.122173048556,0.00174532923847
1228,1644543063020035744,,,,gyr,0.0349065847695,-0.0802851468325,0.0837758034468
1229,1644543063020552158,0.402072638273,-9.8949098587,-0.549172401428,acc,,,
1230,1644543063020584583,,,,gyr,-0.0104719754308,0.0436332300305,-0.0314159244299
1231,1644543063021039009,,,,gyr,-0.0209439508617,0.00174532923847,0.0750491544604
1232,1644543063021541595,,,,gyr,-0.0349065847695,-0.00174532923847,0.0593411922455
1233,1644543063022042274,,,,gyr,0.0069813169539,0.0349065847695,-0.0558505356312
1234,1644543063022544622,,,,gyr,-0.0279252678156,-0.0261799395084,0.0296705961227
1235,1644543063022568941,0.264779537916,-9.66935634613,-0.637432217598,acc,,,
1236,1644543063023093462,,,,gyr,0.0104719754308,-0.0191986225545,-0.0471238903701
1237,1644543063023548126,,,,gyr,-0.0471238903701,-0.0139626339078,0.0767944902182
1238,1644543063024050474,,,,gyr,-0.0349065847695,0.0715584978461,-0.0174532923847
1239,1644543063024553299,,,,gyr,0.0610865242779,-0.0925024524331,0.0104719754308
1240,1644543063024583340,-0.245166242123,-9.31631755829,-0.627625584602,acc,,,
1241,1644543063025053740,,,,gyr,0.0314159244299,-0.0296705961227,0.0349065847695
1242,1644543063025602579,,,,gyr,-0.0418879017234,0.115191727877,-0.102974422276
1243,1644543063026057243,,,,gyr,-0.0383972451091,-0.0872664600611,0.0226892791688
1244,1644543063026559591,,,,gyr,-0.0279252678156,-0.0261799395084,0.0139626339078
1245,1644543063026601553,-0.0686465501785,-9.61051654816,-0.637432217598,acc,,,
1246,1644543063027060270,,,,gyr,-0.0209439508617,0.115191727877,0.0209439508617
1247,1644543063027562857,,,,gyr,0.136135682464,-0.111701071262,-0.0523598790169
1248,1644543063028111458,,,,gyr,-0.0872664600611,0.0226892791688,0.0139626339078
1249,1644543063028566122,,,,gyr,-0.0104719754308,0.0174532923847,-0.0523598790169
1250,1644543063028618097,0.313812792301,-9.64974308014,-0.696272134781,acc,,,
1251,1644543063029068708,,,,gyr,0.0069813169539,-0.0174532923847,0.127409040928
1252,1644543063029569387,,,,gyr,-0.0471238903701,0.0436332300305,-0.150098308921
1253,1644543063030071735,,,,gyr,0.0523598790169,-0.0593411922455,0.158824965358
1254,1644543063030620575,,,,gyr,-0.0523598790169,0.0296705961227,-0.0226892791688
1255,1644543063030634403,0.166713044047,-9.35554409027,-0.57859236002,acc,,,
1256,1644543063031075239,,,,gyr,0.0314159244299,-0.0523598790169,-0.0715584978461
1257,1644543063031577587,,,,gyr,-0.0680678412318,-0.0069813169539,-0.0261799395084
1258,1644543063032078266,,,,gyr,0.0314159244299,0.0785398185253,0.0209439508617
1259,1644543063032580853,,,,gyr,0.0139626339078,-0.0715584978461,0.0436332300305
1260,1644543063032650948,-0.0686465501785,-9.48303031921,-0.558979034424,acc,,,
1261,1644543063033129692,,,,gyr,-0.0785398185253,0.0261799395084,-0.0959931090474
1262,1644543063033584118,,,,gyr,0.0523598790169,0.0,0.101229093969
1263,1644543063034086704,,,,gyr,-0.0959931090474,0.00523598771542,-0.0523598790169
1264,1644543063034587383,,,,gyr,0.144862323999,-0.0959931090474,-0.0349065847695
1265,1644543063034667492,0.12748645246,-9.66935634613,-0.598205626011,acc,,,
1266,1644543063035089731,,,,gyr,-0.0872664600611,0.0872664600611,0.0314159244299
1267,1644543063035638571,,,,gyr,0.0279252678156,-0.106465086341,-0.0785398185253
1268,1644543063036093235,,,,gyr,0.0069813169539,0.0174532923847,0.0890117883682
1269,1644543063036595821,,,,gyr,-0.0558505356312,0.00174532923847,-0.0471238903701
1270,1644543063036683798,0.245166242123,-9.56148338318,-0.57859236002,acc,,,
1271,1644543063037096500,,,,gyr,-0.0139626339078,0.0296705961227,0.0174532923847
1272,1644543063037598848,,,,gyr,0.00872664619237,-0.0558505356312,0.00523598771542
1273,1644543063038147688,,,,gyr,0.0,0.0296705961227,-0.0349065847695
1274,1644543063038602352,,,,gyr,-0.0436332300305,-0.0436332300305,-0.069813169539
1275,1644543063038700104,0.12748645246,-9.56148338318,-0.509945809841,acc,,,
1276,1644543063039104700,,,,gyr,-0.0139626339078,-0.0296705961227,0.144862323999
1277,1644543063039605379,,,,gyr,0.0890117883682,0.0785398185253,0.0296705961227
1278,1644543063040107965,,,,gyr,-0.069813169539,-0.0942477807403,-0.0750491544604
1279,1644543063040656805,,,,gyr,0.0226892791688,0.0785398185253,0.0558505356312
1280,1644543063040716887,0.0686465501785,-9.70858287811,-0.57859236002,acc,,,
1281,1644543063041111231,,,,gyr,0.0104719754308,0.0174532923847,-0.0174532923847
1282,1644543063041613817,,,,gyr,-0.0174532923847,-0.0209439508617,-0.0261799395084
1283,1644543063042114496,,,,gyr,0.0,0.0645771846175,-0.0645771846175
1284,1644543063042616844,,,,gyr,-0.0104719754308,-0.115191727877,0.104719758034
1285,1644543063042733192,0.0980664938688,-9.70858287811,-0.598205626011,acc,,,
1286,1644543063043165684,,,,gyr,-0.0837758034468,0.0925024524331,-0.069813169539
1287,1644543063043620348,,,,gyr,0.101229093969,-0.0209439508617,0.0785398185253
1288,1644543063044122696,,,,gyr,-0.0069813169539,-0.0890117883682,-0.0069813169539
1289,1644543063044623613,,,,gyr,-0.0558505356312,0.0,-0.0558505356312
1290,1644543063044749498,0.137293100357,-9.58109664917,-0.549172401428,acc,,,
1291,1644543063045125961,,,,gyr,0.0209439508617,0.0296705961227,-0.00349065847695
1292,1644543063045674801,,,,gyr,-0.0226892791688,-0.0471238903701,0.0558505356312
1293,1644543063046129465,,,,gyr,0.0174532923847,0.0383972451091,-0.069813169539
1294,1644543063046631813,,,,gyr,-0.0785398185253,0.00523598771542,0.0785398185253
1295,1644543063046766043,0.0392265990376,-9.61051654816,-0.529559075832,acc,,,
1296,1644543063047132492,,,,gyr,0.115191727877,-0.0209439508617,0.0104719754308
1297,1644543063047635078,,,,gyr,-0.0436332300305,0.0,0.0209439508617
1298,1644543063048183918,,,,gyr,0.0349065847695,0.00523598771542,-0.0506145469844
1299,1644543063048638105,,,,gyr,-0.069813169539,0.0436332300305,-0.0296705961227
1300,1644543063048782587,0.0686465501785,-9.64974308014,-0.558979034424,acc,,,
1301,1644543063049140930,,,,gyr,0.00872664619237,-0.0104719754308,0.00872664619237
1302,1644543063049641609,,,,gyr,-0.0174532923847,-0.0174532923847,0.0296705961227
1303,1644543063050143957,,,,gyr,0.0680678412318,-0.00174532923847,-0.0314159244299
1304,1644543063050692797,,,,gyr,-0.0558505356312,-0.00174532923847,0.0296705961227
1305,1644543063050796986,0.0,-9.53206348419,-0.549172401428,acc,,,
1306,1644543063051147223,,,,gyr,-0.0471238903701,0.0,-0.0471238903701
1307,1644543063051649809,,,,gyr,0.0767944902182,-0.069813169539,0.0104719754308
1308,1644543063052150726,,,,gyr,-0.0069813169539,0.0104719754308,0.0942477807403
1309,1644543063052653074,,,,gyr,-0.0925024524331,0.0383972451091,-0.127409040928
1310,1644543063052815437,0.0686465501785,-9.57129001617,-0.529559075832,acc,,,
1311,1644543063053201914,,,,gyr,0.0645771846175,-0.0383972451091,0.0436332300305
1312,1644543063053656340,,,,gyr,-0.0558505356312,0.0610865242779,0.00523598771542
1313,1644543063054158926,,,,gyr,0.0349065847695,-0.00349065847695,-0.00349065847695
1314,1644543063054659605,,,,gyr,0.0314159244299,-0.0314159244299,-0.0349065847695
1315,1644543063054831743,0.0784531980753,-9.53206348419,-0.509945809841,acc,,,
1316,1644543063055162191,,,,gyr,-0.0523598790169,0.0139626339078,0.0314159244299
1317,1644543063055711031,,,,gyr,-0.0191986225545,-0.0226892791688,-0.0558505356312
1318,1644543063056165218,,,,gyr,0.0,0.0261799395084,0.0296705961227
1319,1644543063056668043,,,,gyr,-0.0279252678156,-0.0191986225545,0.0069813169539
1320,1644543063056848049,0.0784531980753,-9.58109664917,-0.558979034424,acc,,,
1321,1644543063057168722,,,,gyr,0.0139626339078,-0.0296705961227,0.0296705961227
1322,1644543063057671070,,,,gyr,0.00349065847695,0.0279252678156,-0.0226892791688
1323,1644543063058219910,,,,gyr,0.0104719754308,0.0785398185253,0.0226892791688
1324,1644543063058674335,,,,gyr,0.0139626339078,-0.0925024524331,0.00174532923847
1325,1644543063058862448,0.0392265990376,-9.49283695221,-0.490332484245,acc,,,
1326,1644543063059176922,,,,gyr,-0.00174532923847,0.0349065847695,-0.0349065847695
1327,1644543063059677839,,,,gyr,-0.0610865242779,-0.00174532923847,-0.0890117883682
1328,1644543063060180187,,,,gyr,0.0523598790169,-0.0296705961227,0.130899697542
1329,1644543063060729027,,,,gyr,-0.0349065847695,0.0226892791688,-0.0436332300305
1330,1644543063060881138,0.0784531980753,-9.56148338318,-0.529559075832,acc,,,
1331,1644543063061183453,,,,gyr,0.00523598771542,0.0279252678156,-0.0174532923847
1332,1644543063061686039,,,,gyr,0.0209439508617,-0.0785398185253,0.0767944902182
1333,1644543063062186718,,,,gyr,-0.0349065847695,0.0418879017234,-0.104719758034
1334,1644543063062689304,,,,gyr,0.0104719754308,0.0436332300305,0.0383972451091
1335,1644543063062897444,0.137293100357,-9.58109664917,-0.549172401428,acc,,,
1336,1644543063063238144,,,,gyr,-0.0191986225545,-0.0506145469844,-0.00174532923847
1337,1644543063063692331,,,,gyr,0.0104719754308,0.0261799395084,-0.0069813169539
1338,1644543063064195156,,,,gyr,-0.0349065847695,0.00523598771542,-0.0680678412318
1339,1644543063064695835,,,,gyr,0.069813169539,-0.0523598790169,0.0750491544604
1340,1644543063064911842,0.0686465501785,-9.62032318115,-0.470719188452,acc,,,
1341,1644543063065198183,,,,gyr,-0.0279252678156,0.0506145469844,-0.0296705961227
1342,1644543063065747023,,,,gyr,-0.0191986225545,0.0349065847695,0.0593411922455
1343,1644543063066201448,,,,gyr,0.0506145469844,-0.0925024524331,0.00349065847695
1344,1644543063066702127,,,,gyr,-0.0471238903701,0.0139626339078,-0.0558505356312
1345,1644543063066928387,0.0,-9.56148338318,-0.490332484245,acc,,,
1346,1644543063067204952,,,,gyr,-0.00872664619237,0.0139626339078,0.00523598771542
1347,1644543063067707300,,,,gyr,0.0383972451091,0.00523598771542,0.0750491544604
1348,1644543063068256140,,,,gyr,0.0104719754308,0.0506145469844,-0.0261799395084
1349,1644543063068710566,,,,gyr,0.0139626339078,-0.0593411922455,0.0104719754308
1350,1644543063068944931,0.12748645246,-9.67916297913,-0.549172401428,acc,,,
1351,1644543063069211245,,,,gyr,-0.0645771846175,0.0593411922455,-0.0837758034468
1352,1644543063069713831,,,,gyr,0.0436332300305,-0.0436332300305,-0.00523598771542
1353,1644543063070216417,,,,gyr,0.0,0.00174532923847,0.0610865242779
1354,1644543063070765018,,,,gyr,-0.069813169539,-0.00349065847695,0.0139626339078
1355,1644543063070961237,0.166713044047,-9.75761604309,-0.509945809841,acc,,,
1356,1644543063071219444,,,,gyr,0.0314159244299,0.0139626339078,-0.0610865242779
1357,1644543063071722269,,,,gyr,-0.0104719754308,-0.0069813169539,0.127409040928
1358,1644543063072222948,,,,gyr,0.0139626339078,0.0506145469844,-0.0959931090474
1359,1644543063072725296,,,,gyr,-0.00872664619237,-0.0104719754308,0.106465086341
1360,1644543063072977781,0.0980664938688,-9.75761604309,-0.490332484245,acc,,,
1361,1644543063073274136,,,,gyr,-0.069813169539,-0.0139626339078,-0.136135682464
1362,1644543063073728561,,,,gyr,0.0506145469844,0.00872664619237,0.153588980436
1363,1644543063074231148,,,,gyr,-0.0104719754308,-0.00174532923847,-0.0959931090474
1364,1644543063074731827,,,,gyr,-0.0261799395084,-0.00523598771542,0.069813169539
1365,1644543063074994087,0.0980664938688,-9.75761604309,-0.57859236002,acc,,,
1366,1644543063075234413,,,,gyr,0.0104719754308,-0.0261799395084,-0.0837758034468
1367,1644543063075783253,,,,gyr,0.0174532923847,-0.0314159244299,0.0471238903701
1368,1644543063076237440,,,,gyr,-0.0523598790169,0.141371667385,-0.0296705961227
1369,1644543063076740265,,,,gyr,0.0471238903701,-0.0959931090474,0.0506145469844
1370,1644543063077010393,0.225552946329,-9.88510322571,-0.558979034424,acc,,,
1371,1644543063077240944,,,,gyr,-0.0296705961227,0.0558505356312,0.0226892791688
1372,1644543063077743292,,,,gyr,0.0750491544604,-0.0383972451091,-0.0750491544604
1373,1644543063078292131,,,,gyr,-0.0680678412318,0.0383972451091,0.0104719754308
1374,1644543063078746557,,,,gyr,0.0296705961227,-0.0872664600611,0.0104719754308
1375,1644543063079027176,0.137293100357,-9.62032318115,-0.470719188452,acc,,,
1376,1644543063079247236,,,,gyr,-0.0645771846175,0.0890117883682,-0.0104719754308
1377,1644543063079749823,,,,gyr,0.0349065847695,-0.0471238903701,0.0610865242779
1378,1644543063080252409,,,,gyr,-0.0226892791688,0.0,-0.0436332300305
1379,1644543063080801010,,,,gyr,0.0104719754308,-0.0558505356312,0.0523598790169
1380,1644543063081043482,0.0686465501785,-9.39477062225,-0.451105892658,acc,,,
1381,1644543063081255674,,,,gyr,0.0104719754308,0.0593411922455,-0.0523598790169
1382,1644543063081758261,,,,gyr,-0.0349065847695,-0.0383972451091,0.0593411922455
1383,1644543063082258701,,,,gyr,0.0104719754308,0.0506145469844,-0.0349065847695
1384,1644543063082761526,,,,gyr,0.00349065847695,-0.0471238903701,-0.0104719754308
1385,1644543063083059788,0.12748645246,-9.2868976593,-0.421685934067,acc,,,
1386,1644543063083310127,,,,gyr,0.0383972451091,0.0349065847695,-0.0383972451091
1387,1644543063083764553,,,,gyr,0.0,-0.0209439508617,0.0349065847695
1388,1644543063084267378,,,,gyr,-0.00523598771542,-0.0523598790169,0.0715584978461
1389,1644543063084767818,,,,gyr,-0.00349065847695,0.069813169539,-0.137881010771
1390,1644543063085076332,0.274586200714,-9.43399715424,-0.402072638273,acc,,,
1391,1644543063085270405,,,,gyr,0.0139626339078,0.0104719754308,-0.0104719754308
1392,1644543063085819006,,,,gyr,-0.0261799395084,-0.0296705961227,0.0610865242779
1393,1644543063086273670,,,,gyr,0.0261799395084,-0.00174532923847,0.0261799395084
1394,1644543063086774349,,,,gyr,0.00174532923847,0.0261799395084,0.0
1395,1644543063087092876,0.0686465501785,-9.15941047668,-0.490332484245,acc,,,
1396,1644543063087276936,,,,gyr,-0.0349065847695,0.0,0.0296705961227
1397,1644543063087779522,,,,gyr,-0.0174532923847,-0.0296705961227,-0.0977384373546
1398,1644543063088328123,,,,gyr,-0.0209439508617,-0.00174532923847,0.0
1399,1644543063088782787,,,,gyr,-0.00174532923847,0.0139626339078,0.104719758034
1400,1644543063089109182,0.0294199492782,-9.20844459534,-0.549172401428,acc,,,
1401,1644543063089283466,,,,gyr,0.0523598790169,0.0383972451091,-0.115191727877
1402,1644543063089785814,,,,gyr,-0.0069813169539,0.0383972451091,0.00349065847695
1403,1644543063090288639,,,,gyr,-0.0349065847695,-0.0279252678156,0.0558505356312
1404,1644543063090837240,,,,gyr,0.0471238903701,-0.0174532923847,0.0139626339078
1405,1644543063091123581,0.176519691944,-9.5222568512,-0.509945809841,acc,,,
1406,1644543063091291666,,,,gyr,-0.0209439508617,-0.0523598790169,-0.0296705961227
1407,1644543063091792583,,,,gyr,-0.0104719754308,0.0558505356312,-0.0785398185253
1408,1644543063092294931,,,,gyr,0.0,0.0436332300305,0.069813169539
1409,1644543063092797518,,,,gyr,0.0209439508617,-0.0261799395084,-0.0209439508617
1410,1644543063093140125,0.225552946329,-9.64974308014,-0.402072638273,acc,,,
1411,1644543063093346119,,,,gyr,-0.0436332300305,0.0506145469844,0.0785398185253
1412,1644543063093800783,,,,gyr,-0.00174532923847,-0.0593411922455,-0.0383972451091
1413,1644543063094301462,,,,gyr,0.0139626339078,-0.00872664619237,-0.0261799395084
1414,1644543063094804049,,,,gyr,-0.0645771846175,0.0,-0.0104719754308
1415,1644543063095156431,-0.00980664975941,-9.5222568512,-0.451105892658,acc,,,
1416,1644543063095306635,,,,gyr,0.0715584978461,0.0593411922455,0.0715584978461
1417,1644543063095855236,,,,gyr,-0.0715584978461,-0.0680678412318,-0.144862323999
1418,1644543063096309900,,,,gyr,0.0209439508617,-0.00174532923847,0.144862323999
1419,1644543063096810579,,,,gyr,-0.0069813169539,0.0174532923847,-0.150098308921
1420,1644543063097172737,0.0784531980753,-9.81645679474,-0.490332484245,acc,,,
1421,1644543063097312927,,,,gyr,0.0209439508617,-0.0349065847695,0.137881010771
1422,1644543063097815752,,,,gyr,-0.0593411922455,0.104719758034,-0.0383972451091
1423,1644543063098364353,,,,gyr,0.0436332300305,-0.0593411922455,-0.069813169539
1424,1644543063098818779,,,,gyr,-0.0261799395084,-0.0069813169539,0.0593411922455
1425,1644543063099189520,0.176519691944,-9.99297618866,-0.470719188452,acc,,,
1426,1644543063099319696,,,,gyr,-0.00872664619237,-0.0069813169539,0.0209439508617
1427,1644543063099822044,,,,gyr,0.0261799395084,0.0785398185253,-0.0593411922455
1428,1644543063100324631,,,,gyr,0.0,-0.0959931090474,-0.0471238903701
1429,1644543063100873232,,,,gyr,-0.0610865242779,-0.0069813169539,0.104719758034
1430,1644543063101205826,0.0784531980753,-9.86548995972,-0.490332484245,acc,,,
1431,1644543063101327896,,,,gyr,-0.0209439508617,0.0139626339078,0.00872664619237
1432,1644543063101828575,,,,gyr,0.0069813169539,0.0506145469844,0.0383972451091
1433,1644543063102331161,,,,gyr,0.0139626339078,-0.069813169539,-0.0436332300305
1434,1644543063102833748,,,,gyr,0.0750491544604,0.0104719754308,0.0191986225545
1435,1644543063103220224,-0.00980664975941,-9.80665016174,-0.509945809841,acc,,,
1436,1644543063103382349,,,,gyr,-0.0471238903701,0.0279252678156,-0.0645771846175
1437,1644543063103837013,,,,gyr,-0.0610865242779,0.0104719754308,0.0418879017234
1438,1644543063104337692,,,,gyr,0.0209439508617,-0.0383972451091,-0.0209439508617
1439,1644543063104840040,,,,gyr,0.0523598790169,-0.0139626339078,0.0471238903701
1440,1644543063105238438,0.0392265990376,-9.94394302368,-0.549172401428,acc,,,
1441,1644543063105340719,,,,gyr,-0.0558505356312,0.0785398185253,-0.00872664619237
1442,1644543063105891466,,,,gyr,0.0139626339078,-0.0925024524331,-0.0593411922455
1443,1644543063106345892,,,,gyr,0.00174532923847,0.0715584978461,0.11344639957
1444,1644543063106846571,,,,gyr,-0.00872664619237,-0.0104719754308,-0.0645771846175
1445,1644543063107255220,0.0980664938688,-9.88510322571,-0.549172401428,acc,,,
1446,1644543063107349157,,,,gyr,-0.0349065847695,-0.0383972451091,-0.0069813169539
1447,1644543063107851744,,,,gyr,0.0383972451091,-0.0610865242779,0.0349065847695
1448,1644543063108400345,,,,gyr,-0.0471238903701,0.139626339078,-0.0349065847695
1449,1644543063108855009,,,,gyr,-0.0506145469844,-0.122173048556,-0.0174532923847
1450,1644543063109269619,0.0,-9.66935634613,-0.470719188452,acc,,,
1451,1644543063109355688,,,,gyr,0.0750491544604,0.0383972451091,0.0
1452,1644543063109858036,,,,gyr,-0.00523598771542,0.0,0.00523598771542
1453,1644543063110360861,,,,gyr,0.0139626339078,-0.00872664619237,0.0942477807403
1454,1644543063110909462,,,,gyr,-0.0279252678156,-0.0436332300305,-0.0925024524331
1455,1644543063111287832,0.0392265990376,-9.57129001617,-0.451105892658,acc,,,
1456,1644543063111364126,,,,gyr,0.0523598790169,0.00523598771542,0.0383972451091
1457,1644543063111864805,,,,gyr,-0.069813169539,0.0471238903701,-0.0279252678156
1458,1644543063112367153,,,,gyr,0.0383972451091,-0.0104719754308,0.0942477807403
1459,1644543063112867832,,,,gyr,-0.0471238903701,-0.0715584978461,-0.069813169539
1460,1644543063113304377,0.137293100357,-9.57129001617,-0.421685934067,acc,,,
1461,1644543063113418341,,,,gyr,0.0785398185253,0.0296705961227,0.00872664619237
1462,1644543063113873005,,,,gyr,-0.069813169539,0.0471238903701,0.00523598771542
1463,1644543063114373446,,,,gyr,-0.00174532923847,-0.0383972451091,-0.0349065847695
1464,1644543063114876270,,,,gyr,-0.0104719754308,0.0069813169539,0.0645771846175
1465,1644543063115318775,0.12748645246,-9.53206348419,-0.470719188452,acc,,,
1466,1644543063115376949,,,,gyr,0.0,0.0349065847695,-0.0750491544604
1467,1644543063115927458,,,,gyr,0.0296705961227,-0.0471238903701,0.0785398185253
1468,1644543063116382122,,,,gyr,-0.00523598771542,0.0593411922455,-0.0383972451091
1469,1644543063116882563,,,,gyr,0.0349065847695,-0.0959931090474,0.0750491544604
1470,1644543063117335320,0.0784531980753,-9.42419052124,-0.490332484245,acc,,,
1471,1644543063117385149,,,,gyr,-0.0977384373546,0.0471238903701,-0.0069813169539
1472,1644543063117886066,,,,gyr,0.0715584978461,-0.00349065847695,0.0104719754308
1473,1644543063118436575,,,,gyr,0.0069813169539,-0.0436332300305,-0.0593411922455
1474,1644543063118891001,,,,gyr,-0.0383972451091,0.0,0.118682384491
1475,1644543063119351625,0.0980664938688,-9.39477062225,-0.451105892658,acc,,,
1476,1644543063119391680,,,,gyr,0.0471238903701,0.0523598790169,0.0
1477,1644543063119894266,,,,gyr,-0.0383972451091,0.0139626339078,-0.102974422276
1478,1644543063120394945,,,,gyr,-0.0785398185253,0.0209439508617,0.0296705961227
1479,1644543063120945454,,,,gyr,0.106465086341,-0.118682384491,-0.0104719754308
1480,1644543063121368170,0.176519691944,-9.39477062225,-0.421685934067,acc,,,
1481,1644543063121400118,,,,gyr,-0.0383972451091,0.0767944902182,0.109955742955
1482,1644543063121900558,,,,gyr,0.0069813169539,-0.0436332300305,-0.200712859631
1483,1644543063122403383,,,,gyr,0.0610865242779,-0.0209439508617,0.127409040928
1484,1644543063122904062,,,,gyr,-0.0296705961227,0.0436332300305,0.0436332300305
1485,1644543063123384476,0.137293100357,-9.39477062225,-0.421685934067,acc,,,
1486,1644543063123454571,,,,gyr,-0.0139626339078,-0.069813169539,-0.0959931090474
1487,1644543063123909235,,,,gyr,-0.0872664600611,0.0680678412318,-0.0209439508617
1488,1644543063124409676,,,,gyr,0.0872664600611,-0.0349065847695,0.0261799395084
1489,1644543063124912262,,,,gyr,-0.0209439508617,-0.0558505356312,0.0872664600611
1490,1644543063125400782,0.0980664938688,-9.49283695221,-0.451105892658,acc,,,
1491,1644543063125412941,,,,gyr,0.00523598771542,0.0383972451091,-0.0645771846175
1492,1644543063125963688,,,,gyr,-0.0226892791688,0.0436332300305,0.0785398185253
1493,1644543063126418114,,,,gyr,-0.0209439508617,-0.0645771846175,-0.0349065847695
1494,1644543063126918793,,,,gyr,-0.0872664600611,0.0680678412318,-0.0680678412318
1495,1644543063127417564,0.0980664938688,-9.53206348419,-0.529559075832,acc,,,
1496,1644543063127421379,,,,gyr,0.130899697542,-0.0174532923847,0.0785398185253
1497,1644543063127921820,,,,gyr,-0.0558505356312,0.0436332300305,-0.0558505356312
1498,1644543063128472567,,,,gyr,-0.0139626339078,-0.0558505356312,-0.0104719754308
1499,1644543063128927231,,,,gyr,0.0680678412318,0.00174532923847,0.00872664619237
1500,1644543063129427671,,,,gyr,-0.0680678412318,0.0296705961227,-0.0785398185253
1501,1644543063129433870,0.166713044047,-9.61051654816,-0.421685934067,acc,,,
1502,1644543063129930496,,,,gyr,0.0,-0.0558505356312,0.0785398185253
1503,1644543063130430937,,,,gyr,0.0645771846175,0.0,0.0349065847695
1504,1644543063130981684,,,,gyr,-0.0610865242779,0.0523598790169,-0.0471238903701
1505,1644543063131436348,,,,gyr,-0.00523598771542,-0.0715584978461,0.0506145469844
1506,1644543063131450176,0.166713044047,-9.64974308014,-0.402072638273,acc,,,
1507,1644543063131936789,,,,gyr,0.0436332300305,0.150098308921,-0.0383972451091
1508,1644543063132439375,,,,gyr,0.0349065847695,-0.137881010771,0.0296705961227
1509,1644543063132940054,,,,gyr,-0.0436332300305,0.0296705961227,-0.069813169539
1510,1644543063133466482,0.0686465501785,-9.67916297913,-0.402072638273,acc,,,
1511,1644543063133490801,,,,gyr,0.0139626339078,-0.00174532923847,0.0872664600611
1512,1644543063133945227,,,,gyr,0.0139626339078,0.0349065847695,-0.0226892791688
