,field.header.stamp,field.linear_acceleration.x,field.linear_acceleration.y,field.linear_acceleration.z,type,delta_x,delta_z,field.angular_velocity.x,field.angular_velocity.y,field.angular_velocity.z,delta_angle,x,z
0,1644542237823688030,0.0294199492782,-9.62032318115,0.294199496508,acc,0.0,0.0,,,,,0,0
1,1644542237825701714,0.0686465501785,-9.66935634613,0.294199496508,acc,2.783564924784993e-07,-1.1929563790746171e-06,,,,,0.0,0.0
2,1644542237826943636,,,,gyr,0.0,0.0,0.0,0.0,-0.00174532923847,,0.0,0.0
3,1644542237827717543,0.0392265990376,-9.62032318115,0.264779537916,acc,1.5939989600349333e-07,-1.0759492753171828e-06,,,,,0.0,0.0
4,1644542237829731226,0.0294199492782,-9.67916297913,0.274586200714,acc,1.1929551791166445e-07,-1.1134248640545938e-06,,,,,1.5939989600349333e-07,-1.0759492753171828e-06
5,1644542237831763029,0.0294199492782,-9.62032318115,0.313812792301,acc,1.2145212394347757e-07,-1.2954893220645862e-06,,,,,2.7869541391515775e-07,-2.1893741393717764e-06
6,1644542237831954718,,,,gyr,1.2146345427280783e-07,-1.2954882597962283e-06,-0.00523598771542,0.00174532923847,0.00174532923847,-8.745987930970724e-06,2.7869541391515775e-07,-2.1893741393717764e-06
7,1644542237833760738,0.0686465501785,-9.64974308014,0.294199496508,acc,2.739574840320078e-07,-1.1741034860053078e-06,,,,,4.001588681879656e-07,-3.4848623991680047e-06
8,1644542237835774422,0.0294199492782,-9.64974308014,0.166713044047,acc,1.192956363965973e-07,-6.760085986938737e-07,,,,,6.741163522199735e-07,-4.658965885173313e-06
9,1644542237836966276,,,,gyr,1.192956363965973e-07,-6.760085986938737e-07,-0.00523598771542,0.0,0.00174532923847,-0.0,6.741163522199735e-07,-4.658965885173313e-06
10,1644542237837788105,0.0294199492782,-9.67916297913,0.176519691944,acc,1.1929551791166445e-07,-7.157730923646017e-07,,,,,7.934119886165707e-07,-5.334974483867186e-06
11,1644542237839801788,0.0392265990376,-9.64974308014,0.225552946329,acc,1.5906069054888596e-07,-9.145989782095978e-07,,,,,9.127075065282351e-07,-6.050747576231787e-06
12,1644542237841815710,0.0294199492782,-9.64974308014,0.264779537916,acc,1.1932383748408468e-07,-1.0739145146933057e-06,,,,,1.071768197077121e-06,-6.965346554441385e-06
13,1644542237841977596,,,,gyr,1.1930505168687717e-07,-1.073916601837814e-06,-0.00349065847695,-0.00349065847695,0.0,1.7492806638709073e-05,1.071768197077121e-06,-6.965346554441385e-06
14,1644542237843831301,0.0686465501785,-9.62032318115,0.264779537916,acc,2.788839607233925e-07,-1.0756952251862937e-06,,,,,1.1910732487639982e-06,-8.039263156279198e-06
15,1644542237845844984,0.0392265990376,-9.61051654816,0.274586200714,acc,1.5906069054888596e-07,-1.1134248640545938e-06,,,,,1.4699572094873906e-06,-9.114958381465493e-06
16,1644542237846988916,,,,gyr,1.5905095207987528e-07,-1.1134262552209575e-06,0.0,-0.00174532923847,0.00174532923847,8.74640331932948e-06,1.4699572094873906e-06,-9.114958381465493e-06
17,1644542237847860813,0.0392265990376,-9.64974308014,0.225552946329,acc,1.5939989600349333e-07,-9.165494095896984e-07,,,,,1.6290081615672659e-06,-1.022838463668645e-05
18,1644542237849874496,0.0686465501785,-9.62032318115,0.294199496508,acc,2.7835621601364845e-07,-1.1929551942252736e-06,,,,,1.7884080575707592e-06,-1.1144934046276148e-05
19,1644542237852000237,,,,gyr,2.783666500723539e-07,-1.1929527595634259e-06,0.0,0.00174532923847,0.00174532923847,-8.74640506465872e-06,1.7884080575707592e-06,-1.1144934046276148e-05
20,1644542237853904009,0.0686465501785,-9.66935634613,0.313812792301,acc,1.1146123202631425e-06,-5.095370468659382e-06,,,,,2.0667747076431133e-06,-1.2337886805839574e-05
21,1644542237855917692,0.0294199492782,-9.70858287811,0.294199496508,acc,1.1929551791166445e-07,-1.1929551942252736e-06,,,,,3.181387027906256e-06,-1.7433257274498957e-05
22,1644542237857011557,,,,gyr,1.193059519743719e-07,-1.1929541507729296e-06,-0.00349065847695,0.00174532923847,0.0,-8.74640331932948e-06,3.181387027906256e-06,-1.7433257274498957e-05
23,1644542237862022877,,,,gyr,1.1931638602795246e-07,-1.1929531072293252e-06,0.0,0.00174532923847,0.0,-8.74640331932948e-06,3.181387027906256e-06,-1.7433257274498957e-05
24,1644542237867034197,,,,gyr,1.192955179116644e-07,-1.1929551942252739e-06,0.0,-0.00349065847695,0.0,1.7492806638709073e-05,3.181387027906256e-06,-1.7433257274498957e-05
25,1644542237872045517,,,,gyr,1.1934768813392512e-07,-1.1929499760509493e-06,0.0104719754308,0.00872664619237,0.00174532923847,-4.3732016596747625e-05,3.181387027906256e-06,-1.7433257274498957e-05
26,1644542237877056837,,,,gyr,1.195981020217611e-07,-1.1929248970558314e-06,0.0750491544604,0.0418879017234,0.00174532923847,-0.00020991367966450886,3.181387027906256e-06,-1.7433257274498957e-05
27,1644542237882068157,,,,gyr,1.201719472923894e-07,-1.1928672261013917e-06,0.202458187938,0.0959931090474,0.00349065847695,-0.0004810521872314165,3.181387027906256e-06,-1.7433257274498957e-05
28,1644542237887079239,,,,gyr,1.2063098170921066e-07,-1.1928208927893348e-06,0.141371667385,0.0767944902182,0.0069813169539,-0.00038482348763159814,3.181387027906256e-06,-1.7433257274498957e-05
29,1644542237892088890,,,,gyr,1.2057883450403587e-07,-1.1928261653285956e-06,-0.00523598771542,-0.00872664619237,0.0,4.371745182425256e-05,3.181387027906256e-06,-1.7433257274498957e-05
30,1644542237897100210,,,,gyr,1.2057883450403587e-07,-1.1928261653285956e-06,-0.0104719754308,0.0,0.0,-0.0,3.181387027906256e-06,-1.7433257274498957e-05
31,1644542237902111292,,,,gyr,1.2056840205617861e-07,-1.192827219864006e-06,-0.0104719754308,-0.00174532923847,0.00349065847695,8.745987930970724e-06,3.181387027906256e-06,-1.7433257274498957e-05
32,1644542238564903975,-0.0392265990376,-8.80637168884,0.12748645246,acc,-0.019717703053155268,-0.06408253773152683,,,,,3.3019554299624347e-06,-1.8626084494362964e-05
33,1644542238566917658,-0.912018418312,-9.17902374268,1.5886772871,acc,-3.69816101750138e-06,-6.441958072970821e-06,,,,,-0.019714401097725306,-0.0641011638160212
34,1644542238568595409,,,,gyr,-4.962820742648531e-06,-5.526810020402208e-06,-0.0558505356312,-0.315904587507,0.0418879017234,0.21054539006085213,-0.019714401097725306,-0.0641011638160212
35,1644542238568931341,-0.38245934248,-10.797121048,1.33370435238,acc,-1.5508417404075745e-06,-5.408063418250314e-06,,,,,-0.019719363918467955,-0.0641066906260416
36,1644542238570947170,-0.0784531980753,-8.62004470825,0.176519691944,acc,-3.18799792007393e-07,-7.172995168781217e-07,,,,,-0.01972091476020836,-0.06411209868945986
37,1644542238572960854,-1.922103405,-9.70858287811,2.20649623871,acc,-7.79398178940609e-06,-8.947172903477984e-06,,,,,-0.019721233560000367,-0.06411281598897674
38,1644542238573606730,,,,gyr,-7.805400749563189e-06,-8.937212889768422e-06,0.0925024524331,-0.254818081856,0.0296705961227,0.0012769752047846919,-0.019721233560000367,-0.06411281598897674
39,1644542238574974537,-0.549172401428,-9.53206348419,0.529559075832,acc,-2.2268497281091876e-06,-2.147319277093805e-06,,,,,-0.01972903896074993,-0.0641217532018665
40,1644542238576990128,0.0,-9.98316955566,1.09834480286,acc,0.0,-4.462143371590531e-06,,,,,-0.019731265810478037,-0.0641239005211436
41,1644542238578617811,,,,gyr,-3.317196354681095e-09,-4.4621421385739895e-06,-0.0383972451091,-0.148352980614,0.0314159244299,0.0007434088024481837,-0.019731265810478037,-0.0641239005211436
42,1644542238579003811,-0.627625584602,-9.48303031921,1.16699135303,acc,-2.544971048783797e-06,-4.732055672213776e-06,,,,,-0.01973126912767439,-0.06412836266328217
43,1644542238581017733,-0.245166242123,-10.2381420135,1.50041747093,acc,-9.943653048153203e-07,-6.085515945882236e-06,,,,,-0.019733814098723174,-0.06413309471895438
44,1644542238583031416,-0.313812792301,-9.67916297913,2.02997660637,acc,-1.2724855243918985e-06,-8.231391166432653e-06,,,,,-0.01973480846402799,-0.06413918023490027
45,1644542238583629608,,,,gyr,-1.2854442877859592e-06,-8.229377432565047e-06,0.104719758034,-0.314159274101,0.0174532923847,0.0015745025074615695,-0.01973480846402799,-0.06413918023490027
46,1644542238585047245,1.48080408573,-9.02211761475,0.774725317955,acc,6.017345960598262e-06,-3.1481478930898375e-06,,,,,-0.019736093908315776,-0.06414740961233284
47,1644542238587061167,1.54945063591,-9.31631755829,0.833565235138,acc,6.284388668403863e-06,-3.3808420847173896e-06,,,,,-0.01973007656235518,-0.06415055776022593
48,1644542238588641167,,,,gyr,6.280510661755476e-06,-3.3880407265755963e-06,0.129154369235,-0.228638127446,0.0296705961227,0.0011458334653451482,-0.01973007656235518,-0.06415055776022593
49,1644542238589074850,1.78481030464,-10.2675619125,1.40235090256,acc,7.2372616163508044e-06,-5.686419634270045e-06,,,,,-0.019723796051693422,-0.06415394580095252
50,1644542238591088772,0.833565235138,-8.70830535889,2.47127580643,acc,3.3808420847173896e-06,-1.0023202620655416e-05,,,,,-0.019716558790077072,-0.06415963222058679
51,1644542238593104839,3.12832117081,-9.88510322571,1.52983736992,acc,1.2715143199628966e-05,-6.218063992975478e-06,,,,,-0.019713177947992353,-0.06416965542320745
52,1644542238593652487,,,,gyr,1.270915488913075e-05,-6.230294408123331e-06,-0.167551606894,-0.191986218095,0.0279252678156,0.0009621043744638353,-0.019713177947992353,-0.06416965542320745
53,1644542238595118761,2.33398270607,-9.78703689575,1.60829055309,acc,9.466358030607737e-06,-6.5230364189071535e-06,,,,,-0.01970046879310322,-0.06417588571761557
54,1644542238597132206,2.99102807045,-9.71838951111,1.97113656998,acc,1.2125510453665815e-05,-7.990910323118284e-06,,,,,-0.019691002435072612,-0.06418240875403447
55,1644542238598664284,,,,gyr,1.2126908235647772e-05,-7.988788906852875e-06,-0.102974422276,0.0349065847695,0.0191986225545,-0.00017494471682802582,-0.019691002435072612,-0.06418240875403447
56,1644542238599146128,2.78508853912,-9.34573745728,1.60829055309,acc,1.1295989978711291e-05,-6.5230364189071535e-06,,,,,-0.019678875526836965,-0.06419039754294133
57,1644542238601159811,2.55953550339,-9.56148338318,1.75539028645,acc,1.037870971845824e-05,-7.117965819007357e-06,,,,,-0.019667579536858253,-0.06419692057936023
58,1644542238603173733,1.9024900198,-10.0420093536,2.17707633972,acc,7.71627468800305e-06,-8.829964351559519e-06,,,,,-0.019657200827139794,-0.06420403854517924
59,1644542238603673935,,,,gyr,7.71279987882641e-06,-8.832999690914962e-06,-0.0191986225545,-0.0785398185253,0.0069813169539,0.00039345708041508767,-0.019657200827139794,-0.06420403854517924
60,1644542238605189800,1.84365010262,-8.53178501129,2.09862303734,acc,7.493564050763417e-06,-8.529908211089836e-06,,,,,-0.019649488027260967,-0.06421287154487015
61,1644542238607203484,1.78481030464,-9.58109664917,1.70635700226,acc,7.237268804436926e-06,-6.919146684431375e-06,,,,,-0.019641994463210206,-0.06422140145308124
62,1644542238608685255,,,,gyr,7.2398705512749e-06,-6.916424292156754e-06,-0.123918376863,0.0750491544604,0.0104719754308,-0.00037609532873049173,-0.019641994463210206,-0.06422140145308124
63,1644542238609217167,0.804145276546,-9.35554409027,1.97113656998,acc,3.260744141148399e-06,-7.992799571705211e-06,,,,,-0.01963475459265893,-0.06422831787737339
64,1644542238611231089,0.912018418312,-10.3950490952,2.55953550339,acc,3.6990389242374426e-06,-1.0381173521178122e-05,,,,,-0.01963149384851778,-0.06423631067694509
65,1644542238613244772,-0.00980664975941,-8.62004470825,2.20649623871,acc,-3.9765172637262036e-08,-8.947164017107848e-06,,,,,-0.019627794809593542,-0.06424669185046626
66,1644542238613697052,,,,gyr,-3.702596739277509e-08,-8.947175772036836e-06,-0.317649930716,0.0610865242779,0.0,-0.00030615325911640637,-0.019627794809593542,-0.06424669185046626
67,1644542238615260839,0.725692093372,-10.2087221146,2.06920313835,acc,2.9495944892622146e-06,-8.410330262359074e-06,,,,,-0.019627831835560935,-0.06425563902623829
68,1644542238617272615,-1.04931151867,-9.1299905777,2.33398270607,acc,-4.24681835686565e-06,-9.446194408795281e-06,,,,,-0.019624882241071673,-0.06426404935650065
69,1644542238618708611,,,,gyr,-4.240537982158642e-06,-9.449015429495086e-06,-0.459021598101,0.132645025849,-0.0139626339078,-0.0006647583730987886,-0.019624882241071673,-0.06426404935650065
70,1644542238619288445,-0.294199496508,-9.8949098587,2.41243577003,acc,-1.1955004212790971e-06,-9.803103042704234e-06,,,,,-0.01962912277905383,-0.06427349837193015
71,1644542238621302128,-1.55925726891,-8.8946313858,2.49088907242,acc,-6.322662275627373e-06,-1.0100353985825432e-05,,,,,-0.01963031827947511,-0.06428330147497285
72,1644542238623316050,-1.01008486748,-10.0125894547,2.64779543877,acc,-4.096784852774258e-06,-1.0739145388704172e-05,,,,,-0.019636640941750737,-0.06429340182895868
73,1644542238623719931,,,,gyr,-4.094248658296956e-06,-1.0740112556844096e-05,-0.942477762699,0.0471238903701,-0.0279252678156,-0.00023615289428948952,-0.019636640941750737,-0.06429340182895868
74,1644542238625329733,-1.2650578022,-9.94394302368,2.33398270607,acc,-5.129707202230583e-06,-9.464111344468103e-06,,,,,-0.019640735190409035,-0.06430414194151553
75,1644542238627345800,-2.11823630333,-8.75733852386,2.5399222374,acc,-8.60962684356346e-06,-1.0323580349040984e-05,,,,,-0.019645864897611266,-0.06431360605285999
76,1644542238628731728,,,,gyr,-8.598695384990418e-06,-1.0332687127976835e-05,-1.1850785017,0.211184844375,-0.0069813169539,-0.0010584155694840919,-0.019645864897611266,-0.06431360605285999
77,1644542238629359722,-1.70635700226,-11.0422878265,2.97141480446,acc,-6.920782347452081e-06,-1.2051707291280598e-05,,,,,-0.019654463592996257,-0.06432393873998797
78,1644542238631373405,-2.62818217278,-7.8943529129,2.31436944008,acc,-1.0657066417864892e-05,-9.384581135150235e-06,,,,,-0.019661384375343708,-0.06433599044727925
79,1644542238633387566,-1.9024900198,-9.86548995972,2.55953550339,acc,-7.718106237664885e-06,-1.0383637616304455e-05,,,,,-0.019672041441761573,-0.0643453750284144
80,1644542238633743525,,,,gyr,-7.698291685153649e-06,-1.0398336365636026e-05,-1.58824956417,0.380481779575,-0.0174532923847,-0.0019068974414286463,-0.019672041441761573,-0.0643453750284144
81,1644542238635403395,-3.10870790482,-9.49283695221,2.2359161377,acc,-1.2632441478257287e-05,-9.08579404195318e-06,,,,,-0.019679739733446725,-0.06435577336478004
82,1644542238637417555,-2.60856890678,-9.56148338318,1.67693710327,acc,-1.0582548002673814e-05,-6.803066365889267e-06,,,,,-0.019692372174924984,-0.064364859158822
83,1644542238638755322,,,,gyr,-1.0567526282107287e-05,-6.826376966192318e-06,-1.81688773632,0.439822971821,-0.0226892791688,-0.0022043034507035725,-0.019692372174924984,-0.064364859158822
84,1644542238639431477,-3.21658110619,-9.25747776031,1.48080408573,acc,-1.3046072837854866e-05,-6.005966373380024e-06,,,,,-0.01970293970120709,-0.06437168553578819
85,1644542238641447544,-3.26561427116,-9.62032318115,1.34351098537,acc,-1.3273174596008666e-05,-5.460735530818587e-06,,,,,-0.019715985774044948,-0.06437769150216156
86,1644542238643461466,-3.76575350761,-9.25747776031,0.961051702499,acc,-1.5273451197964462e-05,-3.897912130248575e-06,,,,,-0.019729258948640957,-0.06438315223769238
87,1644542238643767595,,,,gyr,-1.526516497222982e-05,-3.930237759010105e-06,-2.1991147995,0.422369688749,-0.0349065847695,-0.0021170321869350165,-0.019729258948640957,-0.06438315223769238
88,1644542238645475626,-3.90304660797,-9.75761604309,0.872791826725,acc,-1.583403757445738e-05,-3.5407772356145967e-06,,,,,-0.019744524113613188,-0.06438708247545138
89,1644542238647489548,-3.51078057289,-9.88510322571,0.843371868134,acc,-1.4239311106910203e-05,-3.4206166292217147e-06,,,,,-0.019760358151187644,-0.064390623252687
90,1644542238648779631,,,,gyr,-1.4231434055991761e-05,-3.4532424811244144e-06,-2.33525061607,0.457276254892,-0.0383972451091,-0.0022918850514638805,-0.019760358151187644,-0.064390623252687
91,1644542238649503469,-3.01064157486,-9.06134414673,0.176519691944,acc,-1.221079430989343e-05,-7.159422988019315e-07,,,,,-0.019774589585243637,-0.06439407649516812
92,1644542238651517630,-3.94227313995,-9.1299905777,0.549172401428,acc,-1.5993189239029734e-05,-2.2279070549134508e-06,,,,,-0.01978680037955353,-0.06439479243746693
93,1644542238653531551,-3.24600100517,-9.98316955566,0.470719188452,acc,-1.3165383396952971e-05,-1.9091795037656116e-06,,,,,-0.01980279356879256,-0.06439702034452184
94,1644542238653791428,,,,gyr,-1.316285020704402e-05,-1.926567100644268e-06,-2.62322974205,0.26354470849,-0.0314159244299,-0.0013208325793760565,-0.01980279356879256,-0.06439702034452184
95,1644542238655545712,-3.19696784019,-9.39477062225,-0.196132987738,acc,-1.2969601507596028e-05,7.956810392264999e-07,,,,,-0.019815956418999605,-0.06439894691162248
96,1644542238657559633,-2.8831551075,-9.99297618866,-7.04117441177,acc,-1.1693724777861774e-05,2.855814294207588e-05,,,,,-0.0198289260205072,-0.06439815123058326
97,1644542238658803463,,,,gyr,-1.1749910845140303e-05,2.8535071799658592e-05,-2.56214332581,0.392699092627,0.0,-0.0019682215967147657,-0.0198289260205072,-0.06439815123058326
98,1644542238659573555,-6.76658821106,-7.39421415329,-5.30539751053,acc,-2.744448212276615e-05,2.1518065321888333e-05,,,,,-0.01984067593135234,-0.0643696161587836
99,1644542238661587715,-3.37348747253,-4.53067207336,-3.09890127182,acc,-1.3685700623693871e-05,1.2571748202374733e-05,,,,,-0.019868120413475108,-0.06434809809346172
100,1644542238663603544,-2.34378933907,-9.7478094101,2.04958987236,acc,-9.524143975462839e-06,-8.328644861381943e-06,,,,,-0.0198818061140988,-0.06433552634525934
101,1644542238663815737,,,,gyr,-9.516781443995045e-06,-8.33705671322923e-06,-0.92502450943,0.176278248429,0.153588980436,-0.0008835548813662175,-0.0198818061140988,-0.06433552634525934
102,1644542238665617704,-0.362846046686,-13.6214361191,8.08067893982,acc,-1.4720085394925937e-06,-3.2782025635810646e-05,,,,,-0.019891322895542796,-0.06434386340197257
103,1644542238667631626,-0.598205626011,-8.35526561737,1.05911815166,acc,-2.426251324406395e-06,-4.295658058756999e-06,,,,,-0.019892794904082287,-0.06437664542760838
104,1644542238668827534,,,,gyr,-2.42993279560512e-06,-4.293576627450641e-06,0.692895710468,-0.171042263508,-0.130899697542,0.0008572291031226039,-0.019892794904082287,-0.06437664542760838
105,1644542238669647694,-1.75539028645,-8.30623245239,1.45138418674,acc,-7.134836798050235e-06,-5.89919483068515e-06,,,,,-0.019895224836877893,-0.06438093900423583
106,1644542238671661615,-2.57914876938,-11.7385597229,1.48080408573,acc,-1.0460712221772346e-05,-6.005960408933653e-06,,,,,-0.019902359673675943,-0.06438683819906652
107,1644542238673673630,-1.01008486748,-13.2880105972,-7.9826130867,acc,-4.0890299647298265e-06,3.231524910356808e-05,,,,,-0.019912820385897714,-0.06439284415947545
108,1644542238673837662,,,,gyr,-4.072357498369059e-06,3.231735439486954e-05,-0.0261799395084,-0.102974422276,0.148352980614,0.0005159150363288113,-0.019912820385897714,-0.06439284415947545
109,1644542238675687790,-4.17763280869,-4.78564500809,-10.6107950211,acc,-1.694798999581709e-05,4.304630303821728e-05,,,,,-0.019916892743396083,-0.06436052680508059
110,1644542238677701712,-3.99130654335,-7.83551311493,-3.81478667259,acc,-1.618826765553819e-05,1.547232392048609e-05,,,,,-0.0199338407333919,-0.06431748050204238
111,1644542238678849697,,,,gyr,-1.6187590907587194e-05,1.547303195228364e-05,-0.977384388447,-0.00872664619237,0.275762021542,4.373825614877517e-05,-0.0199338407333919,-0.06431748050204238
112,1644542238679717779,-2.04958987236,-11.7385597229,-4.12859964371,acc,-8.330611629885451e-06,1.6780801208501663e-05,,,,,-0.019950028324299488,-0.06430200747009009
113,1644542238681731701,-1.54945063591,-6.90388154984,-0.735498726368,acc,-6.284388668403863e-06,2.9830959144419052e-06,,,,,-0.019958358935929375,-0.06428522666888159
114,1644542238683747768,0.362846046686,-7.72764015198,-1.37293100357,acc,1.4747972446311073e-06,5.580313964081509e-06,,,,,-0.01996464332459778,-0.06428224357296715
115,1644542238683861732,,,,gyr,1.4831916899547341e-06,5.578088674568002e-06,-0.439822971821,-0.300196617842,0.109955742955,0.0015045959555057284,-0.01996464332459778,-0.06428224357296715
116,1644542238685761690,-0.529559075832,-11.522813797,0.245166242123,acc,-2.1478290293866114e-06,-9.943653048153203e-07,,,,,-0.019963160132907824,-0.06427666548429257
117,1644542238687775850,0.12748645246,-9.78703689575,-0.166713044047,acc,5.171922042549768e-07,6.763282299017466e-07,,,,,-0.019965307961937212,-0.0642776598495974
118,1644542238688873768,,,,gyr,5.182387662742516e-07,6.755266329573492e-07,0.130899697542,-0.308923274279,-0.0174532923847,0.0015483345719242221,-0.019965307961937212,-0.0642776598495974
119,1644542238689789772,1.24544453621,-7.49228048325,-0.343232750893,acc,5.051375854827977e-06,1.3921114750908047e-06,,,,,-0.019964789723170936,-0.06427698432296444
120,1644542238691805840,0.313812792301,-10.73828125,0.637432217598,acc,1.2755015653733056e-06,-2.590862486529156e-06,,,,,-0.019959738347316108,-0.06427559221148935
121,1644542238693819761,0.470719188452,-10.6107950211,0.470719188452,acc,1.9091795037656116e-06,-1.9091795037656116e-06,,,,,-0.019958462845750733,-0.06427818307397587
122,1644542238693885803,,,,gyr,1.9055519848284754e-06,-1.9128001433274916e-06,0.253072738647,-0.378736436367,-0.0383972451091,0.0018982402748466767,-0.019958462845750733,-0.06427818307397587
123,1644542238695835829,0.490332484245,-8.42391204834,0.0980664938688,acc,1.9929711807541446e-06,-3.9859422403771615e-07,,,,,-0.019956557293765904,-0.0642800958741192
124,1644542238697849751,0.598205626011,-9.42419052124,0.166713044047,acc,2.426251324406395e-06,-6.761684048545165e-07,,,,,-0.01995456432258515,-0.06428049446834325
125,1644542238698897839,,,,gyr,2.424880033006646e-06,-6.810697662009188e-07,0.209439516068,-0.403171062469,-0.0383972451091,0.0020207078792528767,-0.01995456432258515,-0.06428049446834325
126,1644542238699863672,0.245166242123,-10.5421485901,0.470719188452,acc,9.943643173241883e-07,-1.9091795037656116e-06,,,,,-0.019952139442552145,-0.06428117553810944
127,1644542238701877832,0.921825051308,-9.7478094101,0.774725317955,acc,3.739697207223093e-06,-3.1429370505936832e-06,,,,,-0.01995114507823482,-0.06428308471761321
128,1644542238703891754,2.04958987236,-10.0420093536,3.71672034264,acc,8.312894306032389e-06,-1.5074578475483393e-05,,,,,-0.0199474053810276,-0.0642862276546638
129,1644542238703909874,,,,gyr,8.285848187198573e-06,-1.5089461480631807e-05,0.331612557173,-0.357792496681,-0.0645771846175,0.0017932685161025556,-0.0199474053810276,-0.0642862276546638
130,1644542238705908060,1.84365010262,-10.2185287476,3.09890127182,acc,7.495340844853383e-06,-1.2598551777168744e-05,,,,,-0.019939119532840402,-0.06430131711614442
131,1644542238707921982,2.05939650536,-9.80665016174,1.01008486748,acc,8.35266885055294e-06,-4.096784852774258e-06,,,,,-0.01993162419199555,-0.06431391566792159
132,1644542238708921909,,,,gyr,8.347106401598818e-06,-4.108106349317893e-06,0.123918376863,-0.270526021719,-0.0209439508617,0.001355885889266388,-0.01993162419199555,-0.06431391566792159
133,1644542238709933758,1.67693710327,-8.12971305847,-2.33398270607,acc,6.786971406263429e-06,9.446194408795281e-06,,,,,-0.01992327708559395,-0.06431802377427091
134,1644542238711950064,1.70635700226,-9.49283695221,-1.08853816986,acc,6.937177133972194e-06,4.425440919694552e-06,,,,,-0.01991649011418769,-0.06430857757986212
135,1644542238713934183,,,,gyr,6.940195215459152e-06,4.420706311567361e-06,-0.0855211317539,-0.136135682464,0.0226892791688,0.0006823493416865631,-0.01991649011418769,-0.06430857757986212
136,1644542238713963985,1.97113656998,-11.2188072205,2.99102807045,acc,7.994689043598254e-06,-1.2131244332889663e-05,,,,,-0.01990954991897223,-0.06430415687355055
137,1644542238715978146,2.19668960571,-8.53178501129,1.55925726891,acc,8.91162821964569e-06,-6.3256643283541195e-06,,,,,-0.019901555229928633,-0.06431628811788344
138,1644542238717991829,2.00055646896,-10.3656291962,0.294199496508,acc,8.112094885661737e-06,-1.1929551942252736e-06,,,,,-0.019892643601708986,-0.0643226137822118
139,1644542238718945980,,,,gyr,8.110575277308453e-06,-1.2032432009038174e-06,-0.00174532923847,-0.253072738647,-0.00349065847695,0.0012683491923328185,-0.019892643601708986,-0.0643226137822118
140,1644542238720008135,1.8926833868,-10.5323419571,0.196132987738,acc,7.694685165746687e-06,-7.973766778884085e-07,,,,,-0.01988453302643168,-0.0643238170254127
141,1644542238722019911,2.12804293633,-8.99269771576,-0.549172401428,acc,8.612706184393575e-06,2.222633978539114e-06,,,,,-0.019876838341265933,-0.0643246144020906
142,1644542238723958015,,,,gyr,8.613561030828997e-06,2.219318812030401e-06,-0.00523598771542,-0.0767944902182,0.0069813169539,0.00038489667278077605,-0.019876838341265933,-0.0643246144020906
143,1644542238724036217,2.04958987236,-9.17902374268,0.402072638273,acc,8.332586895781559e-06,-1.6346222441898633e-06,,,,,-0.019868224780235103,-0.06432239508327857
144,1644542238726050138,1.73577702045,-11.1697740555,0.921825051308,acc,7.040099472996962e-06,-3.738809755775188e-06,,,,,-0.01985989219333932,-0.06432402970552276
145,1644542238728064299,0.843371868134,-9.83607006073,0.666852176189,acc,3.4214285533021605e-06,-2.705315605905668e-06,,,,,-0.019852852093866325,-0.06432776851527854
146,1644542238728970289,,,,gyr,3.419652845508543e-06,-2.7075598403568835e-06,0.0069813169539,-0.130899697542,0.0,0.0006561051505976305,-0.019852852093866325,-0.06432776851527854
147,1644542238730076075,-0.0980664938688,-8.38468551636,-1.20621788502,acc,-3.9689889889262634e-07,4.881856498607263e-06,,,,,-0.019849432441020817,-0.0643304760751189
148,1644542238732089996,0.0,-10.0322027206,-0.549172401428,acc,0.0,2.2273761481618294e-06,,,,,-0.01984982933991971,-0.06432559421862029
149,1644542238733982086,,,,gyr,4.7149756673303496e-09,2.2273711577563097e-06,-0.214675500989,-0.422369688749,0.0296705961227,0.002116831138963172,-0.01984982933991971,-0.06432559421862029
150,1644542238734106302,-0.343232750893,-10.708861351,0.882598459721,acc,-1.395409277174512e-06,-3.5881951110736376e-06,,,,,-0.019849824624944043,-0.06432336684746254
151,1644542238736120224,-1.08853816986,-8.48275184631,-1.01989161968,acc,-4.414982175779759e-06,4.136559880755921e-06,,,,,-0.01985122003422122,-0.06432695504257362
152,1644542238738134384,-0.921825051308,-9.61051654816,-0.725692093372,acc,-3.739697207223093e-06,2.9440170789851874e-06,,,,,-0.019855635016397,-0.06432281848269286
153,1644542238738994122,,,,gyr,-3.731389839113143e-06,2.954539157234486e-06,-0.226892799139,-0.561996042728,0.0174532923847,0.002816744398010274,-0.019855635016397,-0.06432281848269286
154,1644542238740148306,-0.343232750893,-9.94394302368,0.451105892658,acc,-1.3921114750908047e-06,-1.8296321898665583e-06,,,,,-0.01985936640623611,-0.06431986394353563
155,1644542238742164373,0.627625584602,-9.25747776031,0.725692093372,acc,2.551000600075524e-06,-2.9495944892622146e-06,,,,,-0.019860758517711203,-0.0643216935757255
156,1644542238744006395,,,,gyr,2.5430698123095063e-06,-2.956434954872473e-06,-0.0959931090474,-0.535816073418,0.0174532923847,0.0026856564377590593,-0.019860758517711203,-0.0643216935757255
157,1644542238744178295,1.09834480286,-9.53206348419,1.01989161968,acc,4.4547567203003086e-06,-4.136559880755921e-06,,,,,-0.019858215447898894,-0.06432465001068037
158,1644542238746192455,1.78481030464,-10.5323419571,1.01989161968,acc,7.240690738675828e-06,-4.1375376340398145e-06,,,,,-0.01985376069117859,-0.06432878657056113
159,1644542238748206377,1.81423020363,-8.95347118378,0.137293100357,acc,7.358303303978671e-06,-5.568445900355106e-07,,,,,-0.019846520000439915,-0.06433292410819516
160,1644542238749018192,,,,gyr,7.357188114132692e-06,-5.713899404608811e-07,-0.00523598771542,-0.394444406033,0.0279252678156,0.0019768752908229715,-0.019846520000439915,-0.06433292410819516
161,1644542238750222445,2.36340260506,-9.53206348419,0.686465501785,acc,9.606121217231755e-06,-2.790159749962331e-06,,,,,-0.019839162812325783,-0.06433349549813562
162,1644542238752236366,2.28494930267,-9.99297618866,0.735498726368,acc,9.26747513766571e-06,-2.9830929519685087e-06,,,,,-0.01982955669110855,-0.06433628565788559
163,1644542238754028320,,,,gyr,9.263397236413266e-06,-2.9957320687517005e-06,-0.0104719754308,-0.272271364927,0.0104719754308,0.0013641143890189807,-0.01982955669110855,-0.06433628565788559
164,1644542238754248381,1.13757133484,-9.7478094101,-0.764918684959,acc,4.605121237766262e-06,3.0965471556685965e-06,,,,,-0.019820293293872138,-0.06433928138995434
165,1644542238756262541,-0.0784531980753,-9.49283695221,-0.813951909542,acc,-3.1827211174573706e-07,3.302073076240453e-06,,,,,-0.01981568817263437,-0.06433618484279868
166,1644542238758276463,-1.12776470184,-9.53206348419,-0.921825051308,acc,-4.574080353780838e-06,3.7388134687417678e-06,,,,,-0.019816006444746116,-0.06433288276972245
167,1644542238759040356,,,,gyr,-4.5705460819295825e-06,3.7431331461553475e-06,-0.0942477807403,-0.188495561481,0.0069813169539,0.0009447465399829853,-0.019816006444746116,-0.06433288276972245
168,1644542238760290384,-0.725692093372,-9.81645679474,0.225552946329,acc,-2.9433184469637613e-06,-9.148151864414233e-07,,,,,-0.019820576990828044,-0.06432913963657629
169,1644542238762304544,-1.54945063591,-9.34573745728,-0.137293100357,acc,-6.2858741011873664e-06,5.569762106676834e-07,,,,,-0.01982352030927501,-0.06433005445176272
170,1644542238764052391,,,,gyr,-6.285246515028972e-06,5.6401414924094e-07,-0.0872664600611,-0.223402142525,-0.00872664619237,0.0011196993574102885,-0.01982352030927501,-0.06433005445176272
171,1644542238764318466,-2.12804293633,-8.85540485382,-0.38245934248,acc,-8.631090662075106e-06,1.551209894850831e-06,,,,,-0.019829805555790038,-0.06432949043761348
172,1644542238766334534,-1.17679798603,-10.5323419571,1.12776470184,acc,-4.7831309307164765e-06,-4.583833667271108e-06,,,,,-0.01983843664645211,-0.06432793922771862
173,1644542238768348455,-0.882598459721,-9.42419052124,-0.0294199492782,acc,-3.579711494013714e-06,1.1932371898514792e-07,,,,,-0.019843219777382827,-0.0643325230613859
174,1644542238769064426,,,,gyr,-3.5795594295853172e-06,1.2380153615033376e-07,-0.0471238903701,-0.249582082033,-0.0226892791688,0.0012509141305222671,-0.019843219777382827,-0.0643325230613859
175,1644542238770362616,-0.57859236002,-9.5222568512,-0.509945809841,acc,-2.3472592531155885e-06,2.0687708712493787e-06,,,,,-0.019846799336812413,-0.06433239925984975
176,1644542238772376537,-0.343232750893,-10.3656291962,0.12748645246,acc,-1.3921100926031715e-06,-5.17069471599075e-07,,,,,-0.01984914659606553,-0.0643303304889785
177,1644542238774076462,,,,gyr,-1.3923270808050186e-06,-5.164848966275124e-07,-0.0523598790169,-0.0837758034468,-0.0209439508617,0.0004198873428042857,-0.01984914659606553,-0.0643303304889785
178,1644542238774390697,-0.774725317955,-9.17902374268,-0.558979034424,acc,-3.1429370505936832e-06,2.26768878863246e-06,,,,,-0.019850538923146335,-0.06433084697387513
179,1644542238776404619,-0.490332484245,-9.88510322571,-0.137293100357,acc,-1.9887306096265847e-06,5.568445900355106e-07,,,,,-0.01985368186019693,-0.06432857928508649
180,1644542238778418541,-0.921825051308,-9.75761604309,0.137293100357,acc,-3.7388134687417678e-06,-5.568445900355106e-07,,,,,-0.019855670590806555,-0.06432802244049646
181,1644542238779088736,,,,gyr,-3.73923134364142e-06,-5.540315967760743e-07,-0.109955742955,-0.150098308921,-0.0383972451091,0.0007523338512486964,-0.019855670590806555,-0.06432802244049646
182,1644542238780432701,-1.28467106819,-9.49283695221,-0.558979034424,acc,-5.211705625805612e-06,2.26768878863246e-06,,,,,-0.019859409822150197,-0.06432857647209324
183,1644542238782448769,-0.833565235138,-10.0420093536,0.12748645246,acc,-3.388051055737343e-06,-5.18172533644357e-07,,,,,-0.019864621527776002,-0.0643263087833046
184,1644542238784100533,,,,gyr,-3.388340609762323e-06,-5.162757433211671e-07,-0.0785398185253,-0.111701071262,-0.0436332300305,0.0005598230938476779,-0.019864621527776002,-0.0643263087833046
185,1644542238784460783,-1.04931151867,-9.48303031921,-0.470719188452,acc,-4.247823242654228e-06,1.9055655769452946e-06,,,,,-0.019868009868385765,-0.06432682505904792
186,1644542238786476612,-1.05911815166,-11.1109342575,3.44213414192,acc,-4.303797101252476e-06,-1.3987341184643555e-05,,,,,-0.01987225769162842,-0.06432491949347098
187,1644542238788490772,-0.872791826725,-10.0125894547,0.294199496508,acc,-3.5407772356145967e-06,-1.1935204341607803e-06,,,,,-0.019876561488729672,-0.06433890683465562
188,1644542238789112806,,,,gyr,-3.5412363771614134e-06,-1.1921574476865838e-06,0.214675500989,-0.0767944902182,-0.0261799395084,0.000384914949869448,-0.019876561488729672,-0.06433890683465562
189,1644542238790502787,-0.921825051308,-8.72791862488,-0.313812792301,acc,-3.7317361920696792e-06,1.2703783140872904e-06,,,,,-0.019880102725106832,-0.06434009899210331
190,1644542238792518854,-0.274586200714,-9.61051654816,0.912018418312,acc,-1.1160627928163017e-06,-3.7069227091327027e-06,,,,,-0.0198838344612989,-0.06433882861378923
191,1644542238794124842,,,,gyr,-1.115479095295711e-06,-3.7070983959089784e-06,0.989601671696,0.0314159244299,0.00523598771542,-0.00015745774421593829,-0.0198838344612989,-0.06433882861378923
192,1644542238794532776,-0.166713044047,-10.2969818115,0.696272134781,acc,-6.761684048545165e-07,-2.823997494681879e-06,,,,,-0.019884949940394196,-0.06434253571218514
193,1644542238796546936,-1.13757133484,-8.65927219391,0.0784531980753,acc,-4.614945469188373e-06,-3.1827211174573706e-07,,,,,-0.01988562610879905,-0.06434535970967982
194,1644542238798562765,-0.735498726368,-9.53206348419,0.666852176189,acc,-2.988748027362353e-06,-2.7097982017850026e-06,,,,,-0.01989024105426824,-0.06434567798179157
195,1644542238799136639,,,,gyr,-2.990904075541962e-06,-2.7074183046522522e-06,0.959931075573,-0.158824965358,0.00174532923847,0.0007959984849063283,-0.01989024105426824,-0.06434567798179157
196,1644542238800576925,-0.362846046686,-9.67916297913,0.696272134781,acc,-1.4720085394925937e-06,-2.824664999300144e-06,,,,,-0.01989323195834378,-0.06434838540009621
197,1644542238802590847,0.264779537916,-9.15941047668,0.961051702499,acc,1.0739145146933057e-06,-3.897912130248575e-06,,,,,-0.01989470396688327,-0.06435121006509552
198,1644542238804148912,,,,gyr,1.0694468159919243e-06,-3.89914027290282e-06,0.916297852993,-0.228638127446,0.0104719754308,0.0011459967129681448,-0.01989470396688327,-0.06435121006509552
199,1644542238804604769,-0.0686465501785,-9.38496398926,0.872791826725,acc,-2.784222950177553e-07,-3.539940504477416e-06,,,,,-0.019893634520067278,-0.06435510920536842
200,1644542238806618929,-0.0980664938688,-10.1400756836,1.01989161968,acc,-3.978401245691219e-07,-4.1375376340398145e-06,,,,,-0.019893912942362296,-0.0643586491458729
201,1644542238808634758,0.725692093372,-9.91452312469,0.804145276546,acc,2.948898121480672e-06,-3.2676978529356405e-06,,,,,-0.019894310782486865,-0.06436278668350694
202,1644542238809160948,,,,gyr,2.945323273370296e-06,-3.2709203910055217e-06,0.802851438522,-0.218166157603,0.0104719754308,0.0010934566358879098,-0.019894310782486865,-0.06436278668350694
203,1644542238810648918,0.725692093372,-9.16921710968,0.402072638273,acc,2.9440170789851874e-06,-1.6311445651393633e-06,,,,,-0.019891365459213495,-0.06436605760389794
204,1644542238812662840,0.225552946329,-9.99297618866,1.2552511692,acc,9.148160949332792e-07,-5.0911503993079674e-06,,,,,-0.01988842144213451,-0.06436768874846308
205,1644542238814172745,,,,gyr,9.071553018838372e-07,-5.092520999876848e-06,0.692895710468,-0.300196617842,0.0139626339078,0.0015045245087106822,-0.01988842144213451,-0.06436768874846308
206,1644542238814677000,0.38245934248,-9.42419052124,1.05911815166,acc,1.5515765523180068e-06,-4.296673417870492e-06,,,,,-0.019887514286832626,-0.06437278126946296
207,1644542238816692829,1.31409108639,-9.2868976593,1.68674373627,acc,5.339896591822897e-06,-6.8541954373425035e-06,,,,,-0.019885962710280307,-0.06437707794288082
208,1644542238818706989,0.38245934248,-9.64974308014,2.8341217041,acc,1.5515765523180068e-06,-1.1497579726992979e-05,,,,,-0.019880622813688485,-0.06438393213831817
209,1644542238819185019,,,,gyr,1.5354819795447016e-06,-1.1499740191271995e-05,0.553269386292,-0.279252678156,0.0209439508617,0.0013996909381516869,-0.019880622813688485,-0.06438393213831817
210,1644542238820720911,0.12748645246,-9.8949098587,2.14765620232,acc,5.170699850944901e-07,-8.710639751075645e-06,,,,,-0.01987908733170894,-0.06439543187850943
211,1644542238822735071,-0.264779537916,-9.66935634613,1.31409108639,acc,-1.07416835447168e-06,-5.331057947314861e-06,,,,,-0.019878570261723846,-0.06440414251826052
212,1644542238824195147,,,,gyr,-1.0844219888396674e-06,-5.328981651450713e-06,0.25830873847,-0.38397243619,0.0209439508617,0.0019237510537837323,-0.019878570261723846,-0.06440414251826052
213,1644542238824750900,0.0980664938688,-9.58109664917,1.16699135303,acc,3.9849972487113514e-07,-4.742147034762133e-06,,,,,-0.019879654683712684,-0.06440947149991197
214,1644542238826763153,-0.686465501785,-9.64974308014,1.97113656998,acc,-2.77961011750424e-06,-7.98145156406567e-06,,,,,-0.019879256183987812,-0.06441421364694673
215,1644542238828777075,-0.402072638273,-10.0125894547,0.990471601486,acc,-1.6307591047288162e-06,-4.017235763757495e-06,,,,,-0.019882035794105316,-0.0644221950985108
216,1644542238829206944,,,,gyr,-1.636414979072775e-06,-4.014935174512093e-06,0.0349065847695,-0.280998021364,0.0209439508617,0.001408305040478031,-0.019882035794105316,-0.0644221950985108
217,1644542238830790997,-0.421685934067,-9.53206348419,0.38245934248,acc,-1.7103083146108573e-06,-1.551209894850831e-06,,,,,-0.019883672209084387,-0.06442621003368532
218,1644542238832805157,-0.529559075832,-9.45361042023,1.33370435238,acc,-2.14833670894336e-06,-5.4106258392302e-06,,,,,-0.019885382517399,-0.06442776124358017
219,1644542238834219217,,,,gyr,-2.156002416423564e-06,-5.407575812461148e-06,-0.167551606894,-0.28274333477,0.0226892791688,0.0014171867827976325,-0.019885382517399,-0.06442776124358017
220,1644542238834819078,-0.490332484245,-9.78703689575,1.55925726891,acc,-1.9887286346443206e-06,-6.324156932480937e-06,,,,,-0.019887538519815423,-0.06443316881939264
221,1644542238836835146,0.0784531980753,-9.30651092529,1.05911815166,acc,3.1887539134352963e-07,-4.304817692268777e-06,,,,,-0.019889527248450067,-0.06443949297632512
222,1644542238838849068,-0.245166242123,-9.70858287811,1.12776470184,acc,-9.943653048153203e-07,-4.574080353780838e-06,,,,,-0.019889208373058725,-0.06444379779401739
223,1644542238839231253,,,,gyr,-1.0006863229699598e-06,-4.572701644026775e-06,-0.328121900558,-0.275762021542,0.0139626339078,0.0013821291794012796,-0.019889208373058725,-0.06444379779401739
224,1644542238840863228,0.0686465501785,-9.45361042023,0.725692093372,acc,2.784881053338417e-07,-2.9440170789851874e-06,,,,,-0.019890209059381696,-0.06444837049566142
225,1644542238842877150,-0.294199496508,-9.53206348419,0.804145276546,acc,-1.1932383899530623e-06,-3.2615182094576323e-06,,,,,-0.019889930571276363,-0.0644513145127404
226,1644542238844243526,,,,gyr,-1.2000834300959733e-06,-3.259005775798898e-06,-0.476474881172,-0.418879032135,0.0349065847695,0.002099536063036393,-0.019889930571276363,-0.0644513145127404
227,1644542238844893217,0.225552946329,-9.58109664917,0.196132987738,acc,9.167658482229563e-07,-7.971876572423734e-07,,,,,-0.01989113065470646,-0.0644545735185162
228,1644542238846907139,0.0784531980753,-9.57129001617,0.264779537916,acc,3.181968999579648e-07,-1.0739145146933057e-06,,,,,-0.019890213888858237,-0.06445537070617345
229,1644542238848919392,0.12748645246,-9.57129001617,0.470719188452,acc,5.162133161551435e-07,-1.9060183145727232e-06,,,,,-0.01988989569195828,-0.06445644462068814
230,1644542238849255323,,,,gyr,5.12711244817087e-07,-1.9069633406808448e-06,-0.462512254715,-0.366519153118,0.0349065847695,0.001836919592039333,-0.01988989569195828,-0.06445644462068814
231,1644542238850935221,0.666852176189,-9.83607006073,0.274586200714,acc,2.7097982017850026e-06,-1.115799302301275e-06,,,,,-0.019889382980713462,-0.06445835158402882
232,1644542238852949381,0.57859236002,-9.58109664917,0.274586200714,acc,2.347256922359834e-06,-1.1139524213353667e-06,,,,,-0.019886673182511676,-0.06445946738333112
233,1644542238854267359,,,,gyr,2.344864138549492e-06,-1.118980441433021e-06,-0.366519153118,-0.42760565877,0.0296705961227,0.0021431749555589556,-0.019886673182511676,-0.06445946738333112
234,1644542238854963303,0.549172401428,-9.86548995972,0.529559075832,acc,2.2273783601420422e-06,-2.1478290293866114e-06,,,,,-0.019884328318373126,-0.06446058636377255
235,1644542238856977463,0.402072638273,-9.8949098587,0.490332484245,acc,1.6311445651393633e-06,-1.98920068329659e-06,,,,,-0.019882100940012984,-0.06446273419280193
236,1644542238858993292,0.529559075832,-9.5222568512,0.166713044047,acc,2.1518985506343656e-06,-6.774495504452347e-07,,,,,-0.019880469795447844,-0.06446472339348523
237,1644542238859279633,,,,gyr,2.1504595466994214e-06,-6.820036683406131e-07,-0.272271364927,-0.422369688749,0.0418879017234,0.0021170326093047052,-0.019880469795447844,-0.06446472339348523
238,1644542238861007452,0.813951909542,-9.75761604309,0.0980664938688,acc,3.302073076240453e-06,-3.978401245691219e-07,,,,,-0.019878319335901146,-0.06446540539715358
239,1644542238863021374,0.509945809841,-9.71838951111,0.0784531980753,acc,2.0682799403820163e-06,-3.181968999579648e-07,,,,,-0.019875017262824906,-0.06446580323727814
240,1644542238864291430,,,,gyr,2.0678016751104766e-06,-3.2129022913839345e-07,-0.193731546402,-0.298451304436,0.0436332300305,0.0014957773522184315,-0.019875017262824906,-0.06446580323727814
241,1644542238865035534,0.598205626011,-9.61051654816,0.0784531980753,acc,2.4268248142792297e-06,-3.1827211174573706e-07,,,,,-0.019872949461149796,-0.06446612452750729
242,1644542238867049456,0.558979034424,-9.7478094101,0.00980664975941,acc,2.2671529046463682e-06,-3.977461249473545e-08,,,,,-0.019870522636335517,-0.06446644279961904
243,1644542238869065762,0.490332484245,-9.56148338318,0.0294199492782,acc,1.9934417552968205e-06,-1.196065062264462e-07,,,,,-0.01986825548343087,-0.06446648257423153
244,1644542238869303703,,,,gyr,1.9932111109242486e-06,-1.23390499556038e-07,-0.191986218095,-0.378736436367,0.0593411922455,0.0018983304141185322,-0.01986825548343087,-0.06446648257423153
245,1644542238871077538,0.813951909542,-9.75761604309,-0.0686465501785,acc,3.2942609030254255e-06,2.7782924731738924e-07,,,,,-0.019866262272319947,-0.06446660596473108
246,1644542238873093843,0.804145276546,-9.98316955566,-0.196132987738,acc,3.269241245574639e-06,7.973758869603648e-07,,,,,-0.01986296801141692,-0.06446632813548377
247,1644542238874315739,,,,gyr,3.2706104985776822e-06,7.917408625716436e-07,-0.0383972451091,-0.343829870224,0.0750491544604,0.0017232876874380162,-0.01986296801141692,-0.06446632813548377
248,1644542238875107765,0.294199496508,-9.31631755829,-0.274586200714,acc,1.1932383899530623e-06,1.1136891800710211e-06,,,,,-0.019859697400918343,-0.0644655363946212
249,1644542238877121687,0.470719188452,-9.39477062225,0.0294199492782,acc,1.9091813997485995e-06,-1.1932383748408468e-07,,,,,-0.01985850416252839,-0.06446442270544113
250,1644542238879137754,0.402072638273,-9.03192424774,0.0686465501785,acc,1.6342347518525672e-06,-2.790156982040754e-07,,,,,-0.019856594981128642,-0.06446454202927861
251,1644542238879327536,,,,gyr,1.6337663135819381e-06,-2.8174565943739666e-07,-0.211184844375,-0.333357870579,0.0680678412318,0.0016707219756942205,-0.019856594981128642,-0.06446454202927861
252,1644542238881151915,0.57859236002,-10.1204624176,1.66713047028,acc,2.3472592531155885e-06,-6.763289135688564e-06,,,,,-0.01985496121481506,-0.06446482377493805
253,1644542238883165836,0.274586200714,-9.81645679474,0.951245009899,acc,1.1136880740809147e-06,-3.858133512531915e-06,,,,,-0.019852613955561944,-0.06447158706407374
254,1644542238884337902,,,,gyr,1.1084238539866944e-06,-3.8596491921915895e-06,-0.21991148591,-0.272271364927,-0.00349065847695,0.0013641791896038332,-0.019852613955561944,-0.06447158706407374
255,1644542238885181904,0.598205626011,-8.56120491028,0.294199496508,acc,2.4314248211407835e-06,-1.1957827326811512e-06,,,,,-0.019851505531707957,-0.06447544671326594
256,1644542238887195826,0.833565235138,-10.1596889496,0.38245934248,acc,3.3808420847173896e-06,-1.551209894850831e-06,,,,,-0.019849074106886817,-0.06447664249599862
257,1644542238889211893,0.598205626011,-10.0910425186,0.549172401428,acc,2.4314224090949405e-06,-2.2321255856326033e-06,,,,,-0.019845693264802098,-0.06447819370589347
258,1644542238889351845,,,,gyr,2.431070779745858e-06,-2.232508549894177e-06,0.144862323999,-0.0314159244299,0.0069813169539,0.0001575176543838261,-0.019845693264802098,-0.06447819370589347
259,1644542238891223907,0.0,-8.75733852386,-0.0980664938688,acc,0.0,3.9699281344923906e-07,,,,,-0.01984326219402235,-0.06448042621444336
260,1644542238893239975,0.813951909542,-9.62032318115,0.196132987738,acc,3.3083321019099955e-06,-7.971884480770581e-07,,,,,-0.01984326219402235,-0.0644800292216299
261,1644542238894361734,,,,gyr,3.308680312747514e-06,-7.957419847618518e-07,0.246091425419,0.0872664600611,0.0104719754308,-0.00043719527832904425,-0.01984326219402235,-0.0644800292216299
262,1644542238895255804,0.470719188452,-9.96355628967,0.421685934067,acc,1.912798752045171e-06,-1.7135488593335943e-06,,,,,-0.019839953513709603,-0.06448082496361467
263,1644542238897268057,0.637432217598,-9.31631755829,-0.0392265990376,acc,2.5810663997700706e-06,1.5883485954745698e-07,,,,,-0.019838040714957556,-0.064482538512474
264,1644542238899283886,0.598205626011,-9.43399715424,0.402072638273,acc,2.430848376211716e-06,-1.6338489264678203e-06,,,,,-0.019835459648557787,-0.06448237967761446
265,1644542238899374008,,,,gyr,2.430676846552644e-06,-1.634104100198051e-06,0.280998021364,-0.0209439508617,-0.00523598771542,0.00010497682036137649,-0.019835459648557787,-0.06448237967761446
266,1644542238901299953,0.509945809841,-10.1106557846,0.529559075832,acc,2.0726880784111437e-06,-2.152406710888833e-06,,,,,-0.019833028971711235,-0.06448401378171466
267,1644542238903313875,0.245166242123,-9.61051654816,0.421685934067,acc,9.943653048153203e-07,-1.7103083146108573e-06,,,,,-0.019830956283632822,-0.06448616618842555
268,1644542238904386044,,,,gyr,9.939912514576657e-07,-1.7105257327713958e-06,0.38397243619,-0.0436332300305,0.0191986225545,0.0002186913197091471,-0.019830956283632822,-0.06448616618842555
269,1644542238905328035,0.451105892658,-9.2868976593,0.421685934067,acc,1.83006465764982e-06,-1.7107125779647766e-06,,,,,-0.019829962292381365,-0.06448787671415832
270,1644542238907344103,0.57859236002,-9.70858287811,0.38245934248,acc,2.3517061095797575e-06,-1.554517540371571e-06,,,,,-0.019828132227723717,-0.06448958742673629
271,1644542238909358263,0.696272134781,-9.88510322571,0.343232750893,acc,2.824664999300144e-06,-1.392440526671237e-06,,,,,-0.01982578052161414,-0.06449114194427666
272,1644542238909398079,,,,gyr,2.823824024491058e-06,-1.394145206675e-06,0.34033921361,-0.120427720249,0.0174532923847,0.0006035879488581967,-0.01982578052161414,-0.06449114194427666
273,1644542238911374092,0.529559075832,-9.67916297913,0.598205626011,acc,2.1518985506343656e-06,-2.430848376211716e-06,,,,,-0.01982295669758965,-0.06449253608948334
274,1644542238913388252,0.402072638273,-9.53206348419,0.421685934067,acc,1.6311445651393633e-06,-1.7107125779647766e-06,,,,,-0.019820804799039013,-0.06449496693785955
275,1644542238914410114,,,,gyr,1.6294227976447232e-06,-1.7123526106810532e-06,0.317649930716,-0.200712859631,0.00349065847695,0.001005979877420659,-0.019820804799039013,-0.06449496693785955
276,1644542238915402174,0.833565235138,-9.86548995972,0.598205626011,acc,3.3808420847173896e-06,-2.426251324406395e-06,,,,,-0.01981917537624137,-0.06449667929047023
277,1644542238917418242,1.16699135303,-9.61051654816,0.274586200714,acc,4.743271574917673e-06,-1.1160638999849323e-06,,,,,-0.01981579453415665,-0.06449910554179464
278,1644542238919422388,,,,gyr,4.742958960162152e-06,-1.1173916790853202e-06,0.420624345541,-0.0558505356312,0.0104719754308,0.00027993818763033735,-0.01981579453415665,-0.06449910554179464
279,1644542238919432402,0.921825051308,-9.62032318115,0.196132987738,acc,3.739697207223093e-06,-7.956802491398666e-07,,,,,-0.019811051575196487,-0.06450022293347372
280,1644542238921448231,0.882598459721,-9.71838951111,0.421685934067,acc,3.586497584394673e-06,-1.7135488593335943e-06,,,,,-0.019807311877989266,-0.06450101861372287
281,1644542238923462391,0.725692093372,-9.57129001617,0.245166242123,acc,2.9440170789851874e-06,-9.946003416503236e-07,,,,,-0.019803725380404872,-0.0645027321625822
282,1644542238924434423,,,,gyr,2.943442360850361e-06,-9.962998892497534e-07,0.401425719261,-0.115191727877,0.0139626339078,0.0005773449718299996,-0.019803725380404872,-0.0645027321625822
283,1644542238925476313,1.22583127022,-9.94394302368,0.313812792301,acc,4.971826765827438e-06,-1.2727875998310479e-06,,,,,-0.01980078193804402,-0.06450372846247146
284,1644542238927492380,1.28467106819,-9.91452312469,0.0294199492782,acc,5.22157914886555e-06,-1.1957815312846397e-07,,,,,-0.019795810111278192,-0.06450500125007129
285,1644542238929446220,,,,gyr,5.221338231223842e-06,-1.2967196201718886e-07,0.422369688749,-0.385717749596,0.00349065847695,0.0019331390602719842,-0.019795810111278192,-0.06450500125007129
286,1644542238929506302,1.01008486748,-9.86548995972,0.725692093372,acc,4.096784852774258e-06,-2.9433213699375797e-06,,,,,-0.019790588773046968,-0.0645051309220333
287,1644542238931520462,0.549172401428,-9.62032318115,0.451105892658,acc,2.2279048426707335e-06,-1.83006465764982e-06,,,,,-0.019786491988194193,-0.06450807424340324
288,1644542238933536291,0.470719188452,-9.39477062225,0.38245934248,acc,1.912798752045171e-06,-1.55414899360611e-06,,,,,-0.019784264083351523,-0.06450990430806089
289,1644542238934458494,,,,gyr,1.9085497423433163e-06,-1.5593639861025743e-06,0.370009809732,-0.544542729855,0.0174532923847,0.00272939736674124,-0.019784264083351523,-0.06450990430806089
290,1644542238935550451,0.529559075832,-9.58109664917,0.774725317955,acc,2.14833670894336e-06,-3.1429370505936832e-06,,,,,-0.01978235553360918,-0.06451146367204699
291,1644542238937566519,0.490332484245,-9.35554409027,0.402072638273,acc,1.9929711807541446e-06,-1.6342363730637251e-06,,,,,-0.019780207196900237,-0.06451460660909758
292,1644542238939470530,,,,gyr,1.9876426253770734e-06,-1.6407130901364757e-06,0.436332315207,-0.649262487888,0.0,0.0032541269627442203,-0.019780207196900237,-0.06451460660909758
293,1644542238939580679,0.313812792301,-9.64974308014,0.451105892658,acc,1.2730884469821368e-06,-1.83006465764982e-06,,,,,-0.01977821955427486,-0.06451624732218772
294,1644542238941594601,0.196132987738,-9.7478094101,0.725692093372,acc,7.954922196775783e-07,-2.9433213699375797e-06,,,,,-0.019776946465827876,-0.06451807738684537
295,1644542238943608761,-0.402072638273,-9.58109664917,0.470719188452,acc,-1.6311445651393633e-06,-1.9096326704752334e-06,,,,,-0.0197761509736082,-0.0645210207082153
296,1644542238944482565,,,,gyr,-1.6365503618300607e-06,-1.9050019532073845e-06,0.493928164244,-0.56548666954,-0.00523598771542,0.002834238979767914,-0.0197761509736082,-0.0645210207082153
297,1644542238945622444,-0.402072638273,-9.17902374268,0.470719188452,acc,-1.6303720705741994e-06,-1.9087282865898754e-06,,,,,-0.01977778752397003,-0.06452292571016852
298,1644542238947638750,-0.12748645246,-9.81645679474,0.549172401428,acc,-5.182948830317447e-07,-2.2326548434759665e-06,,,,,-0.019779417896040603,-0.06452483443845511
299,1644542238949494600,,,,gyr,-5.245425997296651e-07,-2.231195261948722e-06,0.472984224558,-0.558505356312,0.0104719754308,0.002799248393523215,-0.019779417896040603,-0.06452483443845511
300,1644542238949652672,-0.38245934248,-9.7478094101,0.470719188452,acc,-1.551209894850831e-06,-1.9091813997485995e-06,,,,,-0.019779942438640334,-0.06452706563371706
301,1644542238951668739,-0.402072638273,-9.58109664917,0.725692093372,acc,-1.6342347518525672e-06,-2.9495944892622146e-06,,,,,-0.019781493648535185,-0.06452897481511681
302,1644542238953682899,-0.343232750893,-9.30651092529,0.490332484245,acc,-1.392440526671237e-06,-1.98920068329659e-06,,,,,-0.01978312788328704,-0.06453192440960608
303,1644542238954506874,,,,gyr,-1.3992190585301041e-06,-1.9844384608725513e-06,0.488692194223,-0.680678427219,-0.00523598771542,0.0034117467831106855,-0.01978312788328704,-0.06453192440960608
304,1644542238955696821,-0.362846046686,-9.7478094101,0.912018418312,acc,-1.4716606849687898e-06,-3.6990389242374426e-06,,,,,-0.01978452710234557,-0.06453390884806695
305,1644542238957712889,-0.176519691944,-9.62032318115,0.686465501785,acc,-7.174696153808393e-07,-2.790159749962331e-06,,,,,-0.019785998763030537,-0.06453760788699119
306,1644542238959518909,,,,gyr,-7.26350236848331e-07,-2.7878610820367215e-06,0.431096315384,-0.635299861431,0.0104719754308,0.0031841451409873223,-0.019785998763030537,-0.06453760788699119
307,1644542238959726810,-0.0980664938688,-9.42419052124,0.598205626011,acc,-3.977457148415371e-07,-2.4262489149280516e-06,,,,,-0.019786725113267387,-0.06454039574807323
308,1644542238961742878,-0.294199496508,-9.67916297913,0.961051702499,acc,-1.1957827326811512e-06,-3.906223649947264e-06,,,,,-0.01978712285898223,-0.06454282199698816
309,1644542238963756800,-0.343232750893,-9.39477062225,0.627625584602,acc,-1.3921114750908047e-06,-2.5455751996620958e-06,,,,,-0.01978831864171491,-0.0645467282206381
310,1644542238964528799,,,,gyr,-1.3990064171376165e-06,-2.5417923796057738e-06,0.534070730209,-0.541052043438,-0.00174532923847,0.002710611221899602,-0.01978831864171491,-0.0645467282206381
311,1644542238965770960,-0.264779537916,-9.49283695221,0.666852176189,acc,-1.07416835447168e-06,-2.705312919611043e-06,,,,,-0.019789717648132046,-0.0645492700130177
312,1644542238967784882,-0.0392265990376,-9.88510322571,0.804145276546,acc,-1.5909844997877958e-07,-3.2615182094576323e-06,,,,,-0.01979079181648652,-0.06455197532593732
313,1644542238969541073,,,,gyr,-1.6914093875309295e-07,-3.261012831966028e-06,0.476474881172,-0.614355921745,-0.0139626339078,0.003079320213308498,-0.01979079181648652,-0.06455197532593732
314,1644542238969800949,-0.294199496508,-9.80665016174,1.01008486748,acc,-1.1957815464290641e-06,-4.1055163560655065e-06,,,,,-0.01979096095742527,-0.06455523633876928
315,1644542238971814871,-0.57859236002,-9.78703689575,1.01008486748,acc,-2.3467022354017995e-06,-4.096784852774258e-06,,,,,-0.0197921567389717,-0.06455934185512534
316,1644542238973829031,-0.833565235138,-9.5222568512,0.725692093372,acc,-3.381641209967827e-06,-2.9440170789851874e-06,,,,,-0.019794503441207104,-0.06456343863997811
317,1644542238974552870,,,,gyr,-3.3967129966798318e-06,-2.9266148794290416e-06,0.335103213787,-1.02450823784,0.0,0.005134627312881798,-0.019794503441207104,-0.06456343863997811
318,1644542238975844860,-1.01989161968,-9.39477062225,0.990471601486,acc,-4.144397477742005e-06,-4.024847275695443e-06,,,,,-0.019797900154203782,-0.06456636525485754
319,1644542238977859020,-0.166713044047,-10.5421485901,1.31409108639,acc,-6.763282299017466e-07,-5.331057947314861e-06,,,,,-0.019802044551681525,-0.06457039010213324
320,1644542238979565144,,,,gyr,-6.935335305518182e-07,-5.328846962917147e-06,0.370009809732,-0.644026517868,0.0191986225545,0.003228037370820312,-0.019802044551681525,-0.06457039010213324
321,1644542238979872942,-1.33370435238,-9.5222568512,1.04931151867,acc,-5.409347238852356e-06,-4.255883514277009e-06,,,,,-0.019802738085212077,-0.06457571894909615
322,1644542238981889248,-0.529559075832,-9.34573745728,0.951245009899,acc,-2.152917066641743e-06,-3.8672769665061e-06,,,,,-0.01980814743245093,-0.06457997483261042
323,1644542238983903408,-1.01008486748,-9.24767112732,0.402072638273,acc,-4.097753204486472e-06,-1.6311445651393633e-06,,,,,-0.019810300349517574,-0.06458384210957693
324,1644542238984577179,,,,gyr,-4.1016368665751645e-06,-1.6213540427723668e-06,0.459021598101,-0.476474881172,0.069813169539,0.0023881087810549047,-0.019810300349517574,-0.06458384210957693
325,1644542238985917330,-0.774725317955,-9.88510322571,0.804145276546,acc,-3.1421943342019315e-06,-3.2615182094576323e-06,,,,,-0.01981440198638415,-0.06458546346361971
326,1644542238987933397,-1.70635700226,-11.6895265579,3.47155404091,acc,-6.935532654343073e-06,-1.4110222175171346e-05,,,,,-0.019817544180718353,-0.06458872498182916
327,1644542238989589453,,,,gyr,-6.984125614593908e-06,-1.4086233436647625e-05,0.371755123138,-0.687659740448,0.0523598790169,0.003446739037894259,-0.019817544180718353,-0.06458872498182916
328,1644542238989947319,-1.97113656998,-9.75761604309,2.12804293633,acc,-7.99469698302689e-06,-8.631090662075106e-06,,,,,-0.019824528306332946,-0.0646028112152658
329,1644542238991961479,-1.95152330399,-6.80581474304,1.09834480286,acc,-7.917018787248975e-06,-4.455809685357695e-06,,,,,-0.019832523003315974,-0.06461144230592787
330,1644542238993977308,-1.20621788502,-9.86548995972,2.09862303734,acc,-4.9015466583132405e-06,-8.527894390790352e-06,,,,,-0.019840440022103223,-0.06461589811561323
331,1644542238994601250,,,,gyr,-4.922195204233567e-06,-8.515992998794405e-06,0.109955742955,-0.483456194401,0.153588980436,0.0024229843047303486,-0.019840440022103223,-0.06461589811561323
332,1644542238995991468,-0.990471601486,-8.99269771576,1.60829055309,acc,-4.018185312554906e-06,-6.5245782605493395e-06,,,,,-0.019845362217307455,-0.06462441410861203
333,1644542238998007298,-0.245166242123,-9.21825122833,1.54945063591,acc,-9.962503308821593e-07,-6.296302033036279e-06,,,,,-0.01984938040262001,-0.06463093868687257
334,1644542238999613523,,,,gyr,-1.0010971167582797e-06,-6.295533224105631e-06,0.0349065847695,-0.153588980436,0.0558505356312,0.0007698298997368911,-0.01984938040262001,-0.06463093868687257
335,1644542239000021458,-0.627625584602,-9.70858287811,1.70635700226,acc,-2.5461768939642735e-06,-6.92241820378256e-06,,,,,-0.01985038149973677,-0.06463723422009668
336,1644542239002037525,-0.402072638273,-9.66935634613,1.04931151867,acc,-1.6342347518525672e-06,-4.264954105544918e-06,,,,,-0.019852927676630733,-0.06464415663830046
337,1644542239004053354,0.0784531980753,-8.84559822083,1.05911815166,acc,3.18799792007393e-07,-4.303797101252476e-06,,,,,-0.019854561911382587,-0.06464842159240601
338,1644542239004625559,,,,gyr,3.1785858132361963e-07,-4.303866717082687e-06,0.0069813169539,-0.0436332300305,-0.00349065847695,0.0002186913197091471,-0.019854561911382587,-0.06464842159240601
339,1644542239006067514,0.225552946329,-9.96355628967,1.28467106819,acc,9.1503232882491e-07,-5.211705625805612e-06,,,,,-0.019854244052801263,-0.0646527254591231
340,1644542239008081436,0.245166242123,-9.42419052124,1.22583127022,acc,9.943653048153203e-07,-4.971826765827438e-06,,,,,-0.01985332902047244,-0.0646579371647489
341,1644542239009637594,,,,gyr,9.96235382036643e-07,-4.971452384605217e-06,0.0802851468325,0.0750491544604,-0.0104719754308,-0.00037614898887593093,-0.01985332902047244,-0.0646579371647489
342,1644542239010097742,0.451105892658,-10.3656291962,1.60829055309,acc,1.8339664439518978e-06,-6.5384889767513224e-06,,,,,-0.019852332785090403,-0.0646629086171335
343,1644542239012111664,0.225552946329,-9.7478094101,1.2650578022,acc,9.148160949332792e-07,-5.1309249438285175e-06,,,,,-0.01985049881864645,-0.06466944710611025
344,1644542239014125824,0.402072638273,-9.91452312469,1.48080408573,acc,1.6311445651393633e-06,-6.007385995847439e-06,,,,,-0.019849584002551518,-0.06467457803105407
345,1644542239014649630,,,,gyr,1.6337719353765691e-06,-6.006671986937817e-06,0.0,0.0872664600611,-0.00523598771542,-0.0004373826394187954,-0.019849584002551518,-0.06467457803105407
346,1644542239016141653,0.176519691944,-9.45361042023,1.48080408573,acc,7.172995168781217e-07,-6.017345960598262e-06,,,,,-0.01984795023061614,-0.06468058470304101
347,1644542239018155813,0.137293100357,-9.42419052124,1.52983736992,acc,5.569762106676834e-07,-6.206306209272027e-06,,,,,-0.019847232931099263,-0.06468660204900162
348,1644542239019661903,,,,gyr,5.548044494054386e-07,-6.206500727899593e-06,-0.34557518363,-0.069813169539,-0.0069813169539,0.0003499226647247522,-0.019847232931099263,-0.06468660204900162
349,1644542239020169735,0.176519691944,-9.8949098587,2.09862303734,acc,7.159430097955371e-07,-8.511767028554018e-06,,,,,-0.019846678126649857,-0.06469280854972952
350,1644542239022183895,0.38245934248,-9.42419052124,1.60829055309,acc,1.5515765523180068e-06,-6.5245782605493395e-06,,,,,-0.01984596218364006,-0.06470132031675807
351,1644542239024197817,-0.0294199492782,-9.35554409027,1.2552511692,acc,-1.1932383748408468e-07,-5.0911503993079674e-06,,,,,-0.01984441060708774,-0.06470784489501862
352,1644542239024673939,,,,gyr,-1.2052629582578294e-07,-5.091122074609891e-06,-0.551524043083,-0.0471238903701,-0.0104719754308,0.00023618663499499454,-0.01984441060708774,-0.06470784489501862
353,1644542239026213884,-0.313812792301,-9.25747776031,1.63771045208,acc,-1.275500300037762e-06,-6.6565169561329e-06,,,,,-0.019844531133383567,-0.06471293601709323
354,1644542239028228045,-0.274586200714,-9.39477062225,2.04958987236,acc,-1.1139535274567254e-06,-8.314867470463505e-06,,,,,-0.019845806633683606,-0.06471959253404937
355,1644542239029683828,,,,gyr,-1.1112634056416058e-06,-8.315227426594373e-06,-0.640535831451,0.0645771846175,-0.0296705961227,-0.00032352452686618246,-0.019845806633683606,-0.06471959253404937
356,1644542239030241966,-0.451105892658,-9.1201839447,1.78481030464,acc,-1.8296303728828466e-06,-7.238972481521891e-06,,,,,-0.01984691789708925,-0.06472790776147597
357,1644542239032258034,-0.558979034424,-9.7478094101,1.40235090256,acc,-2.27198715575241e-06,-5.699897567280428e-06,,,,,-0.019848747527462133,-0.06473514673395749
358,1644542239034271955,-0.313812792301,-9.5222568512,1.24544453621,acc,-1.2727863358423893e-06,-5.05137083837292e-06,,,,,-0.019851019514617884,-0.06474084663152477
359,1644542239034696102,,,,gyr,-1.272653766191814e-06,-5.051404239898963e-06,-0.876155257225,0.00523598771542,-0.0977384373546,-2.6244205090319064e-05,-0.019851019514617884,-0.06474084663152477
360,1644542239036288023,0.666852176189,-10.83634758,0.833565235138,acc,2.710440796134984e-06,-3.388051055737343e-06,,,,,-0.019852292168384075,-0.06474589803576467
361,1644542239038300037,0.176519691944,-10.1596889496,-0.166713044047,acc,7.145870762729151e-07,6.748878009593239e-07,,,,,-0.01984958172758794,-0.0647492860868204
362,1644542239039707899,,,,gyr,7.144571881750679e-07,6.750253030257166e-07,-0.994837641716,0.0383972451091,-0.0925024524331,-0.00019243919784605207,-0.01984958172758794,-0.0647492860868204
363,1644542239040316105,-0.274586200714,-9.67916297913,0.57859236002,acc,-1.1160638999849323e-06,-2.3517061095797575e-06,,,,,-0.019848867270399764,-0.06474861106151737
364,1644542239042330027,-0.696272134781,-9.58109664917,0.813951909542,acc,-2.823997494681879e-06,-3.3012927539619583e-06,,,,,-0.01984998333429975,-0.06475096276762696
365,1644542239044344187,-1.01008486748,-9.62032318115,1.01008486748,acc,-4.097753204486472e-06,-4.097753204486472e-06,,,,,-0.019852807331794432,-0.06475426406038091
366,1644542239044720173,,,,gyr,-4.098183351008822e-06,-4.097323012806338e-06,-0.994837641716,-0.0209439508617,0.00349065847695,0.00010497682036137649,-0.019852807331794432,-0.06475426406038091
367,1644542239046360016,-1.13757133484,-9.38496398926,1.08853816986,acc,-4.622596832731827e-06,-4.423347303323418e-06,,,,,-0.01985690551514544,-0.06475836138339372
368,1644542239048374176,-1.17679798603,-9.67916297913,0.764918684959,acc,-4.7740817366350075e-06,-3.103153104631957e-06,,,,,-0.019861528111978173,-0.06476278473069705
369,1644542239049732208,,,,gyr,-4.776197958681611e-06,-3.0998949463400353e-06,-0.96865773201,-0.136135682464,0.0104719754308,0.0006823168052584543,-0.019861528111978173,-0.06476278473069705
370,1644542239050388098,-1.01008486748,-9.62032318115,0.598205626011,acc,-4.096784852774258e-06,-2.426251324406395e-06,,,,,-0.019866304309936855,-0.0647658846256434
371,1644542239052404404,-1.09834480286,-9.67916297913,0.0392265990376,acc,-4.465309686968196e-06,-1.5947534163526162e-07,,,,,-0.01987040109478963,-0.0647683108769678
372,1644542239054418564,-1.20621788502,-9.53206348419,0.549172401428,acc,-4.8934335745283e-06,-2.2279048426707335e-06,,,,,-0.0198748664044766,-0.06476847035230944
373,1644542239054744482,,,,gyr,-4.896799715695685e-06,-2.220496494183042e-06,-0.994837641716,-0.30194196105,0.0,0.0015134158408799275,-0.0198748664044766,-0.06476847035230944
374,1644542239056432486,-1.52983736992,-9.20844459534,0.294199496508,acc,-6.204839579403324e-06,-1.1932383899530623e-06,,,,,-0.019879763204192297,-0.06477069084880362
375,1644542239058448553,-1.5886772871,-9.67916297913,0.490332484245,acc,-6.457220374928515e-06,-1.992969203667373e-06,,,,,-0.0198859680437717,-0.06477188408719357
376,1644542239059756279,,,,gyr,-6.4617708520308534e-06,-1.978165481703432e-06,-0.932005822659,-0.457276254892,0.0,0.002291775762438961,-0.0198859680437717,-0.06477188408719357
377,1644542239060462475,-1.39254426956,-9.57129001617,0.470719188452,acc,-5.647994989355646e-06,-1.9091813997485995e-06,,,,,-0.01989242981462373,-0.06477386225267527
378,1644542239062476635,-1.50041747093,-9.81645679474,0.402072638273,acc,-6.086954371378735e-06,-1.6311445651393633e-06,,,,,-0.019898077809613085,-0.06477577143407502
379,1644542239064492464,-1.45138418674,-9.56148338318,0.196132987738,acc,-5.897796242945089e-06,-7.969994497438957e-07,,,,,-0.019904164763984464,-0.06477740257864016
380,1644542239064768553,,,,gyr,-5.899490885851526e-06,-7.843570194395272e-07,-0.719075620174,-0.42760565877,0.0,0.002143276725705743,-0.019904164763984464,-0.06477740257864016
381,1644542239066506624,-1.01989161968,-9.7478094101,0.0294199492782,acc,-4.1375376340398145e-06,-1.1935204190449925e-07,,,,,-0.019910064254870317,-0.0647781869356596
382,1644542239068520546,-0.813951909542,-9.80665016174,0.0,acc,-3.3012927539619583e-06,-0.0,,,,,-0.019914201792504357,-0.06477830628770151
383,1644542239069780827,,,,gyr,-3.3012855985917327e-06,6.8734192767802405e-09,-0.588175952435,-0.415388345718,-0.00174532923847,0.0020820402051453424,-0.019914201792504357,-0.06477830628770151
384,1644542239070536613,-1.17679798603,-9.81645679474,0.245166242123,acc,-4.783126185708128e-06,-9.964846018357185e-07,,,,,-0.019917503078102947,-0.06477829941428223
385,1644542239072550774,-1.42196416855,-9.17902374268,0.490332484245,acc,-5.768687564613587e-06,-1.9892026585132326e-06,,,,,-0.019922286204288656,-0.06477929589888407
386,1644542239074566603,-0.951245009899,-9.81645679474,0.402072638273,acc,-3.865447409967959e-06,-1.6338489264678203e-06,,,,,-0.01992805489185327,-0.06478128510154257
387,1644542239074792624,,,,gyr,-3.868385215154638e-06,-1.6268810100683638e-06,-0.331612557173,-0.359537810087,0.0174532923847,0.0018019305179805963,-0.01992805489185327,-0.06478128510154257
388,1644542239076580763,-1.01008486748,-10.0910425186,0.264779537916,acc,-4.097753204486472e-06,-1.07416835447168e-06,,,,,-0.019931923277068424,-0.06478291198255265
389,1644542239078594685,-1.63771045208,-9.24767112732,0.264779537916,acc,-6.6423600524282426e-06,-1.0739145146933057e-06,,,,,-0.01993602103027291,-0.06478398615090712
390,1644542239079804897,,,,gyr,-6.644804008353135e-06,-1.0586874616890419e-06,-0.158824965358,-0.457276254892,0.00523598771542,0.0022919934259362897,-0.01993602103027291,-0.06478398615090712
391,1644542239080610752,-1.47099745274,-9.57129001617,0.274586200714,acc,-5.9789076110224415e-06,-1.1160627928163017e-06,,,,,-0.019942665834281264,-0.0647850448383688
392,1644542239082624674,-0.882598459721,-9.86548995972,0.0686465501785,acc,-3.5797150489817414e-06,-2.784222950177553e-07,,,,,-0.019948644741892285,-0.06478616090116163
393,1644542239084638834,-1.45138418674,-9.96355628967,0.0294199492782,acc,-5.8880341579541465e-06,-1.1935204190449925e-07,,,,,-0.019952224456941267,-0.06478643932345664
394,1644542239084816933,,,,gyr,-5.888290381832921e-06,-1.0596006019006209e-07,-0.0610865242779,-0.453785598278,0.00174532923847,0.002274389754850874,-0.019952224456941267,-0.06478643932345664
395,1644542239086652756,-2.12804293633,-8.98289108276,-0.0294199492782,acc,-8.631090662075106e-06,1.1932383748408468e-07,,,,,-0.0199581127473231,-0.06478654528351682
396,1644542239088666916,-1.73577702045,-9.1201839447,-0.176519691944,acc,-7.041770525251241e-06,7.161122363144532e-07,,,,,-0.019966743837985173,-0.06478642595967934
397,1644542239089829206,,,,gyr,-7.040027385551739e-06,7.330506639912205e-07,-0.0471238903701,-0.479965537786,0.0261799395084,0.0024057183059752476,-0.019966743837985173,-0.06478642595967934
398,1644542239090680838,-1.09834480286,-10.0125894547,-0.274586200714,acc,-4.4547567203003086e-06,1.1136891800710211e-06,,,,,-0.019973783865370725,-0.06478569290901535
399,1644542239092696905,-1.17679798603,-9.83607006073,-0.264779537916,acc,-4.783126185708128e-06,1.0762033554444165e-06,,,,,-0.019978238622091027,-0.06478457921983528
400,1644542239094711065,-1.61809718609,-9.38496398926,-0.00980664975941,acc,-6.564362206527293e-06,3.978401396820699e-08,,,,,-0.019983021748276736,-0.06478350301647984
401,1644542239094841003,,,,gyr,-6.564251387539704e-06,5.511503818708264e-08,-0.25830873847,-0.466002911329,-0.0296705961227,0.0023355119929899483,-0.019983021748276736,-0.06478350301647984
402,1644542239096727133,-1.47099745274,-9.20844459534,-0.0686465501785,acc,-5.978913542282757e-06,2.7901597499623306e-07,,,,,-0.019989585999664276,-0.06478344790144165
403,1644542239098741293,-1.01989161968,-9.78703689575,-0.0980664938688,acc,-4.1375376340398145e-06,3.978401245691219e-07,,,,,-0.01999556491320656,-0.06478316888546666
404,1644542239099853277,,,,gyr,-4.136654096952023e-06,4.0692421896835284e-07,-0.179768905044,-0.438077628613,0.0104719754308,0.002195765107878596,-0.01999556491320656,-0.06478316888546666
405,1644542239100757360,-1.2650578022,-10.1891088486,-0.225552946329,acc,-5.141860516391925e-06,9.167658482229563e-07,,,,,-0.01999970156730351,-0.06478276196124769
406,1644542239102771282,-1.67693710327,-9.24767112732,-0.0784531980753,acc,-6.801458713930992e-06,3.181968999579648e-07,,,,,-0.020004843427819902,-0.06478184519539947
407,1644542239104785442,-1.50041747093,-9.42419052124,-0.137293100357,acc,-6.086954371378735e-06,5.569762106676834e-07,,,,,-0.020011644886533834,-0.06478152699849951
408,1644542239104865313,,,,gyr,-6.085636883332623e-06,5.7119151141978e-07,0.069813169539,-0.466002911329,0.0349065847695,0.0023356233676857558,-0.020011644886533834,-0.06478152699849951
409,1644542239106801271,-1.12776470184,-9.70858287811,-0.00980664975941,acc,-4.582746926833892e-06,3.984997400091397e-08,,,,,-0.020017730523417168,-0.06478095580698809
410,1644542239108815432,-1.05911815166,-9.83607006073,-0.0784531980753,acc,-4.2966776843383835e-06,3.1827242778040234e-07,,,,,-0.020022313270344,-0.06478091595701409
411,1644542239109877348,,,,gyr,-4.295965642913523e-06,3.277432780138876e-07,0.228638127446,-0.439822971821,0.0,0.0022044081285708655,-0.020022313270344,-0.06478091595701409
412,1644542239110831261,-1.33370435238,-9.91452312469,-0.0686465501785,acc,-5.4195964035781325e-06,2.7894982557531875e-07,,,,,-0.020026609235986915,-0.06478058821373607
413,1644542239112845421,-1.97113656998,-9.57129001617,-0.313812792301,acc,-7.996586679164315e-06,1.2730884469821368e-06,,,,,-0.020032028832390494,-0.0647803092639105
414,1644542239114859343,-1.83384346962,-8.98289108276,-0.804145276546,acc,-7.43785239297921e-06,3.2615182094576323e-06,,,,,-0.020040025419069657,-0.06477903617546352
415,1644542239114887476,,,,gyr,-7.430418036873115e-06,3.278419901062245e-06,0.291469991207,-0.453785598278,0.0349065847695,0.0022735239319293596,-0.020040025419069657,-0.06477903617546352
416,1644542239116875410,-1.5886772871,-10.2087221146,1.45138418674,acc,-6.457220374928515e-06,-5.8991889785081705e-06,,,,,-0.02004745583710653,-0.06477575775556245
417,1644542239118891716,-2.04958987236,-9.34573745728,0.666852176189,acc,-8.332586895781559e-06,-2.7110807775107344e-06,,,,,-0.020053913057481457,-0.06478165694454095
418,1644542239119899750,,,,gyr,-8.3381898454528e-06,-2.6937990754929326e-06,0.130899697542,-0.413643032312,0.0506145469844,0.0020732922161385975,-0.020053913057481457,-0.06478165694454095
419,1644542239120905399,-1.73577702045,-9.16921710968,0.598205626011,acc,-7.038435609648942e-06,-2.4256754931094814e-06,,,,,-0.02006225124732691,-0.06478435074361645
420,1644542239122919559,-1.33370435238,-9.64974308014,0.558979034424,acc,-5.4106258392302e-06,-2.26768878863246e-06,,,,,-0.02006928968293656,-0.06478677641910956
421,1644542239124911547,,,,gyr,-5.413655902014888e-06,-2.2604455730705473e-06,0.144862323999,-0.267035365105,0.0942477807403,0.0013383270417271437,-0.02006928968293656,-0.06478677641910956
422,1644542239124935865,-1.05911815166,-9.45361042023,0.313812792301,acc,-4.305834133267224e-06,-1.275802733082906e-06,,,,,-0.020074703338838575,-0.06478903686468263
423,1644542239126949787,-0.343232750893,-9.75761604309,0.225552946329,acc,-1.3921114750908047e-06,-9.148160949332792e-07,,,,,-0.02007900917297184,-0.06479031266741571
424,1644542239128963947,-0.666852176189,-10.0322027206,0.0294199492782,acc,-2.705312919611043e-06,-1.1935204190449925e-07,,,,,-0.020080401284446932,-0.06479122748351064
425,1644542239129923820,,,,gyr,-2.7054070754443542e-06,-1.171983748045384e-07,0.209439516068,-0.158824965358,0.0593411922455,0.0007960740855898388,-0.020080401284446932,-0.06479122748351064
426,1644542239130979776,-0.274586200714,-9.49283695221,0.196132987738,acc,-1.115799302301275e-06,-7.969994497438957e-07,,,,,-0.020083106691522377,-0.06479134468188545
427,1644542239132993937,-0.764918684959,-9.94394302368,0.0294199492782,acc,-3.103156185969958e-06,-1.1935216041749872e-07,,,,,-0.02008422249082468,-0.0647921416813352
428,1644542239134935856,,,,gyr,-3.1032675586390223e-06,-1.1642041152024487e-07,0.267035365105,-0.188495561481,0.0471238903701,0.0009447465399829853,-0.02008422249082468,-0.0647921416813352
429,1644542239135007858,-0.490332484245,-9.2868976593,0.196132987738,acc,-1.9887286346443206e-06,-7.954914296846966e-07,,,,,-0.020087325758383318,-0.06479225810174671
430,1644542239137023926,-0.764918684959,-9.86548995972,0.490332484245,acc,-3.1090350807390773e-06,-1.9929711807541446e-06,,,,,-0.02008931448701796,-0.0647930535931764
431,1644542239139037848,-0.421685934067,-9.81645679474,0.57859236002,acc,-1.7103083146108573e-06,-2.3467022354017995e-06,,,,,-0.0200924235220987,-0.06479504656435715
432,1644542239139947891,,,,gyr,-1.7127912602080747e-06,-2.344890618263818e-06,0.352556496859,-0.211184844375,0.0471238903701,0.0010584658314770532,-0.0200924235220987,-0.06479504656435715
433,1644542239141053915,-0.558979034424,-9.45361042023,0.38245934248,acc,-2.2719849018734805e-06,-1.5545159982438696e-06,,,,,-0.020094136313358907,-0.06479739145497541
434,1644542239143068075,-0.961051702499,-9.75761604309,0.313812792301,acc,-3.898833474673784e-06,-1.2730884469821368e-06,,,,,-0.02009640829826078,-0.06479894597097366
435,1644542239144959927,,,,gyr,-3.900400760169689e-06,-1.2682785842014198e-06,0.376991122961,-0.246091425419,0.0558505356312,0.001233419083491343,-0.02009640829826078,-0.06479894597097366
436,1644542239145083904,-0.509945809841,-9.49283695221,0.813951909542,acc,-2.0721987388750656e-06,-3.3075477588173223e-06,,,,,-0.02010030869902095,-0.06480021424955786
437,1644542239147098064,-0.558979034424,-9.53206348419,0.313812792301,acc,-2.26768878863246e-06,-1.2730884469821368e-06,,,,,-0.020102380897759824,-0.06480352179731667
438,1644542239149111986,-0.774725317955,-9.66935634613,0.735498726368,acc,-3.1421943342019315e-06,-2.9830959144419052e-06,,,,,-0.02010464858654846,-0.06480479488576366
439,1644542239149972200,,,,gyr,-3.147174342880957e-06,-2.977841520995119e-06,0.352556496859,-0.333357870579,0.0593411922455,0.0016708806540406162,-0.02010464858654846,-0.06480479488576366
440,1644542239151128292,-0.313812792301,-9.71838951111,0.735498726368,acc,-1.275802733082906e-06,-2.990162632947263e-06,,,,,-0.02010779576089134,-0.06480777272728465
441,1644542239153142452,-0.38245934248,-9.61051654816,0.529559075832,acc,-1.5515765523180068e-06,-2.14833670894336e-06,,,,,-0.020109071563624424,-0.06481076288991759
442,1644542239154984474,,,,gyr,-1.555633240035177e-06,-2.145401042974082e-06,0.328121900558,-0.376991122961,0.0506145469844,0.0018895828038482233,-0.020109071563624424,-0.06481076288991759
443,1644542239155156136,-0.402072638273,-9.34573745728,1.01008486748,acc,-1.6303736898682743e-06,-4.095816615492539e-06,,,,,-0.020110627196864458,-0.06481290829096056
444,1644542239157172441,-0.686465501785,-9.88510322571,0.990471601486,acc,-2.790815786096625e-06,-4.026748283664348e-06,,,,,-0.020112257570554327,-0.06481700410757606
445,1644542239159186363,-0.402072638273,-9.53206348419,1.01989161968,acc,-1.6307591047288162e-06,-4.136559880755921e-06,,,,,-0.020115048386340425,-0.06482103085585972
446,1644542239159996271,,,,gyr,-1.638463347703043e-06,-4.133514335643352e-06,0.28274333477,-0.371755123138,0.0383972451091,0.0018631612108776592,-0.020115048386340425,-0.06482103085585972
447,1644542239161202431,-0.490332484245,-9.62032318115,0.833565235138,acc,-1.9929711807541446e-06,-3.388051055737343e-06,,,,,-0.020116686849688127,-0.06482516437019537
448,1644542239163216591,-0.529559075832,-9.71838951111,1.20621788502,acc,-2.14833670894336e-06,-4.8934335745283e-06,,,,,-0.02011867982086888,-0.0648285524212511
449,1644542239165008545,,,,gyr,-2.1575794160332013e-06,-4.8893653807855506e-06,0.188495561481,-0.376991122961,0.0383972451091,0.0018895828038482233,-0.02011867982086888,-0.0648285524212511
450,1644542239165232420,0.0686465501785,-9.25747776031,0.598205626011,acc,2.7894982557531875e-07,-2.430848376211716e-06,,,,,-0.020120837400284912,-0.06483344178663189
451,1644542239167246580,-1.01989161968,-9.58109664917,1.24544453621,acc,-4.1375376340398145e-06,-5.052569841974934e-06,,,,,-0.020120558450459337,-0.0648358726350081
452,1644542239169260502,0.0,-10.2675619125,1.40235090256,acc,0.0,-5.687769533876195e-06,,,,,-0.020124695988093376,-0.06484092520485008
453,1644542239170020580,,,,gyr,-1.079674671923169e-08,-5.687759286463388e-06,0.0750491544604,-0.378736436367,0.0436332300305,0.0018982402748466767,-0.020124695988093376,-0.06484092520485008
454,1644542239171274662,-0.451105892658,-9.25747776031,1.09834480286,acc,-1.83006465764982e-06,-4.455809685357695e-06,,,,,-0.020124706784840095,-0.06484661296413653
455,1644542239173290491,-0.509945809841,-9.64974308014,1.13757133484,acc,-2.0721987388750656e-06,-4.622596832731827e-06,,,,,-0.020126536849497743,-0.0648510687738219
456,1644542239175032616,,,,gyr,-2.0820202099061936e-06,-4.6181815617101825e-06,-0.0767944902182,-0.424115002155,0.0383972451091,0.0021256796589409375,-0.020126536849497743,-0.0648510687738219
457,1644542239175304651,-0.12748645246,-9.43399715424,1.08853816986,acc,-5.171922042549768e-07,-4.416025739379742e-06,,,,,-0.02012861886970765,-0.0648556869553836
458,1644542239177318811,-0.38245934248,-9.71838951111,1.28467106819,acc,-1.5515765523180068e-06,-5.211705625805612e-06,,,,,-0.020129136061911905,-0.06486010298112298
459,1644542239179334641,-0.529559075832,-9.25747776031,0.833565235138,acc,-2.1519006856359802e-06,-3.38725117343629e-06,,,,,-0.020130687638464224,-0.06486531468674878
460,1644542239180042744,,,,gyr,-2.1584720933023595e-06,-3.383067438763386e-06,-0.223402142525,-0.387463092804,0.0209439508617,0.0019412396902239188,-0.020130687638464224,-0.06486531468674878
461,1644542239181348801,-0.666852176189,-9.83607006073,1.12776470184,acc,-2.705312919611043e-06,-4.57516152321042e-06,,,,,-0.020132846110557528,-0.06486869775418753
462,1644542239183362722,-0.951245009899,-9.57129001617,1.47099745274,acc,-3.858133512531915e-06,-5.966185903953242e-06,,,,,-0.02013555142347714,-0.06487327291571074
463,1644542239185055017,,,,gyr,-3.869973616264833e-06,-5.958512620651761e-06,-0.349065840244,-0.396189749241,0.0226892791688,0.0019858111829974346,-0.02013555142347714,-0.06487327291571074
464,1644542239185378790,-0.38245934248,-9.38496398926,0.176519691944,acc,-1.554517540371571e-06,-7.174696153808393e-07,,,,,-0.020139421397093404,-0.0648792314283314
465,1644542239187392712,-1.42196416855,-9.8949098587,1.2650578022,acc,-5.767318622876734e-06,-5.1309249438285175e-06,,,,,-0.020140975914633777,-0.06487994889794678
466,1644542239189406872,-0.529559075832,-9.49283695221,0.872791826725,acc,-2.14833670894336e-06,-3.5407772356145967e-06,,,,,-0.020146743233256655,-0.0648850798228906
467,1644542239190066814,,,,gyr,-2.1551465698335988e-06,-3.5366364401468533e-06,-0.472984224558,-0.38397243619,0.0279252678156,0.0019243919037797335,-0.020146743233256655,-0.0648850798228906
468,1644542239191423178,-1.08853816986,-9.5222568512,0.951245009899,acc,-4.425440919694552e-06,-3.8672769665061e-06,,,,,-0.020148898379826488,-0.06488861645933075
469,1644542239193437099,-1.08853816986,-9.42419052124,0.402072638273,acc,-4.414977791318912e-06,-1.6307574852433549e-06,,,,,-0.020153323820746184,-0.06489248373629726
470,1644542239195079088,,,,gyr,-4.41771063013566e-06,-1.6233396631336412e-06,-0.502654790878,-0.335103213787,0.0279252678156,0.0016796291257810214,-0.020153323820746184,-0.06489248373629726
471,1644542239195451260,-1.34351098537,-9.91452312469,1.01008486748,acc,-5.450415197261101e-06,-4.0977572734325555e-06,,,,,-0.020157741531376318,-0.0648941070759604
472,1644542239197467089,-1.04931151867,-9.31631755829,0.294199496508,acc,-4.263947195395176e-06,-1.195499235167049e-06,,,,,-0.02016319194657358,-0.06489820483323383
473,1644542239199481249,-1.81423020363,-9.62032318115,0.666852176189,acc,-7.360042576569121e-06,-2.705312919611043e-06,,,,,-0.020167455893768976,-0.06489940033246899
474,1644542239200091362,,,,gyr,-7.364434756328045e-06,-2.6933335184696543e-06,-0.523598790169,-0.324631243944,0.0139626339078,0.0016271407436081685,-0.020167455893768976,-0.06489940033246899
475,1644542239201497316,-1.28467106819,-9.83607006073,0.637432217598,acc,-5.22157914886555e-06,-2.5908599163164e-06,,,,,-0.020174820328525304,-0.06490209366598747
476,1644542239203511238,-1.50041747093,-9.5222568512,0.558979034424,acc,-6.085515945882236e-06,-2.2671529046463682e-06,,,,,-0.020180041907674168,-0.06490468452590378
477,1644542239205103159,,,,gyr,-6.088722508842085e-06,-2.2585271375286097e-06,-0.523598790169,-0.28274333477,0.0191986225545,0.001417052196970282,-0.020180041907674168,-0.06490468452590378
478,1644542239205525398,-1.28467106819,-9.42419052124,0.12748645246,acc,-5.211705625805612e-06,-5.171922042549768e-07,,,,,-0.02018613063018301,-0.06490694305304132
479,1644542239207541227,-1.33370435238,-9.81645679474,0.225552946329,acc,-5.4195964035781325e-06,-9.165494095896984e-07,,,,,-0.020191342335808816,-0.06490746024524557
480,1644542239209553480,-1.39254426956,-9.56148338318,0.0294199492782,acc,-5.638637529018662e-06,-1.1912614466059272e-07,,,,,-0.020196761932212395,-0.06490837679465516
481,1644542239210115433,,,,gyr,-5.638791923188945e-06,-1.115789808991701e-07,-0.499164164066,-0.267035365105,0.0191986225545,0.0013384544175962987,-0.020196761932212395,-0.06490837679465516
482,1644542239211569548,-1.2650578022,-9.49283695221,-0.12748645246,acc,-5.1418656172757685e-06,5.18172533644357e-07,,,,,-0.020202400724135584,-0.06490848837363607
483,1644542239213583469,-1.95152330399,-9.70858287811,-1.16699135303,acc,-7.91514003359687e-06,4.7331743148256365e-06,,,,,-0.02020754258975286,-0.06490797020110242
484,1644542239215127468,,,,gyr,-7.909088572534242e-06,4.743279329512573e-06,-0.42760565877,-0.254818081856,0.00523598771542,0.001277157144895137,-0.02020754258975286,-0.06490797020110242
485,1644542239215597630,-2.47127580643,-9.64974308014,-2.20649623871,acc,-1.0025581747126757e-05,8.951412205127908e-06,,,,,-0.020215451678325395,-0.0649032269217729
486,1644542239217613459,-2.2359161377,-9.7478094101,-0.451105892658,acc,-9.08579404195318e-06,1.8330988191793968e-06,,,,,-0.02022547726007252,-0.06489427550956778
487,1644542239219629526,-1.75539028645,-9.94394302368,1.13757133484,acc,-7.13482972007962e-06,-4.623688436228715e-06,,,,,-0.020234563054114474,-0.0648924424107486
488,1644542239220139742,,,,gyr,-7.141980520708578e-06,-4.6126352697417785e-06,-0.0890117883682,-0.308923274279,0.0104719754308,0.0015484080956635004,-0.020234563054114474,-0.0648924424107486
489,1644542239221643686,-1.45138418674,-9.57129001617,0.774725317955,acc,-5.8880341579541465e-06,-3.1429370505936832e-06,,,,,-0.020241705034635182,-0.06489705504601834
490,1644542239223657608,-1.24544453621,-9.86548995972,0.921825051308,acc,-5.051375854827977e-06,-3.7388134687417678e-06,,,,,-0.020247593068793136,-0.06490019798306892
491,1644542239225151777,,,,gyr,-5.0586270208685284e-06,-3.728996761130629e-06,0.0837758034468,-0.387463092804,0.0226892791688,0.001941978582341896,-0.020247593068793136,-0.06490019798306892
492,1644542239225673914,-1.42196416855,-9.81645679474,0.0392265990376,acc,-5.780980944976828e-06,-1.5947534163526162e-07,,,,,-0.020252651695814004,-0.06490392697983005
493,1644542239227687836,-1.17679798603,-9.71838951111,0.0,acc,-4.772953559804138e-06,-0.0,,,,,-0.020258432676758982,-0.06490408645517169
494,1644542239229703903,-0.951245009899,-9.71838951111,0.558979034424,acc,-3.866360216354162e-06,-2.2719849018734805e-06,,,,,-0.020263205630318786,-0.06490408645517169
495,1644542239230163813,,,,gyr,-3.870923530889506e-06,-2.2642013459392642e-06,0.0558505356312,-0.401425719261,0.0139626339078,0.0020119601562620256,-0.020263205630318786,-0.06490408645517169
496,1644542239231718063,-0.686465501785,-9.48303031921,0.558979034424,acc,-2.784881053338417e-06,-2.26768878863246e-06,,,,,-0.020267076553849676,-0.06490635065651763
497,1644542239233731985,-0.912018418312,-9.62032318115,0.421685934067,acc,-3.6990389242374426e-06,-1.7103083146108573e-06,,,,,-0.020269861434903017,-0.06490861834530627
498,1644542239235176086,,,,gyr,-3.702323687678401e-06,-1.7031860748920345e-06,0.123918376863,-0.38397243619,0.0226892791688,0.00192457467465936,-0.020269861434903017,-0.06490861834530627
499,1644542239235748053,-0.912018418312,-9.45361042023,0.176519691944,acc,-3.706926386514089e-06,-7.174696153808393e-07,,,,,-0.020273563758590695,-0.06491032153138117
500,1644542239237761974,-0.451105892658,-9.80665016174,1.01008486748,acc,-1.8296303728828466e-06,-4.096780784310996e-06,,,,,-0.02027727068497721,-0.06491103900099655
501,1644542239239776134,-0.882598459721,-9.7478094101,0.509945809841,acc,-3.5805611815763235e-06,-2.068768817023964e-06,,,,,-0.020279100315350095,-0.06491513578178086
502,1644542239240187883,,,,gyr,-3.5842109839415314e-06,-2.062438948404255e-06,0.157079637051,-0.352556496859,0.0174532923847,0.0017669415932884457,-0.020279100315350095,-0.06491513578178086
503,1644542239241792202,-0.833565235138,-9.48303031921,0.725692093372,acc,-3.388051055737343e-06,-2.949597415350705e-06,,,,,-0.020282684526334038,-0.06491719822072926
504,1644542239243806124,-1.13757133484,-10.2675619125,0.961051702499,acc,-4.6138548983013875e-06,-3.897912130248575e-06,,,,,-0.020286072577389774,-0.06492014781814462
505,1644542239245200157,,,,gyr,-4.619374333829326e-06,-3.891369522633074e-06,0.165806278586,-0.28274333477,0.0139626339078,0.001417187065540967,-0.020286072577389774,-0.06492014781814462
506,1644542239245820284,-0.637432217598,-9.58109664917,0.872791826725,acc,-2.5859608399259995e-06,-3.5407772356145967e-06,,,,,-0.020290691951723602,-0.06492403918766725
507,1644542239247836113,-1.12776470184,-9.62032318115,0.529559075832,acc,-4.582746926833892e-06,-2.1518985506343656e-06,,,,,-0.020293277912563527,-0.06492757996490287
508,1644542239249850273,-1.37293100357,-9.7478094101,0.764918684959,acc,-5.569762106676834e-06,-3.103153104631957e-06,,,,,-0.02029786065949036,-0.0649297318634535
509,1644542239250212431,,,,gyr,-5.5733146524567564e-06,-3.096768137990145e-06,0.137881010771,-0.228638127446,0.00872664619237,0.0011459969416062722,-0.02029786065949036,-0.0649297318634535
510,1644542239251864195,-2.06920313835,-10.2185287476,1.81423020363,acc,-8.39244339503293e-06,-7.358303303978671e-06,,,,,-0.020303433974142814,-0.06493282863159149
511,1644542239253880262,-0.961051702499,-9.94394302368,0.549172401428,acc,-3.906219774857056e-06,-2.2321255856326033e-06,,,,,-0.020311826417537846,-0.06494018693489546
512,1644542239255222321,,,,gyr,-3.9076047644968776e-06,-2.229700106292614e-06,0.106465086341,-0.123918376863,-0.00872664619237,0.0006208174370621752,-0.020311826417537846,-0.06494018693489546
513,1644542239255894423,-2.25552940369,-9.42419052124,0.912018418312,acc,-9.150332132457869e-06,-3.699916935164313e-06,,,,,-0.020315734022302342,-0.06494241663500176
514,1644542239257908344,-0.696272134781,-9.15941047668,0.0784531980753,acc,-2.8239946902070347e-06,-3.181965839608001e-07,,,,,-0.0203248843544348,-0.06494611655193692
515,1644542239259922504,-1.16699135303,-9.80665016174,0.666852176189,acc,-4.734297790657054e-06,-2.705312919611043e-06,,,,,-0.020327708349125007,-0.06494643474852088
516,1644542239260234594,,,,gyr,-4.734534435117712e-06,-2.7048987497352455e-06,0.0959931090474,-0.0174532923847,-0.0139626339078,8.748066618093742e-05,-0.020327708349125007,-0.06494643474852088
517,1644542239261938572,-0.804145276546,-9.53206348419,0.264779537916,acc,-3.2684727461274502e-06,-1.076204423071259e-06,,,,,-0.020332442883560124,-0.06494913964727062
518,1644542239263952732,-1.09834480286,-9.67916297913,0.833565235138,acc,-4.455809685357695e-06,-3.381641209967827e-06,,,,,-0.02033571135630625,-0.06495021585169368
519,1644542239265246630,,,,gyr,-4.455099632994022e-06,-3.3825766044801756e-06,0.137881010771,0.0418879017234,-0.00872664619237,-0.00020994367140214285,-0.02033571135630625,-0.06495021585169368
520,1644542239265966892,-1.01008486748,-9.71838951111,0.470719188452,acc,-4.097753204486472e-06,-1.9096326704752334e-06,,,,,-0.020340166455939244,-0.06495359842829816
521,1644542239267982721,-1.09834480286,-9.30651092529,0.509945809841,acc,-4.4631972092213545e-06,-2.0721987388750656e-06,,,,,-0.02034426420914373,-0.06495550806096864
522,1644542239269996881,-0.362846046686,-9.56148338318,0.196132987738,acc,-1.4720085394925937e-06,-7.956802491398666e-07,,,,,-0.020348727406352952,-0.06495758025970752
523,1644542239270258904,,,,gyr,-1.471709126760806e-06,-7.962339137586049e-07,0.167551606894,0.0750491544604,-0.0261799395084,-0.00037616692562384693,-0.020348727406352952,-0.06495758025970752
524,1644542239272010803,-1.01008486748,-9.43399715424,0.38245934248,acc,-4.096784852774258e-06,-1.551209894850831e-06,,,,,-0.020350199115479712,-0.06495837649362128
525,1644542239274026871,-0.725692093372,-9.78703689575,0.627625584602,acc,-2.949597415350705e-06,-2.551003130746611e-06,,,,,-0.020354295900332487,-0.06495992770351613
526,1644542239275270939,,,,gyr,-2.948927855196055e-06,-2.5517771044061364e-06,0.167551606894,0.0523598790169,-0.0261799395084,-0.0002624295462284684,-0.020354295900332487,-0.06495992770351613
527,1644542239276041031,-0.12748645246,-9.38496398926,0.362846046686,acc,-5.171922042549768e-07,-1.4720085394925937e-06,,,,,-0.02035724482818768,-0.06496247948062055
528,1644542239278056860,-0.843371868134,-9.71838951111,0.735498726368,acc,-3.4270977186671885e-06,-2.988748027362353e-06,,,,,-0.020357762020391936,-0.06496395148916004
529,1644542239280071020,-0.196132987738,-9.56148338318,0.402072638273,acc,-7.956802491398666e-07,-1.6311445651393633e-06,,,,,-0.020361189118110603,-0.0649669402371874
530,1644542239280282974,,,,gyr,-7.953948632887855e-07,-1.631283746841357e-06,0.176278248429,0.0349065847695,-0.0349065847695,-0.00017495302459520095,-0.020361189118110603,-0.0649669402371874
531,1644542239282084942,-0.402072638273,-9.78703689575,0.598205626011,acc,-1.6307591047288162e-06,-2.426251324406395e-06,,,,,-0.020361984512973892,-0.06496857152093424
532,1644542239284101009,0.38245934248,-9.39477062225,0.0784531980753,acc,1.5545159982438696e-06,-3.188750750096437e-07,,,,,-0.02036361527207862,-0.06497099777225865
533,1644542239285295248,,,,gyr,1.5546274847077459e-06,-3.183310950092805e-07,0.150098308921,0.069813169539,-0.0296705961227,-0.0003499227345379217,-0.02036361527207862,-0.06497099777225865
534,1644542239286115170,-0.294199496508,-9.75761604309,0.509945809841,acc,-1.19352161929079e-06,-2.0687708712493787e-06,,,,,-0.020362060644593914,-0.06497131610335366
535,1644542239288129091,-0.264779537916,-9.86548995972,0.558979034424,acc,-1.0739134482028975e-06,-2.2671506531665776e-06,,,,,-0.020363254166213204,-0.06497338487422491
536,1644542239290145159,-0.0686465501785,-9.38496398926,0.490332484245,acc,-2.7901597499623306e-07,-1.9929711807541446e-06,,,,,-0.020364328079661407,-0.06497565202487808
537,1644542239290307283,,,,gyr,-2.78057082806988e-07,-1.993105190480557e-06,0.0890117883682,0.0959931090474,-0.0226892791688,-0.0004811208223043854,-0.020364328079661407,-0.06497565202487808
538,1644542239292159319,-0.166713044047,-9.86548995972,0.872791826725,acc,-6.763282299017466e-07,-3.5407772356145967e-06,,,,,-0.020364606136744214,-0.06497764513006857
539,1644542239294173241,-0.0980664938688,-9.57129001617,0.470719188452,acc,-3.9774610983797795e-07,-1.9091813997485995e-06,,,,,-0.020365282464974117,-0.06498118590730419
540,1644542239295319319,,,,gyr,-3.9666048994626914e-07,-1.9094072485336523e-06,-0.00872664619237,0.11344639957,-0.0296705961227,-0.0005685974387152245,-0.020365282464974117,-0.06498118590730419
541,1644542239296187401,-0.0784531980753,-9.58109664917,0.627625584602,acc,-3.1827211174573706e-07,-2.5461768939642735e-06,,,,,-0.020365679125464064,-0.06498309531455272
542,1644542239298203468,-0.0784531980753,-9.7478094101,0.696272134781,acc,-3.188750750096437e-07,-2.8300162982816313e-06,,,,,-0.02036599739757581,-0.06498564149144669
543,1644542239300219536,0.245166242123,-9.53206348419,0.735498726368,acc,9.964855903791048e-07,-2.9894567711332496e-06,,,,,-0.020366316272650817,-0.06498847150774496
544,1644542239300331593,,,,gyr,9.985252120984477e-07,-2.9887761239529764e-06,-0.11344639957,0.136135682464,-0.0261799395084,-0.0006823493416865631,-0.020366316272650817,-0.06498847150774496
545,1644542239302233696,-0.0686465501785,-9.64974308014,1.09834480286,acc,-2.784881053338417e-07,-4.455809685357695e-06,,,,,-0.02036531774743872,-0.06499146028386892
546,1644542239304249525,0.0686465501785,-9.5222568512,1.09834480286,acc,2.7894982557531875e-07,-4.4631972092213545e-06,,,,,-0.020365596235544053,-0.06499591609355428
547,1644542239305343390,,,,gyr,2.8277570515547626e-07,-4.462956445470156e-06,-0.21991148591,0.171042263508,-0.0349065847695,-0.0008572291031226039,-0.020365596235544053,-0.06499591609355428
548,1644542239306261778,0.0,-9.57129001617,0.725692093372,acc,0.0,-2.93844494688301e-06,,,,,-0.020365313459838896,-0.06500037904999975
549,1644542239308277607,0.0784531980753,-9.24767112732,0.627625584602,acc,3.18799792007393e-07,-2.5503983360575187e-06,,,,,-0.020365313459838896,-0.06500331749494663
550,1644542239310291767,-0.696272134781,-10.2871751785,1.45138418674,acc,-2.824664999300144e-06,-5.8880341579541465e-06,,,,,-0.02036499466004689,-0.06500586789328269
551,1644542239310355663,,,,gyr,-2.8181731613211148e-06,-5.891144085516449e-06,-0.361283153296,0.21991148591,-0.0349065847695,-0.0011022564032165734,-0.02036499466004689,-0.06500586789328269
552,1644542239312307835,0.598205626011,-9.02211761475,0.686465501785,acc,2.4314248211407835e-06,-2.790159749962331e-06,,,,,-0.02036781283320821,-0.06501175903736821
553,1644542239314321756,-0.509945809841,-9.70858287811,1.01008486748,acc,-2.068277886400356e-06,-4.096780784310996e-06,,,,,-0.02036538140838707,-0.06501454919711817
554,1644542239315366030,,,,gyr,-2.063224950525671e-06,-4.099327873395941e-06,-0.593411922455,0.246091425419,-0.0279252678156,-0.0012330083569023187,-0.02036538140838707,-0.06501454919711817
555,1644542239316335917,-0.343232750893,-9.86548995972,0.951245009899,acc,-1.3924419093229352e-06,-3.859053118828385e-06,,,,,-0.020367444633337596,-0.06501864852499158
556,1644542239318349838,-0.0392265990376,-9.58109664917,0.774725317955,acc,-1.5909829198019726e-07,-3.142191213729983e-06,,,,,-0.02036883707524692,-0.0650225075781104
557,1644542239320365906,-0.0980664938688,-9.71838951111,0.470719188452,acc,-3.9859422403771615e-07,-1.913252348061991e-06,,,,,-0.020368996173538902,-0.06502564976932412
558,1644542239320377827,,,,gyr,-3.956315339891035e-07,-1.9138671824644415e-06,-0.757472872734,0.308923274279,-0.0191986225545,-0.0015482607392616695,-0.020368996173538902,-0.06502564976932412
559,1644542239322381973,0.402072638273,-9.39477062225,0.343232750893,acc,1.6342347518525672e-06,-1.3950784910224095e-06,,,,,-0.02036939180507289,-0.0650275636365066
560,1644542239324395895,-0.176519691944,-10.2381420135,0.637432217598,acc,-7.159430097955371e-07,-2.585349744166421e-06,,,,,-0.020367757570321037,-0.06502895871499761
561,1644542239325390100,,,,gyr,-7.114185540382548e-07,-2.586598409863153e-06,-0.820304751396,0.349065840244,-0.0261799395084,-0.0017496132862773147,-0.020367757570321037,-0.06502895871499761
562,1644542239326410055,-0.137293100357,-9.30651092529,0.529559075832,acc,-5.569762106676834e-07,-2.14833670894336e-06,,,,,-0.020368468988875076,-0.06503154531340748
563,1644542239328423977,-0.549172401428,-10.1204624176,0.12748645246,acc,-2.2273783601420422e-06,-5.170699850944901e-07,,,,,-0.020369025965085743,-0.06503369365011642
564,1644542239330402374,,,,gyr,-2.2264657211708684e-06,-5.209857206927599e-07,-0.806342124939,0.350811183453,-0.0314159244299,-0.001758361773730702,-0.020369025965085743,-0.06503369365011642
565,1644542239330438137,-0.38245934248,-8.78675842285,-2.06920313835,acc,-1.5515765523180068e-06,8.394427105972922e-06,,,,,-0.020371252430806914,-0.06503421463583711
566,1644542239332454443,-0.882598459721,-10.3656291962,1.2650578022,acc,-3.5881951110736376e-06,-5.143079699589007e-06,,,,,-0.020372804007359233,-0.06502582020873114
567,1644542239334468365,-0.57859236002,-9.30651092529,0.529559075832,acc,-2.3467022354017995e-06,-2.1478290293866114e-06,,,,,-0.020376392202470305,-0.06503096328843073
568,1644542239335414410,,,,gyr,-2.3442017822035147e-06,-2.1505578172719518e-06,-0.352556496859,0.23212878406,-0.0383972451091,-0.0011634378223449463,-0.020376392202470305,-0.06503096328843073
569,1644542239336484432,-0.990471601486,-9.94394302368,0.764918684959,acc,-4.025797723575623e-06,-3.1090319964836743e-06,,,,,-0.020378736404252508,-0.065033113846248
570,1644542239338498592,-0.961051702499,-9.39477062225,0.0294199492782,acc,-3.898833474673784e-06,-1.1935204190449925e-07,,,,,-0.020382762201976084,-0.0650362228782445
571,1644542239340426445,,,,gyr,-3.898745790883544e-06,-1.2218277788408443e-07,-0.188495561481,0.144862323999,-0.0349065847695,-0.0007260550380643279,-0.020382762201976084,-0.0650362228782445
572,1644542239340514421,-1.50041747093,-9.80665016174,0.764918684959,acc,-6.097046256771267e-06,-3.1082979872081558e-06,,,,,-0.020386660947766966,-0.06503634506102238
573,1644542239342528582,-1.13757133484,-9.75761604309,0.637432217598,acc,-4.61495005169087e-06,-2.5859634077075874e-06,,,,,-0.02039275799402374,-0.06503945335900958
574,1644542239344544649,-0.725692093372,-9.57129001617,0.0784531980753,acc,-2.9495944892622146e-06,-3.188750750096437e-07,,,,,-0.02039737294407543,-0.0650420393224173
575,1644542239345438719,,,,gyr,-2.949384638836314e-06,-3.2081025037367063e-07,-0.176278248429,0.130899697542,-0.0349065847695,-0.0006561051505976305,-0.02039737294407543,-0.0650420393224173
576,1644542239346556664,-0.490332484245,-9.5222568512,-0.166713044047,acc,-1.9849661006805646e-06,6.748884718174478e-07,,,,,-0.020400322328714266,-0.06504236013266768
577,1644542239348572731,-0.529559075832,-9.31631755829,0.362846046686,acc,-2.152406710888833e-06,-1.4747972446311073e-06,,,,,-0.020402307294814948,-0.06504168524419586
578,1644542239350450754,,,,gyr,-2.151567797225731e-06,-1.4760208588607434e-06,-0.162315621972,0.11344639957,-0.0296705961227,-0.0005685973252688249,-0.020402307294814948,-0.06504168524419586
579,1644542239350588799,-0.637432217598,-9.67916297913,0.294199496508,acc,-2.590862486529156e-06,-1.1957827326811512e-06,,,,,-0.020404458862612173,-0.06504316126505472
580,1644542239352602720,-0.696272134781,-9.62032318115,0.166713044047,acc,-2.8239946902070347e-06,-6.76167733360549e-07,,,,,-0.020407049725098703,-0.0650443570477874
581,1644542239354616880,-0.637432217598,-9.70858287811,0.402072638273,acc,-2.5859608399259995e-06,-1.6311445651393633e-06,,,,,-0.02040987371978891,-0.06504503321552076
582,1644542239355462790,,,,gyr,-2.585375657475892e-06,-1.6320719248077158e-06,-0.127409040928,0.0715584978461,-0.0226892791688,-0.00035865376731057566,-0.02040987371978891,-0.06504503321552076
583,1644542239356630802,-0.637432217598,-9.67916297913,0.696272134781,acc,-2.585349744166421e-06,-2.823997494681879e-06,,,,,-0.020412459095446388,-0.06504666528744556
584,1644542239358646870,-0.558979034424,-9.56148338318,0.509945809841,acc,-2.27198715575241e-06,-2.072690134581492e-06,,,,,-0.020415044445190555,-0.06504948928494024
585,1644542239360475063,,,,gyr,-2.271316151558687e-06,-2.073425419339699e-06,-0.0890117883682,0.0645771846175,-0.0191986225545,-0.00032367847887431063,-0.020415044445190555,-0.06504948928494024
586,1644542239360661030,-0.421685934067,-9.58109664917,0.0392265990376,acc,-1.7107125779647766e-06,-1.591360558726657e-07,,,,,-0.020417315761342113,-0.06505156271035958
587,1644542239362674952,-0.529559075832,-9.70858287811,0.0392265990376,acc,-2.1478290293866114e-06,-1.5909844997877958e-07,,,,,-0.020419026473920077,-0.06505172184641546
588,1644542239364689112,-0.196132987738,-9.67916297913,0.166713044047,acc,-7.956802491398666e-07,-6.763282299017466e-07,,,,,-0.020421174302949464,-0.06505188094486544
589,1644542239365487099,,,,gyr,-7.953666005398272e-07,-6.766970549507579e-07,-0.102974422276,0.0925024524331,-0.0174532923847,-0.0004636256216829848,-0.020421174302949464,-0.06505188094486544
590,1644542239366703033,-0.362846046686,-9.58109664917,-0.0294199492782,acc,-1.4716592234818807e-06,1.1932371898514792e-07,,,,,-0.020421969669550004,-0.06505255764192039
591,1644542239368719339,-0.529559075832,-9.7478094101,0.313812792301,acc,-2.152917066641743e-06,-1.275802733082906e-06,,,,,-0.020423441328773485,-0.0650524383182014
592,1644542239370499372,,,,gyr,-2.152302973058623e-06,-1.2768384477850412e-06,-0.0785398185253,0.0959931090474,-0.0104719754308,-0.00048114366866433875,-0.020423441328773485,-0.0650524383182014
593,1644542239370733261,-0.196132987738,-9.53206348419,0.451105892658,acc,-7.954922196775783e-07,-1.8296321898665583e-06,,,,,-0.020425593631746543,-0.06505371515664919
594,1644542239372749329,0.421685934067,-9.80665016174,0.421685934067,acc,1.713955205759944e-06,-1.713955205759944e-06,,,,,-0.02042638912396622,-0.06505554478883906
595,1644542239374765396,0.343232750893,-9.67916297913,0.0784531980753,acc,1.3950784910224095e-06,-3.188750750096437e-07,,,,,-0.02042467516876046,-0.06505725874404482
596,1644542239375511408,,,,gyr,1.3952289634322413e-06,-3.182160416691194e-07,-0.069813169539,0.0942477807403,-0.0139626339078,-0.0004723732699904903,-0.02042467516876046,-0.06505725874404482
597,1644542239376779556,0.294199496508,-9.5222568512,0.470719188452,acc,1.1935204341607803e-06,-1.9096326704752334e-06,,,,,-0.020423279939797027,-0.06505757696008649
598,1644542239378793478,0.509945809841,-9.7478094101,0.627625584602,acc,2.0682799403820163e-06,-2.5455751996620958e-06,,,,,-0.020422086419362866,-0.06505948659275697
599,1644542239380523443,,,,gyr,2.0697492706353214e-06,-2.5443806644497816e-06,-0.0767944902182,0.115191727877,-0.0104719754308,-0.0005773449718299996,-0.020422086419362866,-0.06505948659275697
600,1644542239380809546,0.598205626011,-9.61051654816,0.176519691944,acc,2.4314248211407835e-06,-7.174696153808393e-07,,,,,-0.02042001667009223,-0.06506203097342142
601,1644542239382823467,0.313812792301,-9.70858287811,0.362846046686,acc,1.2727863358423893e-06,-1.4716592234818807e-06,,,,,-0.02041758524527109,-0.0650627484430368
602,1644542239384837627,0.686465501785,-9.64974308014,-0.00980664975941,acc,2.784881053338417e-06,3.978401396820699e-08,,,,,-0.020416312458935246,-0.06506422010226029
603,1644542239385535717,,,,gyr,2.784854351434436e-06,4.1611180077021334e-08,-0.0837758034468,0.130899697542,-0.0104719754308,-0.0006561051505976305,-0.020416312458935246,-0.06506422010226029
604,1644542239386851788,0.951245009899,-9.81645679474,0.0686465501785,acc,3.859053118828385e-06,-2.7848838186418135e-07,,,,,-0.02041352760458381,-0.06506417849108022
605,1644542239388865709,0.735498726368,-9.49283695221,-0.00980664975941,acc,2.9830929519685087e-06,3.977457299508987e-08,,,,,-0.020409668551464984,-0.06506445697946209
606,1644542239390545845,,,,gyr,2.9830585119384623e-06,4.2278730972192565e-08,-0.0802851468325,0.167551606894,-0.0174532923847,-0.0008394549971446224,-0.020409668551464984,-0.06506445697946209
607,1644542239390881777,0.843371868134,-9.53206348419,0.313812792301,acc,3.427910411519888e-06,-1.2755015653733056e-06,,,,,-0.020406685492953044,-0.06506441470073111
608,1644542239392895699,1.13757133484,-9.58109664917,0.274586200714,acc,4.6138548983013875e-06,-1.1136891800710211e-06,,,,,-0.020403257582541523,-0.06506569020229648
609,1644542239394911766,0.725692093372,-9.83607006073,0.843371868134,acc,2.9495944892622146e-06,-3.4279070109306593e-06,,,,,-0.02039864372764322,-0.06506680389147655
610,1644542239395557880,,,,gyr,2.953281075871755e-06,-3.4247313783085763e-06,-0.0715584978461,0.214675500989,-0.0104719754308,-0.0010759611245994027,-0.02039864372764322,-0.06506680389147655
611,1644542239396925926,0.490332484245,-9.57129001617,0.843371868134,acc,1.98920068329659e-06,-3.4214251559295533e-06,,,,,-0.02039569044656735,-0.06507022862285486
612,1644542239398939848,0.57859236002,-9.66935634613,0.274586200714,acc,2.3467022354017995e-06,-1.1136891800710211e-06,,,,,-0.020393701245884053,-0.06507365004801079
613,1644542239400570154,,,,gyr,2.348210185064473e-06,-1.1105061450557311e-06,-0.0750491544604,0.270526021719,-0.00349065847695,-0.0013559505449855789,-0.020393701245884053,-0.06507365004801079
614,1644542239400954008,0.274586200714,-9.7478094101,0.774725317955,acc,1.1139524213353667e-06,-3.1429370505936832e-06,,,,,-0.02039135303569899,-0.06507476055415584
615,1644542239402970314,0.362846046686,-9.39477062225,0.637432217598,acc,1.4751469328449406e-06,-2.5914742334231943e-06,,,,,-0.020390239083277653,-0.06507790349120643
616,1644542239404984236,0.470719188452,-9.78703689575,1.01008486748,acc,1.9091813997485995e-06,-4.096784852774258e-06,,,,,-0.020388763936344808,-0.06508049496543986
617,1644542239405582190,,,,gyr,1.91620269150375e-06,-4.093505465018999e-06,-0.137881010771,0.342084527016,-0.0209439508617,-0.0017145399644471647,-0.020388763936344808,-0.06508049496543986
618,1644542239406998396,0.362846046686,-9.48303031921,0.696272134781,acc,1.4720085394925937e-06,-2.824664999300144e-06,,,,,-0.020386847733653304,-0.06508458847090487
619,1644542239409012318,0.274586200714,-9.53206348419,0.470719188452,acc,1.1136891800710211e-06,-1.9091813997485995e-06,,,,,-0.020385375725113813,-0.06508741313590417
620,1644542239410594225,,,,gyr,1.1176949276280724e-06,-1.9068390744128783e-06,-0.122173048556,0.418879032135,-0.0209439508617,-0.0020994363698267444,-0.020385375725113813,-0.06508741313590417
621,1644542239411026478,0.0294199492782,-9.86548995972,0.813951909542,acc,1.1935204190449925e-07,-3.302073076240453e-06,,,,,-0.020384258030186186,-0.06508931997497859
622,1644542239413042545,0.0,-9.80665016174,1.13757133484,acc,0.0,-4.623688436228715e-06,,,,,-0.02038413867814428,-0.06509262204805483
623,1644542239415058374,0.225552946329,-9.42419052124,0.598205626011,acc,9.165494095896984e-07,-2.430848376211716e-06,,,,,-0.02038413867814428,-0.06509724573649106
624,1644542239415606499,,,,gyr,9.226496349668109e-07,-2.428539540432886e-06,-0.0471238903701,0.500909507275,-0.0104719754308,-0.0025106956996672936,-0.02038413867814428,-0.06509724573649106
625,1644542239417070627,-0.470719188452,-9.80665016174,1.12776470184,acc,-1.9060183145727232e-06,-4.566502129018007e-06,,,,,-0.020383216028509312,-0.0650996742760315
626,1644542239419086695,-0.0784531980753,-9.62032318115,0.921825051308,acc,-3.1887539134352963e-07,-3.746785742296634e-06,,,,,-0.020385122046823884,-0.06510424077816052
627,1644542239420618534,,,,gyr,-3.0917276264284313e-07,-3.7475988468246727e-06,-0.069813169539,0.51661747694,-0.00523598771542,-0.002589304876034973,-0.020385122046823884,-0.06510424077816052
628,1644542239421100616,-0.343232750893,-9.35554409027,1.33370435238,acc,-1.3921100926031715e-06,-5.409341866900617e-06,,,,,-0.020385431219586525,-0.06510798837700733
629,1644542239423114777,-0.529559075832,-9.70858287811,2.00055646896,acc,-2.148338842177306e-06,-8.115946575900674e-06,,,,,-0.02038682332967913,-0.06511339771887423
630,1644542239425128698,-0.637432217598,-9.56148338318,1.42196416855,acc,-2.5853471766895256e-06,-5.767312895428312e-06,,,,,-0.020388971668521307,-0.06512151366545013
631,1644542239425630808,,,,gyr,-2.5680807574769494e-06,-5.7750220156175e-06,-0.0226892791688,0.596902608871,-0.0139626339078,-0.0029918394269762825,-0.020388971668521307,-0.06512151366545013
632,1644542239427144766,-0.686465501785,-9.20844459534,0.735498726368,acc,-2.790159749962331e-06,-2.9894567711332496e-06,,,,,-0.020391539749278785,-0.06512728868746574
633,1644542239429158926,-0.696272134781,-9.71838951111,0.598205626011,acc,-2.824664999300144e-06,-2.4268248142792297e-06,,,,,-0.020394329909028747,-0.06513027814423687
634,1644542239430642843,,,,gyr,-2.8160708551510754e-06,-2.4367921487565148e-06,0.0959931090474,0.705112993717,-0.00872664619237,-0.003534051003464384,-0.020394329909028747,-0.06513027814423687
635,1644542239431172848,-0.264779537916,-9.02211761475,0.882598459721,acc,-1.0739145146933057e-06,-3.5797150489817414e-06,,,,,-0.020397145979883898,-0.06513271493638563
636,1644542239433187008,-0.137293100357,-7.9826130867,-0.343232750893,acc,-5.569762106676834e-07,1.392440526671237e-06,,,,,-0.020398219894398592,-0.06513629465143461
637,1644542239435203075,0.294199496508,-12.4348316193,-0.0784531980753,acc,1.1957815464290641e-06,3.188750750096437e-07,,,,,-0.02039877687060926,-0.06513490221090794
638,1644542239435655117,,,,gyr,1.194525482412659e-06,3.2354859311932417e-07,0.315904587507,0.780162155628,-0.0349065847695,-0.003910386488438178,-0.02039877687060926,-0.06513490221090794
639,1644542239437216997,-0.0686465501785,-13.0624570847,-4.12859964371,acc,-2.784222950177553e-07,1.674511224558587e-05,,,,,-0.020397582345126845,-0.06513457866231481
640,1644542239439233065,-2.17707633972,-7.75706005096,0.725692093372,acc,-8.848792488314371e-06,-2.949597415350705e-06,,,,,-0.020397860767421862,-0.06511783355006923
641,1644542239440667152,,,,gyr,-8.837843756027361e-06,-2.9822426390118845e-06,-0.0104719754308,0.736528933048,0.0139626339078,-0.003691508790949233,-0.020397860767421862,-0.06511783355006923
642,1644542239441245079,-1.31409108639,-9.45361042023,-0.343232750893,acc,-5.319703977716163e-06,1.3894749375585204e-06,,,,,-0.02040669861117789,-0.06512081579270824
643,1644542239443261147,-1.83384346962,-7.62957334518,-1.60829055309,acc,-7.4537121288107234e-06,6.5369454922467715e-06,,,,,-0.020412018315155607,-0.06511942631777069
644,1644542239445275307,-1.83384346962,-8.88482475281,-2.25552940369,acc,-7.43961046848446e-06,9.150323046461408e-06,,,,,-0.02041947202728442,-0.06511288937227845
645,1644542239445679188,,,,gyr,-7.464396676476246e-06,9.13011489706437e-06,-0.567232012749,0.541052043438,0.136135682464,-0.0027117723195848194,-0.02041947202728442,-0.06511288937227845
646,1644542239447291374,-1.54945063591,-8.56120491028,-1.45138418674,acc,-6.297782625449104e-06,5.8991889785081705e-06,,,,,-0.020426936423960894,-0.06510375925738139
647,1644542239449305534,-1.04931151867,-9.43399715424,-1.5886772871,acc,-4.256889471933107e-06,6.445010368634001e-06,,,,,-0.020433234206586343,-0.06509786006840289
648,1644542239450691462,,,,gyr,-4.26889131115893e-06,6.4370671583856035e-06,-0.28274333477,0.371755123138,0.0209439508617,-0.0018633385380713958,-0.020433234206586343,-0.06509786006840289
649,1644542239451321602,-0.804145276546,-8.80637168884,-1.47099745274,acc,-3.2684727461274502e-06,5.978913542282757e-06,,,,,-0.020437503097897502,-0.0650914230012445
650,1644542239453335524,-0.274586200714,-9.16921710968,-1.17679798603,acc,-1.1136891800710211e-06,4.772953559804138e-06,,,,,-0.02044077157064363,-0.06508544408770221
651,1644542239455349684,-0.490332484245,-8.94366455078,-0.402072638273,acc,-1.98920068329659e-06,1.6311445651393633e-06,,,,,-0.0204418852598237,-0.06508067113414241
652,1644542239455703497,,,,gyr,-1.990626790378227e-06,1.6294038579308023e-06,0.0645771846175,0.174532920122,0.0174532923847,-0.0008747651043036682,-0.0204418852598237,-0.06508067113414241
653,1644542239457367659,0.225552946329,-9.96355628967,0.725692093372,acc,9.185019184549845e-07,-2.955180106570373e-06,,,,,-0.020443875886614078,-0.06507904173028448
654,1644542239459383726,0.264779537916,-10.5127286911,1.08853816986,acc,1.0762033554444165e-06,-4.42439185502433e-06,,,,,-0.020442957384695624,-0.06508199691039104
655,1644542239460715771,,,,gyr,1.077054842962355e-06,-4.4241846496644775e-06,0.267035365105,0.0383972451091,-0.00523598771542,-0.0001924575133319691,-0.020442957384695624,-0.06508199691039104
656,1644542239461397648,0.176519691944,-9.48303031921,0.951245009899,acc,7.159430097955371e-07,-3.8581373439974685e-06,,,,,-0.02044188032985266,-0.0650864210950407
657,1644542239463411808,0.313812792301,-9.99297618866,0.343232750893,acc,1.2730884469821368e-06,-1.392440526671237e-06,,,,,-0.020441164386842865,-0.0650902792323847
658,1644542239465427876,0.264779537916,-9.57129001617,0.294199496508,acc,1.076204423071259e-06,-1.1957827326811512e-06,,,,,-0.020439891298395883,-0.06509167167291137
659,1644542239465727806,,,,gyr,1.0766227687922672e-06,-1.195406089048661e-06,0.185004904866,0.069813169539,-0.0139626339078,-0.0003499060491904019,-0.020439891298395883,-0.06509167167291137
660,1644542239467441797,0.294199496508,-9.67916297913,0.264779537916,acc,1.19323720496368e-06,-1.0739134482028975e-06,,,,,-0.020438814675627092,-0.06509286707900042
661,1644542239469458103,0.666852176189,-9.38496398926,0.343232750893,acc,2.7110807775107344e-06,-1.395409277174512e-06,,,,,-0.020437621438422128,-0.06509394099244861
662,1644542239470737934,,,,gyr,2.7118612751178075e-06,-1.3938918385331485e-06,0.130899697542,0.111701071262,-0.0139626339078,-0.0005596366647597416,-0.020437621438422128,-0.06509394099244861
663,1644542239471469879,0.627625584602,-9.80665016174,0.00980664975941,acc,2.5401530494058733e-06,-3.968989139698195e-08,,,,,-0.020434909577147012,-0.06509533488428715
664,1644542239473486185,0.245166242123,-9.62032318115,0.274586200714,acc,9.96720877650443e-07,-1.1163274217379832e-06,,,,,-0.020432369424097607,-0.06509537457417855
665,1644542239475500345,0.0294199492782,-9.35554409027,0.343232750893,acc,1.1935204190449925e-07,-1.392440526671237e-06,,,,,-0.020431372703219958,-0.06509649090160029
666,1644542239475750208,,,,gyr,1.2031432536082803e-07,-1.3923577102656538e-06,0.141371667385,0.137881010771,-0.0139626339078,-0.0006910974053812033,-0.020431372703219958,-0.06509649090160029
667,1644542239477516174,0.833565235138,-9.62032318115,0.0294199492782,acc,3.3872478127855063e-06,-1.1954992200262e-07,,,,,-0.020431252388894598,-0.06509788325931055
668,1644542239479530334,1.20621788502,-9.21825122833,0.0392265990376,acc,4.8934335745283e-06,-1.591360558726657e-07,,,,,-0.020427865141081813,-0.06509800280923256
669,1644542239480762243,,,,gyr,4.893561417401368e-06,-1.5515504091145753e-07,0.153588980436,0.162315621972,-0.0209439508617,-0.000813531578370433,-0.020427865141081813,-0.06509800280923256
670,1644542239481544495,1.47099745274,-9.56148338318,-0.0686465501785,acc,5.967607975559983e-06,2.7848838186418135e-07,,,,,-0.020422971579664412,-0.06509815796427347
671,1644542239483560324,1.33370435238,-9.24767112732,0.166713044047,acc,5.4195964035781325e-06,-6.774495504452347e-07,,,,,-0.02041700397168885,-0.0650978794758916
672,1644542239485574484,1.17679798603,-9.57129001617,0.402072638273,acc,4.7740817366350075e-06,-1.6311445651393633e-06,,,,,-0.02041158437528527,-0.06509855692544204
673,1644542239485774517,,,,gyr,4.775805654854183e-06,-1.6260902089116764e-06,0.218166157603,0.211184844375,-0.0279252678156,-0.0010585163046548589,-0.02041158437528527,-0.06509855692544204
674,1644542239487588644,1.73577702045,-9.83607006073,0.274586200714,acc,7.041770525251241e-06,-1.1139524213353667e-06,,,,,-0.020406808569630418,-0.06510018301565096
675,1644542239489604473,2.05939650536,-9.98316955566,0.558979034424,acc,8.368494767279879e-06,-2.2714485104842318e-06,,,,,-0.020399766799105167,-0.06510129696807229
676,1644542239490786552,,,,gyr,8.371665743817625e-06,-2.2597335417173113e-06,0.267035365105,0.279252678156,-0.0314159244299,-0.0013996241967616076,-0.020399766799105167,-0.06510129696807229
677,1644542239491618633,2.2359161377,-11.0324811935,3.71672034264,acc,9.070755154546069e-06,-1.5078141634009463e-05,,,,,-0.02039139513336135,-0.06510355670161401
678,1644542239493632793,2.57914876938,-9.31631755829,0.313812792301,acc,1.0463195197589178e-05,-1.2730884469821368e-06,,,,,-0.020382324378206803,-0.06511863484324802
679,1644542239495646715,2.58895564079,-9.5222568512,-0.362846046686,acc,1.0500498121661995e-05,1.4716606849687898e-06,,,,,-0.020371861183009213,-0.065119907931695
680,1644542239495798826,,,,gyr,1.0497763781200019e-05,1.4910404316566966e-06,0.141371667385,0.368264466524,0.0,-0.0018458424106821156,-0.020371861183009213,-0.065119907931695
681,1644542239497662783,2.49088907242,-9.94394302368,0.843371868134,acc,1.0124293811437612e-05,-3.427910411519888e-06,,,,,-0.020361363419228014,-0.06511841689126335
682,1644542239499678850,1.81423020363,-9.53206348419,0.12748645246,acc,7.373986102032657e-06,-5.181720196017698e-07,,,,,-0.020351239125416577,-0.06512184480167488
683,1644542239500810862,,,,gyr,7.375110447317489e-06,-5.01915495613939e-07,-0.0069813169539,0.439822971821,0.0104719754308,-0.002204408568393838,-0.020351239125416577,-0.06512184480167488
684,1644542239501692772,2.00055646896,-9.21825122833,0.57859236002,acc,8.114020616507418e-06,-2.3467022354017995e-06,,,,,-0.020343864014969258,-0.06512234671717049
685,1644542239503705025,1.75539028645,-10.0322027206,0.0,acc,7.107859881811331e-06,-0.0,,,,,-0.02033574999435275,-0.06512469341940588
686,1644542239505723238,0.774725317955,-9.78703689575,0.696272134781,acc,3.155598547428926e-06,-2.836044319462635e-06,,,,,-0.02032864213447094,-0.06512469341940588
687,1644542239505822897,,,,gyr,3.1627086998518328e-06,-2.828113020084833e-06,-0.00523598771542,0.500909507275,0.0139626339078,-0.002510575982295055,-0.02032864213447094,-0.06512469341940588
688,1644542239507737160,1.01008486748,-9.38496398926,0.362846046686,acc,4.096784852774258e-06,-1.4716606849687898e-06,,,,,-0.020325479425771086,-0.06512752153242597
689,1644542239509749174,0.313812792301,-10.0125894547,-0.264779537916,acc,1.2703770512955137e-06,1.0718806144093728e-06,,,,,-0.02032138264091831,-0.06512899319311094
690,1644542239510835171,,,,gyr,1.2674467348976517e-06,1.0753439813390786e-06,0.0209439508617,0.544542729855,0.0279252678156,-0.00272939736674124,-0.02032138264091831,-0.06512899319311094
691,1644542239511763096,-0.843371868134,-9.86548995972,0.362846046686,acc,-3.4206166292217147e-06,-1.4716606849687898e-06,,,,,-0.020320115194183412,-0.06512791784912961
692,1644542239513779402,0.598205626011,-9.30651092529,-0.558979034424,acc,2.4319989220782716e-06,2.272523610733349e-06,,,,,-0.020323535810812633,-0.06512938950981458
693,1644542239515793562,0.166713044047,-8.62004470825,0.0,acc,6.763282299017466e-07,-0.0,,,,,-0.020321103811890555,-0.06512711698620384
694,1644542239515847445,,,,gyr,6.763257268354312e-07,1.8400496068069658e-09,0.0506145469844,0.542797386646,0.0436332300305,-0.0027206492283536926,-0.020321103811890555,-0.06512711698620384
695,1644542239517809391,0.313812792301,-10.689248085,-0.451105892658,acc,1.2751991680287593e-06,1.8330988191793968e-06,,,,,-0.02032042748616372,-0.06512711514615423
696,1644542239519825459,0.666852176189,-9.81645679474,2.20649623871,acc,2.710440796134984e-06,-8.968370555670134e-06,,,,,-0.02031915228699569,-0.06512528204733505
