,field.header.stamp,field.linear_acceleration.x,field.linear_acceleration.y,field.linear_acceleration.z,type,field.angular_velocity.x,field.angular_velocity.y,field.angular_velocity.z
0,1644542463470025778,0.627625584602,-9.57129001617,0.0980664938688,acc,,,
1,1644542463472039461,0.666852176189,-9.64974308014,0.225552946329,acc,,,
2,1644542463473197460,,,,gyr,-0.00174532923847,-0.00523598771542,-0.00174532923847
3,1644542463474053144,0.637432217598,-9.62032318115,0.0980664938688,acc,,,
4,1644542463476066828,0.598205626011,-9.64974308014,0.176519691944,acc,,,
5,1644542463478080511,0.627625584602,-9.64974308014,0.137293100357,acc,,,
6,1644542463478208780,,,,gyr,-0.00349065847695,0.0,0.00349065847695
7,1644542463480096340,0.627625584602,-9.61051654816,0.12748645246,acc,,,
8,1644542463482110023,0.627625584602,-9.62032318115,0.0686465501785,acc,,,
9,1644542463483219862,,,,gyr,0.0,0.00174532923847,0.0
10,1644542463484123707,0.57859236002,-9.58109664917,0.12748645246,acc,,,
11,1644542463486137390,0.627625584602,-9.64974308014,0.0980664938688,acc,,,
12,1644542463488151073,0.57859236002,-9.61051654816,0.137293100357,acc,,,
13,1644542463488230944,,,,gyr,-0.00523598771542,-0.00174532923847,0.00523598771542
14,1644542463490164757,0.57859236002,-9.66935634613,0.12748645246,acc,,,
15,1644542463492178440,0.627625584602,-9.66935634613,0.12748645246,acc,,,
16,1644542463493242264,,,,gyr,-0.00349065847695,0.0,0.00174532923847
17,1644542463494192123,0.627625584602,-9.64974308014,0.12748645246,acc,,,
18,1644542463496205807,0.598205626011,-9.58109664917,0.0980664938688,acc,,,
19,1644542463498219490,0.627625584602,-9.62032318115,0.166713044047,acc,,,
20,1644542463498253345,,,,gyr,-0.00523598771542,-0.00174532923847,0.00349065847695
21,1644542463503264666,,,,gyr,-0.00174532923847,-0.00174532923847,0.0
22,1644542463508275986,,,,gyr,-0.00523598771542,0.0,0.00174532923847
23,1644542463513285160,,,,gyr,0.0,0.00174532923847,0.0
24,1644542463518296480,,,,gyr,-0.00174532923847,0.0,0.00174532923847
25,1644542463523307562,,,,gyr,-0.00174532923847,-0.00349065847695,0.0
26,1644542463528318882,,,,gyr,-0.00174532923847,0.0,0.0
27,1644542463533329964,,,,gyr,-0.00174532923847,0.00174532923847,0.00174532923847
28,1644542463538341284,,,,gyr,-0.00349065847695,-0.00174532923847,0.0
29,1644542463543352604,,,,gyr,0.0,0.0,0.0
30,1644542463570718288,0.57859236002,-9.58109664917,0.137293100357,acc,,,
31,1644542463573419571,,,,gyr,-0.00174532923847,0.0,0.0
32,1644542464209096909,0.598205626011,-9.64974308014,0.137293100357,acc,,,
33,1644542464209836960,,,,gyr,0.0,0.0,0.00174532923847
34,1644542464211110830,0.558979034424,-9.61051654816,0.137293100357,acc,,,
35,1644542464213124752,0.558979034424,-9.61051654816,0.176519691944,acc,,,
36,1644542464214848518,,,,gyr,0.0,0.0,0.0
37,1644542464215138674,0.57859236002,-9.62032318115,0.176519691944,acc,,,
38,1644542464217152357,0.598205626011,-9.61051654816,0.176519691944,acc,,,
39,1644542464219166279,0.598205626011,-9.61051654816,0.176519691944,acc,,,
40,1644542464219860077,,,,gyr,-0.00349065847695,0.0,0.0
41,1644542464221180201,0.57859236002,-9.57129001617,0.176519691944,acc,,,
42,1644542464223193884,0.57859236002,-9.61051654816,0.12748645246,acc,,,
43,1644542464224871874,,,,gyr,0.0,0.0,0.00174532923847
44,1644542464225207806,0.57859236002,-9.61051654816,0.137293100357,acc,,,
45,1644542464227221727,0.598205626011,-9.64974308014,0.166713044047,acc,,,
46,1644542464229235649,0.558979034424,-9.62032318115,0.176519691944,acc,,,
47,1644542464229883432,,,,gyr,-0.00174532923847,-0.00349065847695,0.00174532923847
48,1644542464231249332,0.598205626011,-9.58109664917,0.137293100357,acc,,,
49,1644542464233263254,0.598205626011,-9.62032318115,0.166713044047,acc,,,
50,1644542464234894991,,,,gyr,0.0,0.0,-0.00174532923847
51,1644542464235277176,0.627625584602,-9.62032318115,0.137293100357,acc,,,
52,1644542464237290859,0.598205626011,-9.66935634613,0.0980664938688,acc,,,
53,1644542464239304781,0.627625584602,-9.62032318115,0.12748645246,acc,,,
54,1644542464239906788,,,,gyr,0.0,0.00174532923847,0.0
55,1644542464241318703,0.598205626011,-9.62032318115,0.137293100357,acc,,,
56,1644542464243332624,0.57859236002,-9.61051654816,0.137293100357,acc,,,
57,1644542464244918108,,,,gyr,-0.00349065847695,0.0,0.0
58,1644542464245346308,0.598205626011,-9.57129001617,0.0980664938688,acc,,,
59,1644542464247359991,0.558979034424,-9.58109664917,0.166713044047,acc,,,
60,1644542464249373913,0.57859236002,-9.66935634613,0.12748645246,acc,,,
61,1644542464249929905,,,,gyr,-0.00349065847695,-0.00174532923847,0.0
62,1644542464251387596,0.627625584602,-9.66935634613,0.0784531980753,acc,,,
63,1644542464253401518,0.57859236002,-9.61051654816,0.137293100357,acc,,,
64,1644542464254941463,,,,gyr,-0.00174532923847,-0.00174532923847,0.0
65,1644542464255415440,0.57859236002,-9.66935634613,0.166713044047,acc,,,
66,1644542464257429361,0.627625584602,-9.62032318115,0.166713044047,acc,,,
67,1644542464259443045,0.598205626011,-9.62032318115,0.137293100357,acc,,,
68,1644542464259953022,,,,gyr,-0.00349065847695,0.0,0.0
69,1644542464261456966,0.57859236002,-9.62032318115,0.137293100357,acc,,,
70,1644542464263470888,0.57859236002,-9.64974308014,0.137293100357,acc,,,
71,1644542464264964819,,,,gyr,-0.00174532923847,0.0,0.0
72,1644542464265484571,0.627625584602,-9.62032318115,0.12748645246,acc,,,
73,1644542464267498493,0.598205626011,-9.66935634613,0.12748645246,acc,,,
74,1644542464269512415,0.598205626011,-9.62032318115,0.0980664938688,acc,,,
75,1644542464269976377,,,,gyr,-0.00349065847695,-0.00174532923847,0.00174532923847
76,1644542464271526337,0.57859236002,-9.61051654816,0.137293100357,acc,,,
77,1644542464273540020,0.57859236002,-9.64974308014,0.0784531980753,acc,,,
78,1644542464274987936,,,,gyr,0.0,0.0,0.00349065847695
79,1644542464275553942,0.57859236002,-9.62032318115,0.0784531980753,acc,,,
80,1644542464277567863,0.57859236002,-9.61051654816,0.12748645246,acc,,,
81,1644542464279581547,0.57859236002,-9.67916297913,0.0686465501785,acc,,,
82,1644542464279997587,,,,gyr,-0.00174532923847,0.0,0.00349065847695
83,1644542464281595469,0.558979034424,-9.61051654816,0.0392265990376,acc,,,
84,1644542464283609390,0.57859236002,-9.64974308014,0.12748645246,acc,,,
85,1644542464285009384,,,,gyr,-0.00174532923847,0.0,0.00523598771542
86,1644542464285623312,0.598205626011,-9.58109664917,0.166713044047,acc,,,
87,1644542464287636995,0.558979034424,-9.66935634613,0.12748645246,acc,,,
88,1644542464289650917,0.57859236002,-9.62032318115,0.0686465501785,acc,,,
89,1644542464290020704,,,,gyr,-0.00174532923847,0.0,0.0
90,1644542464291664839,0.549172401428,-9.62032318115,0.12748645246,acc,,,
91,1644542464293678522,0.627625584602,-9.62032318115,0.0980664938688,acc,,,
92,1644542464295032501,,,,gyr,0.0,-0.00174532923847,0.00174532923847
93,1644542464295692444,0.558979034424,-9.62032318115,0.137293100357,acc,,,
94,1644542464297706366,0.57859236002,-9.61051654816,0.12748645246,acc,,,
95,1644542464299720287,0.558979034424,-9.66935634613,0.166713044047,acc,,,
96,1644542464300044298,,,,gyr,-0.00523598771542,0.0,0.0
97,1644542464301733971,0.833565235138,-9.7478094101,0.0392265990376,acc,,,
98,1644542464303747892,0.882598459721,-9.78703689575,0.686465501785,acc,,,
99,1644542464305055618,,,,gyr,-0.00523598771542,0.0,0.00523598771542
100,1644542464305761814,0.804145276546,-9.71838951111,-0.00980664975941,acc,,,
101,1644542464307775497,1.01989161968,-10.0616226196,0.470719188452,acc,,,
102,1644542464309789419,0.813951909542,-9.83607006073,0.313812792301,acc,,,
103,1644542464310067415,,,,gyr,-0.0593411922455,-0.0436332300305,0.0436332300305
104,1644542464311801195,0.490332484245,-9.42419052124,-0.166713044047,acc,,,
105,1644542464313814878,0.0,-9.31631755829,-0.509945809841,acc,,,
106,1644542464315078974,,,,gyr,-0.148352980614,-0.158824965358,0.0855211317539
107,1644542464315826893,-0.0392265990376,-9.09076404572,-0.696272134781,acc,,,
108,1644542464317842722,0.0686465501785,-9.15941047668,-0.912018418312,acc,,,
109,1644542464319854498,-0.0294199492782,-9.09076404572,-0.627625584602,acc,,,
110,1644542464320090532,,,,gyr,-0.0593411922455,-0.185004904866,0.0296705961227
111,1644542464321870327,0.0686465501785,-9.16921710968,-0.598205626011,acc,,,
112,1644542464323884249,0.402072638273,-9.64974308014,-0.225552946329,acc,,,
113,1644542464325102091,,,,gyr,0.144862323999,-0.174532920122,-0.0872664600611
114,1644542464325900078,3.1773545742,-11.7875928879,4.78564500809,acc,,,
115,1644542464327911854,0.598205626011,-9.34573745728,0.627625584602,acc,,,
116,1644542464329923868,-0.833565235138,-8.65927219391,-1.86326348782,acc,,,
117,1644542464330113888,,,,gyr,0.11344639957,-0.123918376863,-0.0680678412318
118,1644542464331939697,0.882598459721,-10.1400756836,0.813951909542,acc,,,
119,1644542464333955526,1.55925726891,-10.0322027206,1.20621788502,acc,,,
120,1644542464335125446,,,,gyr,-0.00872664619237,-0.0314159244299,0.00349065847695
121,1644542464335967302,0.12748645246,-9.20844459534,-0.490332484245,acc,,,
122,1644542464337981224,0.245166242123,-9.57129001617,-0.0686465501785,acc,,,
123,1644542464339997053,0.598205626011,-9.64974308014,0.176519691944,acc,,,
124,1644542464340137005,,,,gyr,-0.0209439508617,-0.0139626339078,0.0139626339078
125,1644542464342008829,0.57859236002,-9.34573745728,0.0784531980753,acc,,,
126,1644542464344022751,0.509945809841,-9.83607006073,0.137293100357,acc,,,
127,1644542464345148563,,,,gyr,0.00523598771542,-0.00174532923847,-0.0069813169539
128,1644542464346036673,0.735498726368,-9.81645679474,0.343232750893,acc,,,
129,1644542464348050356,0.549172401428,-9.39477062225,0.0294199492782,acc,,,
130,1644542464350064278,0.735498726368,-9.80665016174,0.274586200714,acc,,,
131,1644542464350160122,,,,gyr,0.0069813169539,0.0,-0.00523598771542
132,1644542464352078199,0.686465501785,-9.81645679474,0.294199496508,acc,,,
133,1644542464354092121,0.57859236002,-9.48303031921,0.137293100357,acc,,,
134,1644542464355171919,,,,gyr,-0.00523598771542,0.00174532923847,0.00349065847695
135,1644542464356105804,0.686465501785,-9.56148338318,0.12748645246,acc,,,
136,1644542464358117580,0.294199496508,-9.62032318115,-0.0392265990376,acc,,,
137,1644542464360133648,0.421685934067,-9.42419052124,0.0392265990376,acc,,,
138,1644542464360183477,,,,gyr,-0.0139626339078,-0.00174532923847,0.0104719754308
139,1644542464362147331,0.813951909542,-9.62032318115,0.313812792301,acc,,,
140,1644542464364161015,0.509945809841,-9.70858287811,0.402072638273,acc,,,
141,1644542464365195036,,,,gyr,0.00349065847695,0.00523598771542,-0.00523598771542
142,1644542464366174936,0.264779537916,-9.43399715424,0.176519691944,acc,,,
143,1644542464368188858,0.804145276546,-9.66935634613,0.912018418312,acc,,,
144,1644542464370202541,0.804145276546,-9.81645679474,1.01989161968,acc,,,
145,1644542464370206833,,,,gyr,0.00872664619237,0.0593411922455,-0.0139626339078
146,1644542464372216463,0.38245934248,-9.58109664917,0.990471601486,acc,,,
147,1644542464374230385,0.451105892658,-9.56148338318,0.598205626011,acc,,,
148,1644542464375218153,,,,gyr,0.00349065847695,0.205948844552,-0.00349065847695
149,1644542464376244068,0.764918684959,-9.71838951111,0.813951909542,acc,,,
150,1644542464378257990,0.549172401428,-9.64974308014,0.402072638273,acc,,,
151,1644542464380228043,,,,gyr,-0.00872664619237,0.406661719084,0.0
152,1644542464380271912,0.313812792301,-9.49283695221,0.0686465501785,acc,,,
153,1644542464382285833,0.735498726368,-9.71838951111,0.294199496508,acc,,,
154,1644542464384299517,0.598205626011,-9.62032318115,0.166713044047,acc,,,
155,1644542464385239601,,,,gyr,0.0,0.509636163712,0.00349065847695
156,1644542464386313438,0.402072638273,-9.58109664917,-0.0980664938688,acc,,,
157,1644542464388327360,0.686465501785,-9.71838951111,0.274586200714,acc,,,
158,1644542464390251160,,,,gyr,0.0,0.511381447315,-0.00523598771542
159,1644542464390341043,0.735498726368,-9.61051654816,-0.12748645246,acc,,,
160,1644542464392354965,0.509945809841,-9.58109664917,-0.264779537916,acc,,,
161,1644542464394366980,0.735498726368,-9.67916297913,-0.362846046686,acc,,,
162,1644542464395262718,,,,gyr,0.0,0.455530941486,-0.00349065847695
163,1644542464396380663,0.637432217598,-9.62032318115,-0.0980664938688,acc,,,
164,1644542464398394585,0.490332484245,-9.56148338318,-0.137293100357,acc,,,
165,1644542464400274515,,,,gyr,0.0,0.333357870579,0.0
166,1644542464400408506,0.627625584602,-9.64974308014,-0.0784531980753,acc,,,
167,1644542464402422190,0.627625584602,-9.61051654816,-0.137293100357,acc,,,
168,1644542464404436111,0.529559075832,-9.56148338318,-0.166713044047,acc,,,
169,1644542464405286074,,,,gyr,0.00872664619237,0.237364768982,-0.00523598771542
170,1644542464406450033,0.627625584602,-9.62032318115,-0.0784531980753,acc,,,
171,1644542464408463955,0.598205626011,-9.58109664917,0.0,acc,,,
172,1644542464410297632,,,,gyr,0.0069813169539,0.150098308921,-0.0104719754308
173,1644542464410477638,0.558979034424,-9.61051654816,-0.0686465501785,acc,,,
174,1644542464412493467,0.686465501785,-9.61051654816,0.00980664975941,acc,,,
175,1644542464414507389,0.558979034424,-9.61051654816,0.00980664975941,acc,,,
176,1644542464415309429,,,,gyr,0.0104719754308,0.0925024524331,-0.00523598771542
177,1644542464416521311,0.57859236002,-9.61051654816,0.00980664975941,acc,,,
178,1644542464418534994,0.598205626011,-9.66935634613,0.0980664938688,acc,,,
179,1644542464420320749,,,,gyr,0.0069813169539,0.0558505356312,-0.00872664619237
180,1644542464420548916,0.57859236002,-9.62032318115,0.225552946329,acc,,,
181,1644542464422562838,0.598205626011,-9.61051654816,0.225552946329,acc,,,
182,1644542464424576521,0.735498726368,-9.7478094101,0.402072638273,acc,,,
183,1644542464425332546,,,,gyr,0.0104719754308,0.0383972451091,-0.00523598771542
184,1644542464426590443,0.509945809841,-9.56148338318,0.245166242123,acc,,,
185,1644542464428604364,0.402072638273,-9.49283695221,0.0,acc,,,
186,1644542464430344105,,,,gyr,-0.00523598771542,0.0558505356312,0.00349065847695
187,1644542464430618048,0.686465501785,-9.70858287811,0.313812792301,acc,,,
188,1644542464432631731,0.666852176189,-9.62032318115,0.294199496508,acc,,,
189,1644542464434645653,0.490332484245,-9.58109664917,0.0294199492782,acc,,,
190,1644542464435355663,,,,gyr,0.00523598771542,0.0925024524331,0.0
191,1644542464436661720,0.598205626011,-9.66935634613,0.264779537916,acc,,,
192,1644542464438675642,0.558979034424,-9.53206348419,0.245166242123,acc,,,
193,1644542464440367460,,,,gyr,-0.00349065847695,0.111701071262,0.00174532923847
194,1644542464440689325,0.57859236002,-9.62032318115,0.274586200714,acc,,,
195,1644542464442703009,0.549172401428,-9.66935634613,0.402072638273,acc,,,
196,1644542464444716930,0.490332484245,-9.58109664917,0.57859236002,acc,,,
197,1644542464445379019,,,,gyr,0.00174532923847,0.148352980614,0.0
198,1644542464446730614,0.598205626011,-9.70858287811,0.735498726368,acc,,,
199,1644542464448744535,0.509945809841,-9.61051654816,0.470719188452,acc,,,
200,1644542464450390577,,,,gyr,0.00174532923847,0.25830873847,-0.00174532923847
201,1644542464450758457,0.529559075832,-9.64974308014,0.686465501785,acc,,,
202,1644542464452772379,0.490332484245,-9.58109664917,0.764918684959,acc,,,
203,1644542464454786062,0.509945809841,-9.62032318115,0.882598459721,acc,,,
204,1644542464455402136,,,,gyr,0.00174532923847,0.413643032312,0.00349065847695
205,1644542464456799984,0.509945809841,-9.64974308014,0.725692093372,acc,,,
206,1644542464458813906,0.470719188452,-9.53206348419,0.666852176189,acc,,,
207,1644542464460413933,,,,gyr,0.00174532923847,0.610865235329,0.0
208,1644542464460827589,0.549172401428,-9.71838951111,0.509945809841,acc,,,
209,1644542464462841511,0.166713044047,-9.53206348419,0.00980664975941,acc,,,
210,1644542464464855433,0.402072638273,-9.58109664917,-0.451105892658,acc,,,
211,1644542464465425253,,,,gyr,0.00349065847695,0.820304751396,0.0
212,1644542464466869354,0.421685934067,-9.67916297913,0.00980664975941,acc,,,
213,1644542464468883038,0.294199496508,-9.61051654816,-0.12748645246,acc,,,
214,1644542464470437050,,,,gyr,0.0,0.966912388802,0.00349065847695
215,1644542464470896959,0.451105892658,-9.61051654816,-0.225552946329,acc,,,
216,1644542464472910881,0.313812792301,-9.66935634613,0.137293100357,acc,,,
217,1644542464474924564,0.274586200714,-9.58109664917,-0.0784531980753,acc,,,
218,1644542464475448847,,,,gyr,-0.00174532923847,1.10653877258,0.00174532923847
219,1644542464476938486,0.509945809841,-9.64974308014,-0.0686465501785,acc,,,
220,1644542464478952408,0.274586200714,-9.67916297913,0.225552946329,acc,,,
221,1644542464480458260,,,,gyr,-0.00349065847695,1.29852497578,0.00174532923847
222,1644542464480966330,0.294199496508,-9.66935634613,0.0686465501785,acc,,,
223,1644542464482980013,1.83384346962,-9.71838951111,2.97141480446,acc,,,
224,1644542464484993935,1.31409108639,-10.4342756271,3.55981397629,acc,,,
225,1644542464485469818,,,,gyr,0.0715584978461,1.54461634159,0.0069813169539
226,1644542464487007856,-0.558979034424,-8.94366455078,2.09862303734,acc,,,
227,1644542464489023685,0.990471601486,-10.1106557846,1.2650578022,acc,,,
228,1644542464490481377,,,,gyr,0.150098308921,1.79943442345,0.0296705961227
229,1644542464491037369,0.38245934248,-9.5222568512,0.0784531980753,acc,,,
230,1644542464493049383,0.627625584602,-9.48303031921,-0.343232750893,acc,,,
231,1644542464495063066,0.813951909542,-9.71838951111,-0.637432217598,acc,,,
232,1644542464495493174,,,,gyr,0.0069813169539,2.03854465485,0.0139626339078
233,1644542464497076988,0.696272134781,-9.7478094101,-0.666852176189,acc,,,
234,1644542464499090910,0.627625584602,-9.49283695221,-0.686465501785,acc,,,
235,1644542464500504732,,,,gyr,0.205948844552,2.20609617233,0.0418879017234
236,1644542464501104832,0.637432217598,-9.67916297913,-0.264779537916,acc,,,
237,1644542464503118515,0.549172401428,-9.56148338318,-0.0686465501785,acc,,,
238,1644542464505134344,0.686465501785,-9.70858287811,0.0294199492782,acc,,,
239,1644542464505516291,,,,gyr,0.462512254715,2.35270380974,0.0802851468325
240,1644542464507148266,0.725692093372,-9.7478094101,0.0686465501785,acc,,,
241,1644542464509162188,0.558979034424,-9.70858287811,0.176519691944,acc,,,
242,1644542464510527849,,,,gyr,0.619591891766,2.48360347748,0.106465086341
243,1644542464511175871,0.666852176189,-9.42419052124,0.274586200714,acc,,,
244,1644542464513189793,0.558979034424,-9.61051654816,1.01008486748,acc,,,
245,1644542464515203714,0.666852176189,-9.81645679474,1.09834480286,acc,,,
246,1644542464515539646,,,,gyr,0.666715741158,2.50629281998,0.148352980614
247,1644542464517219543,0.470719188452,-9.48303031921,0.313812792301,acc,,,
248,1644542464519233227,0.490332484245,-9.64974308014,0.0784531980753,acc,,,
249,1644542464520550966,,,,gyr,0.544542729855,2.3701570034,0.176278248429
250,1644542464521245003,0.882598459721,-9.39477062225,-0.12748645246,acc,,,
251,1644542464523258924,0.686465501785,-9.83607006073,0.0,acc,,,
252,1644542464525272608,0.490332484245,-9.39477062225,-0.12748645246,acc,,,
253,1644542464525562763,,,,gyr,0.404916375875,2.09264969826,0.153588980436
254,1644542464527288675,0.833565235138,-9.62032318115,0.00980664975941,acc,,,
255,1644542464529302597,0.872791826725,-9.66935634613,-0.0294199492782,acc,,,
256,1644542464530574560,,,,gyr,0.267035365105,1.64060950279,0.109955742955
257,1644542464531316519,0.725692093372,-9.61051654816,-0.0980664938688,acc,,,
258,1644542464533329964,0.764918684959,-9.62032318115,-0.0294199492782,acc,,,
259,1644542464535346031,0.558979034424,-9.67916297913,0.0294199492782,acc,,,
260,1644542464535585880,,,,gyr,0.123918376863,1.16762530804,0.0506145469844
261,1644542464537359953,0.637432217598,-9.61051654816,0.0294199492782,acc,,,
262,1644542464539373875,0.529559075832,-9.58109664917,0.0686465501785,acc,,,
263,1644542464540597677,,,,gyr,0.0349065847695,0.823795378208,0.0139626339078
264,1644542464541385412,0.549172401428,-9.58109664917,0.0,acc,,,
265,1644542464543399334,0.637432217598,-9.58109664917,-0.00980664975941,acc,,,
266,1644542464545415401,0.598205626011,-9.64974308014,0.0980664938688,acc,,,
267,1644542464545609236,,,,gyr,0.0,0.588175952435,-0.00523598771542
268,1644542464547428846,0.509945809841,-9.61051654816,0.294199496508,acc,,,
269,1644542464549444914,0.558979034424,-9.56148338318,0.343232750893,acc,,,
270,1644542464550620794,,,,gyr,-0.0226892791688,0.387463092804,-0.0139626339078
271,1644542464551458836,0.696272134781,-9.57129001617,0.294199496508,acc,,,
272,1644542464553472757,0.804145276546,-9.62032318115,0.137293100357,acc,,,
273,1644542464555486441,0.813951909542,-9.61051654816,0.0980664938688,acc,,,
274,1644542464555632353,,,,gyr,-0.0750491544604,0.223402142525,-0.0436332300305
275,1644542464557500362,0.774725317955,-9.62032318115,0.137293100357,acc,,,
276,1644542464559516191,0.637432217598,-9.66935634613,0.343232750893,acc,,,
277,1644542464560644150,,,,gyr,-0.104719758034,0.069813169539,-0.0645771846175
278,1644542464561530113,0.509945809841,-9.57129001617,0.421685934067,acc,,,
279,1644542464563543797,0.598205626011,-9.66935634613,0.451105892658,acc,,,
280,1644542464565557718,0.637432217598,-9.66935634613,0.313812792301,acc,,,
281,1644542464565655708,,,,gyr,-0.109955742955,-0.0139626339078,-0.0558505356312
282,1644542464567571640,0.558979034424,-9.61051654816,0.402072638273,acc,,,
283,1644542464569585562,0.558979034424,-9.66935634613,0.313812792301,acc,,,
284,1644542464570667267,,,,gyr,-0.118682384491,-0.0296705961227,-0.0558505356312
285,1644542464571599007,0.598205626011,-9.64974308014,0.264779537916,acc,,,
286,1644542464573612928,0.627625584602,-9.62032318115,0.166713044047,acc,,,
287,1644542464575626850,0.696272134781,-9.67916297913,0.0980664938688,acc,,,
288,1644542464575676680,,,,gyr,-0.11344639957,-0.0436332300305,-0.0558505356312
289,1644542464577640533,0.686465501785,-9.64974308014,0.0392265990376,acc,,,
290,1644542464579654455,0.666852176189,-9.61051654816,0.0294199492782,acc,,,
291,1644542464580688477,,,,gyr,-0.0890117883682,-0.0715584978461,-0.0349065847695
292,1644542464581668377,0.774725317955,-9.71838951111,0.0980664938688,acc,,,
293,1644542464583682299,0.696272134781,-9.62032318115,0.166713044047,acc,,,
294,1644542464585695982,0.627625584602,-9.62032318115,0.294199496508,acc,,,
295,1644542464585700274,,,,gyr,-0.0471238903701,-0.0959931090474,-0.0139626339078
296,1644542464587709904,0.686465501785,-9.66935634613,0.38245934248,acc,,,
297,1644542464589723825,0.627625584602,-9.64974308014,0.451105892658,acc,,,
298,1644542464590711594,,,,gyr,0.00349065847695,-0.0715584978461,0.0104719754308
299,1644542464591737509,0.627625584602,-9.61051654816,0.362846046686,acc,,,
300,1644542464593751431,0.666852176189,-9.64974308014,0.137293100357,acc,,,
301,1644542464595723391,,,,gyr,0.0349065847695,-0.0104719754308,0.0226892791688
302,1644542464595765352,0.637432217598,-9.58109664917,0.12748645246,acc,,,
303,1644542464597779036,0.637432217598,-9.62032318115,0.137293100357,acc,,,
304,1644542464599794865,0.627625584602,-9.62032318115,0.343232750893,acc,,,
305,1644542464600734949,,,,gyr,0.0872664600611,0.0279252678156,0.0436332300305
306,1644542464601808786,0.529559075832,-9.58109664917,0.470719188452,acc,,,
307,1644542464603822708,0.451105892658,-9.67916297913,0.627625584602,acc,,,
308,1644542464605746508,,,,gyr,0.120427720249,0.0418879017234,0.0523598790169
309,1644542464605836391,0.421685934067,-9.62032318115,0.666852176189,acc,,,
310,1644542464607850313,0.421685934067,-9.64974308014,0.637432217598,acc,,,
311,1644542464609864235,0.402072638273,-9.58109664917,0.666852176189,acc,,,
312,1644542464610758066,,,,gyr,0.0890117883682,0.0645771846175,0.0436332300305
313,1644542464611878157,0.421685934067,-9.61051654816,0.735498726368,acc,,,
314,1644542464613891840,0.421685934067,-9.62032318115,0.735498726368,acc,,,
315,1644542464615769863,,,,gyr,0.0558505356312,0.123918376863,0.0296705961227
316,1644542464615907669,0.451105892658,-9.61051654816,0.598205626011,acc,,,
317,1644542464617921591,0.402072638273,-9.61051654816,0.696272134781,acc,,,
318,1644542464619935513,0.402072638273,-9.57129001617,0.813951909542,acc,,,
319,1644542464620781422,,,,gyr,0.0314159244299,0.197222203016,0.0174532923847
320,1644542464621949196,0.470719188452,-9.66935634613,0.696272134781,acc,,,
321,1644542464623963118,0.490332484245,-9.62032318115,0.490332484245,acc,,,
322,1644542464625792980,,,,gyr,0.00349065847695,0.267035365105,-0.00174532923847
323,1644542464625977039,0.549172401428,-9.61051654816,0.402072638273,acc,,,
324,1644542464627990723,0.57859236002,-9.64974308014,0.264779537916,acc,,,
325,1644542464630004644,0.57859236002,-9.57129001617,0.313812792301,acc,,,
326,1644542464630804777,,,,gyr,-0.0209439508617,0.275762021542,-0.0139626339078
327,1644542464632018566,0.529559075832,-9.64974308014,0.313812792301,acc,,,
328,1644542464634032488,0.509945809841,-9.61051654816,0.402072638273,acc,,,
329,1644542464635816097,,,,gyr,-0.0523598790169,0.179768905044,-0.0296705961227
330,1644542464636048079,0.529559075832,-9.58109664917,0.470719188452,acc,,,
331,1644542464638062000,0.549172401428,-9.64974308014,0.490332484245,acc,,,
332,1644542464640075922,0.529559075832,-9.57129001617,0.57859236002,acc,,,
333,1644542464640827894,,,,gyr,-0.104719758034,0.0610865242779,-0.0610865242779
334,1644542464642089844,0.549172401428,-9.64974308014,0.637432217598,acc,,,
335,1644542464644103527,0.451105892658,-9.61051654816,0.666852176189,acc,,,
336,1644542464645839453,,,,gyr,-0.176278248429,-0.0139626339078,-0.0785398185253
337,1644542464646119356,0.549172401428,-9.64974308014,0.725692093372,acc,,,
338,1644542464648133278,0.490332484245,-9.62032318115,0.764918684959,acc,,,
339,1644542464650147200,0.529559075832,-9.64974308014,0.735498726368,acc,,,
340,1644542464650851011,,,,gyr,-0.25830873847,-0.0645771846175,-0.0959931090474
341,1644542464652160883,0.529559075832,-9.64974308014,0.598205626011,acc,,,
342,1644542464654174805,0.57859236002,-9.61051654816,0.57859236002,acc,,,
343,1644542464655862570,,,,gyr,-0.350811183453,-0.102974422276,-0.115191727877
344,1644542464656188726,0.558979034424,-9.58109664917,0.549172401428,acc,,,
345,1644542464658204556,0.696272134781,-9.64974308014,0.57859236002,acc,,,
346,1644542464660218239,0.735498726368,-9.62032318115,0.686465501785,acc,,,
347,1644542464660874367,,,,gyr,-0.420624345541,-0.130899697542,-0.109955742955
348,1644542464662232161,0.774725317955,-9.61051654816,0.696272134781,acc,,,
349,1644542464664246082,0.804145276546,-9.57129001617,0.696272134781,acc,,,
350,1644542464665885925,,,,gyr,-0.500909507275,-0.171042263508,-0.0680678412318
351,1644542464666259766,0.843371868134,-9.64974308014,0.696272134781,acc,,,
352,1644542464668273687,0.804145276546,-9.62032318115,0.627625584602,acc,,,
353,1644542464670289516,0.696272134781,-9.64974308014,0.549172401428,acc,,,
354,1644542464670897484,,,,gyr,-0.591666638851,-0.200712859631,-0.0261799395084
355,1644542464672303438,0.57859236002,-9.64974308014,0.509945809841,acc,,,
356,1644542464674317122,0.598205626011,-9.64974308014,0.490332484245,acc,,,
357,1644542464675909281,,,,gyr,-0.657989144325,-0.218166157603,0.0209439508617
358,1644542464676329136,1.31409108639,-11.0128679276,-4.28550577164,acc,,,
359,1644542464678340912,-0.451105892658,-8.25719928741,-5.6682434082,acc,,,
360,1644542464680358648,1.40235090256,-10.9932546616,7.39421415329,acc,,,
361,1644542464680918694,,,,gyr,-0.392699092627,-0.193731546402,0.0767944902182
362,1644542464682370663,0.872791826725,-8.16893959045,-3.04006147385,acc,,,
363,1644542464684386492,0.637432217598,-10.4342756271,1.13757133484,acc,,,
364,1644542464685930490,,,,gyr,-0.0174532923847,-0.069813169539,0.127409040928
365,1644542464686400414,0.264779537916,-9.5222568512,0.362846046686,acc,,,
366,1644542464688414097,0.627625584602,-9.53206348419,0.0784531980753,acc,,,
367,1644542464690428019,0.490332484245,-9.94394302368,0.549172401428,acc,,,
368,1644542464690941811,,,,gyr,-0.00523598771542,-0.0104719754308,0.129154369235
369,1644542464692441940,0.343232750893,-9.43399715424,0.470719188452,acc,,,
370,1644542464694455624,0.509945809841,-9.62032318115,0.421685934067,acc,,,
371,1644542464695953608,,,,gyr,0.0,0.0296705961227,0.122173048556
372,1644542464696469545,0.627625584602,-9.70858287811,0.490332484245,acc,,,
373,1644542464698483467,0.402072638273,-9.56148338318,0.402072638273,acc,,,
374,1644542464700497150,0.549172401428,-9.64974308014,0.264779537916,acc,,,
375,1644542464700965166,,,,gyr,-0.0069813169539,0.0977384373546,0.130899697542
376,1644542464702511072,0.637432217598,-9.71838951111,0.313812792301,acc,,,
377,1644542464704524994,0.402072638273,-9.56148338318,0.362846046686,acc,,,
378,1644542464705976725,,,,gyr,-0.00523598771542,0.141371667385,0.136135682464
379,1644542464706538916,0.558979034424,-9.64974308014,0.176519691944,acc,,,
380,1644542464708552599,0.57859236002,-9.64974308014,0.38245934248,acc,,,
381,1644542464710566521,0.490332484245,-9.61051654816,0.166713044047,acc,,,
382,1644542464710988283,,,,gyr,-0.00523598771542,0.167551606894,0.127409040928
383,1644542464712582350,0.57859236002,-9.70858287811,0.0686465501785,acc,,,
384,1644542464714596272,0.598205626011,-9.61051654816,0.0980664938688,acc,,,
385,1644542464716000080,,,,gyr,0.0,0.167551606894,0.115191727877
386,1644542464716609955,0.627625584602,-9.61051654816,0.12748645246,acc,,,
387,1644542464718623877,0.558979034424,-9.64974308014,0.0392265990376,acc,,,
388,1644542464720637798,0.598205626011,-9.62032318115,0.0784531980753,acc,,,
389,1644542464721011400,,,,gyr,0.0,0.141371667385,0.0977384373546
390,1644542464722651482,0.57859236002,-9.57129001617,0.0784531980753,acc,,,
391,1644542464724665165,0.558979034424,-9.66935634613,0.0294199492782,acc,,,
392,1644542464726023197,,,,gyr,-0.00174532923847,0.104719758034,0.0942477807403
393,1644542464726679087,0.627625584602,-9.62032318115,0.0686465501785,acc,,,
394,1644542464728695154,0.549172401428,-9.58109664917,0.0980664938688,acc,,,
395,1644542464730708838,0.57859236002,-9.62032318115,0.0784531980753,acc,,,
396,1644542464731034994,,,,gyr,-0.00174532923847,0.0610865242779,0.0767944902182
397,1644542464732722759,0.549172401428,-9.64974308014,0.0686465501785,acc,,,
398,1644542464734736681,0.549172401428,-9.61051654816,0.264779537916,acc,,,
399,1644542464736046314,,,,gyr,-0.0069813169539,0.0139626339078,0.0610865242779
400,1644542464736750126,0.637432217598,-9.67916297913,0.176519691944,acc,,,
401,1644542464738764048,0.558979034424,-9.62032318115,0.12748645246,acc,,,
402,1644542464740777969,0.549172401428,-9.58109664917,0.245166242123,acc,,,
403,1644542464741058111,,,,gyr,-0.0069813169539,-0.0104719754308,0.0610865242779
404,1644542464742791891,0.666852176189,-9.67916297913,0.137293100357,acc,,,
405,1644542464744805574,0.529559075832,-9.57129001617,0.166713044047,acc,,,
406,1644542464746069670,,,,gyr,-0.0139626339078,-0.0226892791688,0.0802851468325
407,1644542464746819496,0.598205626011,-9.61051654816,0.196132987738,acc,,,
408,1644542464748833418,0.598205626011,-9.67916297913,0.0980664938688,acc,,,
409,1644542464750847101,0.509945809841,-9.57129001617,0.176519691944,acc,,,
410,1644542464751081228,,,,gyr,-0.00872664619237,-0.0383972451091,0.104719758034
411,1644542464752861023,0.549172401428,-9.64974308014,0.166713044047,acc,,,
412,1644542464754874945,0.558979034424,-9.62032318115,0.0784531980753,acc,,,
413,1644542464756092787,,,,gyr,-0.00523598771542,-0.0558505356312,0.118682384491
414,1644542464756888628,0.490332484245,-9.58109664917,0.0980664938688,acc,,,
415,1644542464758902550,0.470719188452,-9.62032318115,0.176519691944,acc,,,
416,1644542464760916471,0.470719188452,-9.56148338318,0.245166242123,acc,,,
417,1644542464761104584,,,,gyr,-0.00523598771542,-0.0872664600611,0.141371667385
418,1644542464762930393,0.402072638273,-9.57129001617,0.294199496508,acc,,,
419,1644542464764944077,0.470719188452,-9.61051654816,0.12748645246,acc,,,
420,1644542464766115904,,,,gyr,-0.00349065847695,-0.111701071262,0.144862323999
421,1644542464766957998,0.421685934067,-9.58109664917,0.225552946329,acc,,,
422,1644542464768971920,0.402072638273,-9.61051654816,0.343232750893,acc,,,
423,1644542464770985603,0.402072638273,-9.64974308014,0.274586200714,acc,,,
424,1644542464771127701,,,,gyr,-0.00174532923847,-0.106465086341,0.141371667385
425,1644542464772999525,0.343232750893,-9.61051654816,0.343232750893,acc,,,
426,1644542464775013447,0.343232750893,-9.61051654816,0.294199496508,acc,,,
427,1644542464776139498,,,,gyr,0.0,-0.0785398185253,0.139626339078
428,1644542464777027130,0.402072638273,-9.66935634613,0.313812792301,acc,,,
429,1644542464779041052,0.38245934248,-9.56148338318,0.362846046686,acc,,,
430,1644542464781054974,0.402072638273,-9.62032318115,0.294199496508,acc,,,
431,1644542464781148911,,,,gyr,0.00174532923847,-0.0436332300305,0.120427720249
432,1644542464783068895,0.421685934067,-9.61051654816,0.274586200714,acc,,,
433,1644542464785082579,0.38245934248,-9.53206348419,0.225552946329,acc,,,
434,1644542464786160469,,,,gyr,0.00174532923847,-0.0139626339078,0.104719758034
435,1644542464787096500,0.451105892658,-9.67916297913,0.264779537916,acc,,,
436,1644542464789110422,0.402072638273,-9.61051654816,0.245166242123,acc,,,
437,1644542464791124105,0.402072638273,-9.62032318115,0.313812792301,acc,,,
438,1644542464791172028,,,,gyr,0.00349065847695,-0.00872664619237,0.0959931090474
439,1644542464793138027,0.451105892658,-9.58109664917,0.264779537916,acc,,,
440,1644542464795153856,0.421685934067,-9.61051654816,0.294199496508,acc,,,
441,1644542464796183825,,,,gyr,0.00174532923847,-0.00872664619237,0.0855211317539
442,1644542464797167778,0.421685934067,-9.64974308014,0.245166242123,acc,,,
443,1644542464799181461,0.421685934067,-9.62032318115,0.294199496508,acc,,,
444,1644542464801195383,0.402072638273,-9.62032318115,0.343232750893,acc,,,
445,1644542464801195383,,,,gyr,0.00174532923847,0.00523598771542,0.0872664600611
446,1644542464803209305,0.451105892658,-9.62032318115,0.343232750893,acc,,,
447,1644542464805222988,0.402072638273,-9.64974308014,0.343232750893,acc,,,
448,1644542464806206942,,,,gyr,0.00174532923847,0.0139626339078,0.0872664600611
449,1644542464807236910,0.451105892658,-9.66935634613,0.245166242123,acc,,,
450,1644542464809250832,0.421685934067,-9.62032318115,0.313812792301,acc,,,
451,1644542464811218500,,,,gyr,0.0,0.0314159244299,0.0785398185253
452,1644542464811264753,0.470719188452,-9.64974308014,0.343232750893,acc,,,
453,1644542464813278437,0.451105892658,-9.70858287811,0.294199496508,acc,,,
454,1644542464815294266,0.490332484245,-9.61051654816,0.274586200714,acc,,,
455,1644542464816230297,,,,gyr,-0.00174532923847,0.0471238903701,0.0872664600611
456,1644542464817308187,0.509945809841,-9.71838951111,0.274586200714,acc,,,
457,1644542464819322109,0.529559075832,-9.66935634613,0.166713044047,acc,,,
458,1644542464821241617,,,,gyr,-0.00349065847695,0.0471238903701,0.0872664600611
459,1644542464821335793,0.509945809841,-9.64974308014,0.245166242123,acc,,,
460,1644542464823349714,0.529559075832,-9.66935634613,0.245166242123,acc,,,
461,1644542464825363636,0.451105892658,-9.61051654816,0.196132987738,acc,,,
462,1644542464826253414,,,,gyr,-0.00349065847695,0.0279252678156,0.0872664600611
463,1644542464827377081,0.451105892658,-9.64974308014,0.294199496508,acc,,,
464,1644542464829391003,0.451105892658,-9.62032318115,0.196132987738,acc,,,
465,1644542464831264973,,,,gyr,-0.00523598771542,0.0,0.0750491544604
466,1644542464831404924,0.402072638273,-9.62032318115,0.264779537916,acc,,,
467,1644542464833420992,0.421685934067,-9.64974308014,0.294199496508,acc,,,
468,1644542464835434675,0.451105892658,-9.62032318115,0.264779537916,acc,,,
469,1644542464836276531,,,,gyr,-0.00523598771542,-0.00174532923847,0.0680678412318
470,1644542464837448597,0.38245934248,-9.61051654816,0.225552946329,acc,,,
471,1644542464839462519,0.421685934067,-9.64974308014,0.264779537916,acc,,,
472,1644542464841288090,,,,gyr,-0.00872664619237,-0.00174532923847,0.0680678412318
473,1644542464841475964,0.421685934067,-9.64974308014,0.294199496508,acc,,,
474,1644542464843489885,0.451105892658,-9.62032318115,0.294199496508,acc,,,
475,1644542464845503807,0.470719188452,-9.64974308014,0.264779537916,acc,,,
476,1644542464846299887,,,,gyr,-0.0104719754308,-0.0069813169539,0.0750491544604
477,1644542464847519875,0.509945809841,-9.62032318115,0.264779537916,acc,,,
478,1644542464849533558,0.509945809841,-9.64974308014,0.274586200714,acc,,,
479,1644542464851311207,,,,gyr,-0.00523598771542,-0.0104719754308,0.0872664600611
480,1644542464851547480,0.549172401428,-9.66935634613,0.274586200714,acc,,,
481,1644542464853561163,0.470719188452,-9.61051654816,0.176519691944,acc,,,
482,1644542464855574846,0.490332484245,-9.67916297913,0.264779537916,acc,,,
483,1644542464856323004,,,,gyr,-0.0104719754308,-0.00872664619237,0.11344639957
484,1644542464857588768,0.509945809841,-9.66935634613,0.245166242123,acc,,,
485,1644542464859604836,0.402072638273,-9.61051654816,0.196132987738,acc,,,
486,1644542464861334801,,,,gyr,-0.0069813169539,-0.00872664619237,0.148352980614
487,1644542464861618757,0.402072638273,-9.61051654816,0.176519691944,acc,,,
488,1644542464863632441,0.402072638273,-9.62032318115,0.137293100357,acc,,,
489,1644542464865646124,0.362846046686,-9.61051654816,0.225552946329,acc,,,
490,1644542464866346121,,,,gyr,-0.00349065847695,-0.0069813169539,0.167551606894
491,1644542464867660046,0.38245934248,-9.61051654816,0.176519691944,acc,,,
492,1644542464869673967,0.362846046686,-9.62032318115,0.166713044047,acc,,,
493,1644542464871357918,,,,gyr,-0.0069813169539,-0.0104719754308,0.167551606894
494,1644542464871687651,0.343232750893,-9.58109664917,0.196132987738,acc,,,
495,1644542464873701572,0.343232750893,-9.64974308014,0.166713044047,acc,,,
496,1644542464875715494,0.402072638273,-9.61051654816,0.196132987738,acc,,,
497,1644542464876367331,,,,gyr,-0.00872664619237,-0.0139626339078,0.167551606894
498,1644542464877729177,0.343232750893,-9.62032318115,0.196132987738,acc,,,
499,1644542464879743099,0.274586200714,-9.58109664917,0.12748645246,acc,,,
500,1644542464881379128,,,,gyr,-0.00174532923847,-0.00872664619237,0.162315621972
501,1644542464881757021,0.264779537916,-9.62032318115,0.176519691944,acc,,,
502,1644542464883770704,0.274586200714,-9.62032318115,0.196132987738,acc,,,
503,1644542464885784626,0.313812792301,-9.61051654816,0.137293100357,acc,,,
504,1644542464886390686,,,,gyr,-0.00349065847695,-0.00349065847695,0.144862323999
505,1644542464887798548,0.402072638273,-9.62032318115,0.225552946329,acc,,,
506,1644542464889812231,0.313812792301,-9.58109664917,0.176519691944,acc,,,
507,1644542464891402245,,,,gyr,-0.00174532923847,-0.00523598771542,0.129154369235
508,1644542464891826153,0.343232750893,-9.64974308014,0.176519691944,acc,,,
509,1644542464893840075,0.362846046686,-9.62032318115,0.245166242123,acc,,,
510,1644542464895853996,0.362846046686,-9.61051654816,0.225552946329,acc,,,
511,1644542464896413803,,,,gyr,-0.00174532923847,-0.00349065847695,0.122173048556
512,1644542464897867680,0.313812792301,-9.62032318115,0.176519691944,acc,,,
513,1644542464899881601,0.362846046686,-9.62032318115,0.196132987738,acc,,,
514,1644542464901425600,,,,gyr,-0.00523598771542,-0.00349065847695,0.118682384491
515,1644542464901895523,0.313812792301,-9.64974308014,0.245166242123,acc,,,
516,1644542464903909206,0.294199496508,-9.64974308014,0.225552946329,acc,,,
517,1644542464905923128,0.362846046686,-9.67916297913,0.176519691944,acc,,,
518,1644542464906436920,,,,gyr,-0.00872664619237,-0.00523598771542,0.11344639957
519,1644542464907937050,0.362846046686,-9.62032318115,0.176519691944,acc,,,
520,1644542464909950733,0.343232750893,-9.66935634613,0.225552946329,acc,,,
521,1644542464911448717,,,,gyr,-0.00872664619237,-0.00872664619237,0.104719758034
522,1644542464911964655,0.362846046686,-9.62032318115,0.225552946329,acc,,,
523,1644542464913978577,0.362846046686,-9.62032318115,0.264779537916,acc,,,
524,1644542464915992498,0.294199496508,-9.62032318115,0.245166242123,acc,,,
525,1644542464916460276,,,,gyr,-0.00872664619237,-0.00174532923847,0.102974422276
526,1644542464918006182,0.264779537916,-9.66935634613,0.294199496508,acc,,,
527,1644542464920020103,0.343232750893,-9.70858287811,0.38245934248,acc,,,
528,1644542464921471834,,,,gyr,-0.00872664619237,0.00174532923847,0.106465086341
529,1644542464922034025,0.294199496508,-9.67916297913,0.402072638273,acc,,,
530,1644542464924047709,0.294199496508,-9.70858287811,0.529559075832,acc,,,
531,1644542464926061630,0.264779537916,-9.75761604309,0.529559075832,acc,,,
532,1644542464926483393,,,,gyr,-0.0139626339078,0.0296705961227,0.11344639957
533,1644542464928075552,0.294199496508,-9.71838951111,0.470719188452,acc,,,
534,1644542464930088997,0.38245934248,-9.67916297913,0.402072638273,acc,,,
535,1644542464931495190,,,,gyr,-0.0558505356312,0.0593411922455,0.130899697542
536,1644542464932102919,0.343232750893,-9.70858287811,0.402072638273,acc,,,
537,1644542464934116840,0.264779537916,-9.67916297913,0.402072638273,acc,,,
538,1644542464936130524,0.274586200714,-9.67916297913,0.402072638273,acc,,,
539,1644542464936506510,,,,gyr,-0.0855211317539,0.0925024524331,0.150098308921
540,1644542464938144445,0.264779537916,-9.66935634613,0.402072638273,acc,,,
541,1644542464940158367,0.264779537916,-9.64974308014,0.313812792301,acc,,,
542,1644542464941518307,,,,gyr,-0.0977384373546,0.11344639957,0.153588980436
543,1644542464942172289,0.294199496508,-9.64974308014,0.176519691944,acc,,,
544,1644542464944185972,0.294199496508,-9.64974308014,0.294199496508,acc,,,
545,1644542464946199894,0.294199496508,-9.67916297913,0.313812792301,acc,,,
546,1644542464946530104,,,,gyr,-0.102974422276,0.144862323999,0.157079637051
547,1644542464948213816,0.245166242123,-9.62032318115,0.274586200714,acc,,,
548,1644542464950227499,0.274586200714,-9.57129001617,0.137293100357,acc,,,
549,1644542464951541424,,,,gyr,-0.0959931090474,0.165806278586,0.150098308921
550,1644542464952241421,0.176519691944,-9.53206348419,0.0392265990376,acc,,,
551,1644542464954253435,0.137293100357,-9.5222568512,-0.12748645246,acc,,,
552,1644542464956267118,0.12748645246,-9.43399715424,-0.0686465501785,acc,,,
553,1644542464956553221,,,,gyr,-0.0715584978461,0.185004904866,0.141371667385
554,1644542464958281040,0.196132987738,-9.5222568512,-0.137293100357,acc,,,
555,1644542464960294962,0.245166242123,-9.57129001617,-0.0980664938688,acc,,,
556,1644542464961564779,,,,gyr,-0.0104719754308,0.179768905044,0.106465086341
557,1644542464962308645,0.245166242123,-9.53206348419,-0.0686465501785,acc,,,
558,1644542464964322567,0.245166242123,-9.53206348419,-0.0294199492782,acc,,,
559,1644542464966336489,0.225552946329,-9.58109664917,0.00980664975941,acc,,,
560,1644542464966576338,,,,gyr,0.0506145469844,0.148352980614,0.0645771846175
561,1644542464968350172,0.196132987738,-9.61051654816,0.0784531980753,acc,,,
562,1644542464970364094,0.225552946329,-9.58109664917,0.196132987738,acc,,,
563,1644542464971587896,,,,gyr,0.0855211317539,0.11344639957,0.0349065847695
564,1644542464972378016,0.264779537916,-9.62032318115,0.196132987738,acc,,,
565,1644542464974391699,0.274586200714,-9.64974308014,0.196132987738,acc,,,
566,1644542464976405621,0.225552946329,-9.64974308014,0.137293100357,acc,,,
567,1644542464976599693,,,,gyr,0.0959931090474,0.0872664600611,0.0209439508617
568,1644542464978419542,0.176519691944,-9.66935634613,0.245166242123,acc,,,
569,1644542464980433464,0.274586200714,-9.94394302368,0.725692093372,acc,,,
570,1644542464981609106,,,,gyr,0.102974422276,0.0785398185253,0.0069813169539
571,1644542464982446909,0.274586200714,-9.81645679474,0.627625584602,acc,,,
572,1644542464984460831,0.245166242123,-9.56148338318,0.12748645246,acc,,,
573,1644542464986474752,0.196132987738,-9.62032318115,0.245166242123,acc,,,
574,1644542464986620903,,,,gyr,0.0471238903701,0.0610865242779,0.00523598771542
575,1644542464988488436,0.294199496508,-9.62032318115,0.264779537916,acc,,,
576,1644542464990502357,0.264779537916,-9.61051654816,0.264779537916,acc,,,
577,1644542464991632223,,,,gyr,0.0104719754308,0.0418879017234,-0.0174532923847
578,1644542464992516279,0.274586200714,-9.64974308014,0.245166242123,acc,,,
579,1644542464994529963,0.245166242123,-9.62032318115,0.264779537916,acc,,,
580,1644542464996541977,0.225552946329,-9.57129001617,0.274586200714,acc,,,
581,1644542464996644020,,,,gyr,0.00523598771542,0.0174532923847,-0.0174532923847
582,1644542464998557806,0.225552946329,-9.58109664917,0.264779537916,acc,,,
583,1644542465000571489,0.245166242123,-9.58109664917,0.274586200714,acc,,,
584,1644542465001655579,,,,gyr,0.0,0.00872664619237,-0.0139626339078
585,1644542465002583504,0.274586200714,-9.66935634613,0.225552946329,acc,,,
586,1644542465004597425,0.225552946329,-9.58109664917,0.274586200714,acc,,,
587,1644542465006611109,0.245166242123,-9.61051654816,0.245166242123,acc,,,
588,1644542465006667137,,,,gyr,-0.00174532923847,0.0174532923847,-0.0104719754308
589,1644542465008625031,0.225552946329,-9.62032318115,0.274586200714,acc,,,
590,1644542465010638952,0.264779537916,-9.61051654816,0.294199496508,acc,,,
591,1644542465011678696,,,,gyr,0.0,0.0226892791688,-0.0104719754308
592,1644542465012652636,0.264779537916,-9.66935634613,0.294199496508,acc,,,
593,1644542465014666557,0.264779537916,-9.62032318115,0.274586200714,acc,,,
594,1644542465016680479,0.245166242123,-9.61051654816,0.264779537916,acc,,,
595,1644542465016690493,,,,gyr,-0.00523598771542,0.0349065847695,-0.00523598771542
596,1644542465018694401,0.196132987738,-9.64974308014,0.225552946329,acc,,,
597,1644542465020708084,0.176519691944,-9.64974308014,0.313812792301,acc,,,
598,1644542465021701813,,,,gyr,-0.00349065847695,0.0558505356312,0.00349065847695
599,1644542465022722006,0.225552946329,-9.61051654816,0.245166242123,acc,,,
600,1644542465024735928,0.196132987738,-9.61051654816,0.166713044047,acc,,,
601,1644542465026713610,,,,gyr,0.0,0.0750491544604,0.0069813169539
602,1644542465026749611,0.245166242123,-9.66935634613,0.166713044047,acc,,,
603,1644542465028763533,0.264779537916,-9.64974308014,0.225552946329,acc,,,
604,1644542465030777454,0.313812792301,-9.61051654816,0.0980664938688,acc,,,
605,1644542465031725168,,,,gyr,-0.00349065847695,0.0767944902182,-0.00523598771542
606,1644542465032790899,0.362846046686,-9.64974308014,0.166713044047,acc,,,
607,1644542465034804821,0.402072638273,-9.67916297913,0.137293100357,acc,,,
608,1644542465036736727,,,,gyr,0.0,0.0593411922455,-0.0191986225545
609,1644542465036818743,0.38245934248,-9.64974308014,0.12748645246,acc,,,
610,1644542465038832426,0.362846046686,-9.64974308014,0.176519691944,acc,,,
611,1644542465040846348,0.362846046686,-9.66935634613,0.137293100357,acc,,,
612,1644542465041748285,,,,gyr,0.0,0.0418879017234,-0.0104719754308
613,1644542465042860270,0.402072638273,-9.62032318115,0.137293100357,acc,,,
614,1644542465044874191,0.343232750893,-9.62032318115,0.137293100357,acc,,,
615,1644542465046760082,,,,gyr,0.0,0.0296705961227,-0.00349065847695
616,1644542465046887875,0.274586200714,-9.61051654816,0.166713044047,acc,,,
617,1644542465048901796,0.294199496508,-9.62032318115,0.12748645246,acc,,,
618,1644542465050913572,0.343232750893,-9.62032318115,0.12748645246,acc,,,
619,1644542465051771641,,,,gyr,0.00349065847695,0.0279252678156,0.00349065847695
620,1644542465052927494,0.313812792301,-9.64974308014,0.196132987738,acc,,,
621,1644542465054941416,0.343232750893,-9.66935634613,0.166713044047,acc,,,
622,1644542465056783199,,,,gyr,0.00349065847695,0.0296705961227,-0.0104719754308
623,1644542465056955099,0.313812792301,-9.61051654816,0.196132987738,acc,,,
624,1644542465058969021,0.343232750893,-9.64974308014,0.176519691944,acc,,,
625,1644542465060984850,0.38245934248,-9.64974308014,0.225552946329,acc,,,
626,1644542465061794996,,,,gyr,0.00349065847695,0.0296705961227,-0.0104719754308
627,1644542465062998772,0.402072638273,-9.64974308014,0.166713044047,acc,,,
628,1644542465065012455,0.343232750893,-9.66935634613,0.166713044047,acc,,,
629,1644542465066806316,,,,gyr,0.00174532923847,0.0209439508617,-0.0069813169539
630,1644542465067026377,0.274586200714,-9.64974308014,0.225552946329,acc,,,
631,1644542465069040298,0.274586200714,-9.66935634613,0.176519691944,acc,,,
632,1644542465071054220,0.313812792301,-9.64974308014,0.245166242123,acc,,,
633,1644542465071815968,,,,gyr,0.00174532923847,0.0,-0.0139626339078
634,1644542465073067904,0.274586200714,-9.64974308014,0.264779537916,acc,,,
635,1644542465075081825,0.264779537916,-9.61051654816,0.225552946329,acc,,,
636,1644542465076827526,,,,gyr,0.0,0.0,-0.0069813169539
637,1644542465077095747,0.264779537916,-9.64974308014,0.264779537916,acc,,,
638,1644542465079109430,0.264779537916,-9.61051654816,0.245166242123,acc,,,
639,1644542465081123352,0.274586200714,-9.66935634613,0.294199496508,acc,,,
640,1644542465081839085,,,,gyr,0.00349065847695,0.0,-0.0139626339078
641,1644542465083137274,0.264779537916,-9.62032318115,0.294199496508,acc,,,
642,1644542465085150957,0.294199496508,-9.64974308014,0.274586200714,acc,,,
643,1644542465086850882,,,,gyr,0.00349065847695,0.0,-0.00872664619237
644,1644542465087164879,0.274586200714,-9.62032318115,0.294199496508,acc,,,
645,1644542465089178801,0.245166242123,-9.62032318115,0.313812792301,acc,,,
646,1644542465091192484,0.264779537916,-9.64974308014,0.343232750893,acc,,,
647,1644542465091862440,,,,gyr,0.0,-0.00174532923847,0.0
648,1644542465093208313,0.245166242123,-9.61051654816,0.294199496508,acc,,,
649,1644542465095222235,0.176519691944,-9.62032318115,0.313812792301,acc,,,
650,1644542465096873999,,,,gyr,-0.00349065847695,-0.0069813169539,0.0
651,1644542465097236156,0.245166242123,-9.62032318115,0.274586200714,acc,,,
652,1644542465099249840,0.196132987738,-9.61051654816,0.225552946329,acc,,,
653,1644542465101263762,0.196132987738,-9.61051654816,0.176519691944,acc,,,
654,1644542465101885796,,,,gyr,-0.00523598771542,-0.00872664619237,-0.00523598771542
655,1644542465103277683,0.196132987738,-9.61051654816,0.225552946329,acc,,,
656,1644542465105291367,0.225552946329,-9.62032318115,0.245166242123,acc,,,
657,1644542465106897116,,,,gyr,0.0,-0.0506145469844,-0.0069813169539
658,1644542465107305288,0.166713044047,-9.61051654816,0.225552946329,acc,,,
659,1644542465109319210,0.196132987738,-9.61051654816,0.245166242123,acc,,,
660,1644542465111332893,0.176519691944,-9.61051654816,0.196132987738,acc,,,
661,1644542465111908913,,,,gyr,0.0069813169539,-0.127409040928,-0.0226892791688
662,1644542465113348722,0.166713044047,-9.58109664917,0.264779537916,acc,,,
663,1644542465115362644,0.166713044047,-9.61051654816,0.245166242123,acc,,,
664,1644542465116920471,,,,gyr,0.0069813169539,-0.205948844552,-0.0436332300305
665,1644542465117376566,0.176519691944,-9.58109664917,0.264779537916,acc,,,
666,1644542465119390249,0.264779537916,-9.64974308014,0.313812792301,acc,,,
667,1644542465121404171,0.313812792301,-9.64974308014,0.313812792301,acc,,,
668,1644542465121932030,,,,gyr,0.00872664619237,-0.25830873847,-0.0593411922455
669,1644542465123417854,0.313812792301,-9.66935634613,0.313812792301,acc,,,
670,1644542465125431776,0.313812792301,-9.58109664917,0.313812792301,acc,,,
671,1644542465126943588,,,,gyr,0.00523598771542,-0.275762021542,-0.0680678412318
672,1644542465127445459,0.137293100357,-9.64974308014,0.313812792301,acc,,,
673,1644542465129459381,0.166713044047,-9.67916297913,0.402072638273,acc,,,
674,1644542465131473303,0.343232750893,-9.64974308014,0.313812792301,acc,,,
675,1644542465131955385,,,,gyr,0.0,-0.261799395084,-0.0610865242779
676,1644542465133486986,0.598205626011,-9.62032318115,0.0392265990376,acc,,,
677,1644542465135500908,0.490332484245,-9.64974308014,0.274586200714,acc,,,
678,1644542465136966705,,,,gyr,0.00174532923847,-0.246091425419,-0.0471238903701
679,1644542465137514830,0.225552946329,-9.62032318115,0.421685934067,acc,,,
680,1644542465139528513,0.137293100357,-9.64974308014,0.509945809841,acc,,,
681,1644542465141542435,0.0980664938688,-9.62032318115,0.402072638273,acc,,,
682,1644542465141978502,,,,gyr,0.0,-0.237364768982,-0.0349065847695
683,1644542465143556356,0.137293100357,-9.62032318115,0.451105892658,acc,,,
684,1644542465145570278,0.274586200714,-9.70858287811,0.421685934067,acc,,,
685,1644542465146990061,,,,gyr,-0.00349065847695,-0.214675500989,-0.0296705961227
686,1644542465147583961,0.451105892658,-9.57129001617,-0.00980664975941,acc,,,
687,1644542465149597883,0.313812792301,-9.71838951111,0.313812792301,acc,,,
688,1644542465151611805,0.264779537916,-9.67916297913,0.421685934067,acc,,,
689,1644542465152001619,,,,gyr,-0.00174532923847,-0.211184844375,-0.0349065847695
690,1644542465153625727,0.451105892658,-9.57129001617,0.196132987738,acc,,,
691,1644542465155639410,0.402072638273,-9.75761604309,0.343232750893,acc,,,
692,1644542465157013416,,,,gyr,-0.00872664619237,-0.218166157603,-0.0418879017234
693,1644542465157651424,-0.00980664975941,-9.58109664917,0.637432217598,acc,,,
694,1644542465159665346,-0.166713044047,-9.66935634613,0.774725317955,acc,,,
695,1644542465161679029,-0.225552946329,-9.75761604309,0.921825051308,acc,,,
696,1644542465162025213,,,,gyr,0.0,-0.197222203016,-0.0296705961227
697,1644542465163692951,-0.00980664975941,-9.70858287811,0.725692093372,acc,,,
698,1644542465165706873,-0.12748645246,-9.38496398926,0.274586200714,acc,,,
699,1644542465167034626,,,,gyr,-0.00349065847695,-0.127409040928,-0.0069813169539
700,1644542465167722702,0.225552946329,-9.78703689575,0.509945809841,acc,,,
701,1644542465169736624,0.137293100357,-9.58109664917,0.470719188452,acc,,,
702,1644542465171750307,0.0,-9.88510322571,0.774725317955,acc,,,
703,1644542465172046423,,,,gyr,0.00523598771542,-0.0767944902182,0.0209439508617
704,1644542465173762321,-0.343232750893,-9.48303031921,0.529559075832,acc,,,
705,1644542465175778151,0.0980664938688,-9.67916297913,0.549172401428,acc,,,
706,1644542465177057743,,,,gyr,-0.00349065847695,-0.0471238903701,0.0383972451091
707,1644542465177792072,0.362846046686,-9.81645679474,0.402072638273,acc,,,
708,1644542465179805756,2.51050233841,-9.94394302368,0.921825051308,acc,,,
709,1644542465181817532,2.92238163948,-8.26700592041,-3.04006147385,acc,,,
710,1644542465182069540,,,,gyr,-0.00349065847695,-0.0523598790169,0.0418879017234
711,1644542465183833599,0.666852176189,-9.99297618866,-0.882598459721,acc,,,
712,1644542465185847521,-0.402072638273,-9.81645679474,0.0980664938688,acc,,,
713,1644542465187081337,,,,gyr,0.0,-0.167551606894,-0.0104719754308
714,1644542465187861443,0.00980664975941,-9.70858287811,0.38245934248,acc,,,
715,1644542465189877272,0.451105892658,-9.61051654816,0.696272134781,acc,,,
716,1644542465191891193,0.176519691944,-9.56148338318,0.912018418312,acc,,,
717,1644542465192093372,,,,gyr,0.00349065847695,-0.267035365105,-0.0209439508617
718,1644542465193905115,0.362846046686,-9.78703689575,0.549172401428,acc,,,
719,1644542465195919037,0.362846046686,-9.53206348419,0.196132987738,acc,,,
720,1644542465197104931,,,,gyr,0.00174532923847,-0.218166157603,-0.0436332300305
721,1644542465197932959,0.225552946329,-9.43399715424,0.38245934248,acc,,,
722,1644542465199948788,0.343232750893,-10.1106557846,0.725692093372,acc,,,
723,1644542465201962709,0.166713044047,-9.67916297913,0.196132987738,acc,,,
724,1644542465202116728,,,,gyr,0.00174532923847,-0.193731546402,-0.0418879017234
725,1644542465203974724,0.196132987738,-9.09076404572,-0.137293100357,acc,,,
726,1644542465205990553,0.313812792301,-10.0420093536,0.686465501785,acc,,,
727,1644542465207128525,,,,gyr,0.0,-0.162315621972,-0.0471238903701
728,1644542465208004475,0.294199496508,-9.56148338318,0.0392265990376,acc,,,
729,1644542465210016251,0.264779537916,-9.38496398926,-0.0980664938688,acc,,,
730,1644542465212032318,0.421685934067,-9.83607006073,0.402072638273,acc,,,
731,1644542465212140083,,,,gyr,-0.00349065847695,-0.153588980436,-0.0523598790169
732,1644542465214046240,0.402072638273,-9.71838951111,0.0392265990376,acc,,,
733,1644542465216060162,0.402072638273,-9.45361042023,-0.245166242123,acc,,,
734,1644542465217151880,,,,gyr,-0.00523598771542,-0.162315621972,-0.0558505356312
735,1644542465218075991,0.402072638273,-9.67916297913,0.774725317955,acc,,,
736,1644542465220089912,0.313812792301,-9.61051654816,0.637432217598,acc,,,
737,1644542465222103834,0.38245934248,-9.49283695221,0.558979034424,acc,,,
738,1644542465222163916,,,,gyr,-0.00523598771542,-0.188495561481,-0.0418879017234
739,1644542465224117756,0.402072638273,-9.58109664917,0.725692093372,acc,,,
740,1644542465226131678,0.313812792301,-9.83607006073,1.08853816986,acc,,,
741,1644542465227175474,,,,gyr,-0.00174532923847,-0.165806278586,-0.0296705961227
742,1644542465228145599,0.294199496508,-9.75761604309,0.882598459721,acc,,,
743,1644542465230159521,0.343232750893,-9.24767112732,0.951245009899,acc,,,
744,1644542465232173204,0.264779537916,-9.70858287811,1.31409108639,acc,,,
745,1644542465232187271,,,,gyr,-0.00174532923847,-0.122173048556,-0.0139626339078
746,1644542465234187126,0.343232750893,-9.99297618866,1.45138418674,acc,,,
747,1644542465236200809,0.402072638273,-9.34573745728,0.637432217598,acc,,,
748,1644542465237199068,,,,gyr,0.0,-0.0680678412318,0.0
749,1644542465238214731,0.225552946329,-9.66935634613,1.05911815166,acc,,,
750,1644542465240228653,0.313812792301,-9.56148338318,1.04931151867,acc,,,
751,1644542465242210627,,,,gyr,-0.00174532923847,-0.0209439508617,0.0104719754308
752,1644542465242242575,0.343232750893,-9.88510322571,0.804145276546,acc,,,
753,1644542465244258642,0.490332484245,-9.43399715424,0.402072638273,acc,,,
754,1644542465246272564,0.402072638273,-9.81645679474,0.57859236002,acc,,,
755,1644542465247222424,,,,gyr,-0.00174532923847,0.0,0.0209439508617
756,1644542465248286486,0.402072638273,-9.38496398926,0.451105892658,acc,,,
757,1644542465250300407,0.343232750893,-9.7478094101,1.20621788502,acc,,,
758,1644542465252234221,,,,gyr,0.00174532923847,0.0,0.0436332300305
759,1644542465252314091,0.313812792301,-10.4342756271,1.54945063591,acc,,,
760,1644542465254326105,0.313812792301,-8.94366455078,0.343232750893,acc,,,
761,1644542465256341934,0.294199496508,-9.25747776031,0.813951909542,acc,,,
762,1644542465257246017,,,,gyr,0.0,0.0209439508617,0.0610865242779
763,1644542465258355856,0.225552946329,-10.797121048,1.48080408573,acc,,,
764,1644542465260369778,0.274586200714,-9.21825122833,0.274586200714,acc,,,
765,1644542465262255907,,,,gyr,0.00523598771542,0.0436332300305,0.0785398185253
766,1644542465262383699,0.294199496508,-9.45361042023,0.627625584602,acc,,,
767,1644542465264397621,0.313812792301,-9.91452312469,0.872791826725,acc,,,
768,1644542465266411543,0.294199496508,-9.62032318115,0.686465501785,acc,,,
769,1644542465267267466,,,,gyr,-0.00174532923847,0.0523598790169,0.0855211317539
770,1644542465268425465,0.274586200714,-9.43399715424,0.402072638273,acc,,,
771,1644542465270439386,0.274586200714,-9.64974308014,0.402072638273,acc,,,
772,1644542465272279263,,,,gyr,0.0,0.0383972451091,0.0802851468325
773,1644542465272453070,0.245166242123,-10.1106557846,1.04931151867,acc,,,
774,1644542465274466991,0.343232750893,-9.02211761475,-0.0294199492782,acc,,,
775,1644542465276480913,0.343232750893,-9.80665016174,0.843371868134,acc,,,
776,1644542465277291059,,,,gyr,0.0,0.0261799395084,0.0855211317539
777,1644542465278494835,0.137293100357,-10.4931154251,0.813951909542,acc,,,
778,1644542465280508757,0.343232750893,-9.34573745728,0.137293100357,acc,,,
779,1644542465282302618,,,,gyr,0.0,0.0139626339078,0.0750491544604
780,1644542465282522678,-0.00980664975941,-9.20844459534,0.0980664938688,acc,,,
781,1644542465284538507,0.343232750893,-10.2675619125,0.843371868134,acc,,,
782,1644542465286552429,0.264779537916,-10.708861351,0.598205626011,acc,,,
783,1644542465287314415,,,,gyr,0.0,0.0104719754308,0.0610865242779
784,1644542465288566351,0.245166242123,-9.70858287811,0.313812792301,acc,,,
785,1644542465290580273,0.362846046686,-8.78675842285,0.313812792301,acc,,,
786,1644542465292326212,,,,gyr,0.00174532923847,0.00872664619237,0.0418879017234
787,1644542465292594194,0.196132987738,-9.86548995972,0.961051702499,acc,,,
788,1644542465294608116,0.0980664938688,-10.2087221146,0.509945809841,acc,,,
789,1644542465296622038,0.313812792301,-9.24767112732,0.0686465501785,acc,,,
790,1644542465297338247,,,,gyr,-0.00174532923847,0.0209439508617,0.0296705961227
791,1644542465298637867,0.274586200714,-9.38496398926,0.509945809841,acc,,,
792,1644542465300649881,0.00980664975941,-10.0420093536,1.09834480286,acc,,,
793,1644542465302349806,,,,gyr,-0.00174532923847,0.0296705961227,0.0261799395084
794,1644542465302665710,0.421685934067,-9.45361042023,0.402072638273,acc,,,
795,1644542465304679632,0.421685934067,-9.43399715424,0.00980664975941,acc,,,
796,1644542465306693554,0.0,-9.91452312469,0.872791826725,acc,,,
797,1644542465307361603,,,,gyr,0.00174532923847,0.0436332300305,0.0139626339078
798,1644542465308707476,0.451105892658,-9.31631755829,0.166713044047,acc,,,
799,1644542465310723305,0.421685934067,-9.78703689575,0.421685934067,acc,,,
800,1644542465312373400,,,,gyr,-0.00523598771542,0.0296705961227,0.0174532923847
801,1644542465312735319,0.490332484245,-9.25747776031,0.362846046686,acc,,,
802,1644542465314749241,0.0,-9.5222568512,0.804145276546,acc,,,
803,1644542465316765070,0.402072638273,-10.0322027206,0.696272134781,acc,,,
804,1644542465317384958,,,,gyr,-0.00174532923847,0.00349065847695,0.0139626339078
805,1644542465318778992,0.313812792301,-9.81645679474,0.696272134781,acc,,,
806,1644542465320792913,0.245166242123,-9.25747776031,0.490332484245,acc,,,
807,1644542465322396755,,,,gyr,-0.00349065847695,-0.0209439508617,0.0226892791688
808,1644542465322806835,0.421685934067,-9.75761604309,0.245166242123,acc,,,
809,1644542465324822664,0.166713044047,-9.98316955566,0.529559075832,acc,,,
810,1644542465326834679,0.264779537916,-9.30651092529,0.0784531980753,acc,,,
811,1644542465327408791,,,,gyr,-0.00349065847695,-0.0226892791688,0.0261799395084
812,1644542465328850508,0.313812792301,-8.70830535889,-0.12748645246,acc,,,
813,1644542465330864429,0.196132987738,-10.2381420135,0.961051702499,acc,,,
814,1644542465332420349,,,,gyr,-0.0104719754308,0.00523598771542,0.0349065847695
815,1644542465332878351,0.0392265990376,-11.0324811935,0.57859236002,acc,,,
816,1644542465334892273,0.421685934067,-8.15913295746,-0.637432217598,acc,,,
817,1644542465336908102,0.225552946329,-9.98316955566,0.402072638273,acc,,,
818,1644542465337432146,,,,gyr,-0.00349065847695,0.0471238903701,0.0436332300305
819,1644542465338922024,0.362846046686,-10.0420093536,0.666852176189,acc,,,
820,1644542465340935946,0.12748645246,-9.57129001617,-0.0784531980753,acc,,,
821,1644542465342443943,,,,gyr,-0.0104719754308,0.0855211317539,0.0506145469844
822,1644542465342949629,0.549172401428,-8.62004470825,-0.451105892658,acc,,,
823,1644542465344963551,0.0784531980753,-10.3362092972,0.38245934248,acc,,,
824,1644542465346977472,0.12748645246,-10.2381420135,0.529559075832,acc,,,
825,1644542465347455502,,,,gyr,-0.0139626339078,0.109955742955,0.0523598790169
826,1644542465348991394,0.274586200714,-9.16921710968,0.137293100357,acc,,,
827,1644542465351007223,0.421685934067,-9.06134414673,0.402072638273,acc,,,
828,1644542465352467299,,,,gyr,-0.00872664619237,0.130899697542,0.0558505356312
829,1644542465353019238,-0.0784531980753,-10.1891088486,1.20621788502,acc,,,
830,1644542465355033159,0.637432217598,-9.5222568512,0.0686465501785,acc,,,
831,1644542465357048988,0.166713044047,-9.5222568512,0.402072638273,acc,,,
832,1644542465357479334,,,,gyr,-0.00174532923847,0.171042263508,0.0471238903701
833,1644542465359062910,0.0294199492782,-9.83607006073,0.470719188452,acc,,,
834,1644542465361076832,0.264779537916,-10.4146623611,0.00980664975941,acc,,,
835,1644542465362488747,,,,gyr,0.0,0.179768905044,0.0506145469844
836,1644542465363088846,0.421685934067,-10.2381420135,-0.12748645246,acc,,,
837,1644542465365102768,0.0392265990376,-8.62985134125,-0.804145276546,acc,,,
838,1644542465367118597,0.38245934248,-9.8949098587,0.490332484245,acc,,,
839,1644542465367500782,,,,gyr,-0.0104719754308,0.158824965358,0.0436332300305
840,1644542465369132519,0.313812792301,-10.0616226196,0.264779537916,acc,,,
841,1644542465371146441,0.0294199492782,-10.2969818115,0.549172401428,acc,,,
842,1644542465372512341,,,,gyr,-0.00523598771542,0.109955742955,0.0279252678156
843,1644542465373160362,0.166713044047,-9.20844459534,0.627625584602,acc,,,
844,1644542465375174284,0.225552946329,-9.43399715424,0.490332484245,acc,,,
845,1644542465377188206,0.225552946329,-10.2185287476,0.833565235138,acc,,,
846,1644542465377524137,,,,gyr,-0.00523598771542,0.0785398185253,-0.0069813169539
847,1644542465379202127,0.225552946329,-10.0322027206,0.843371868134,acc,,,
848,1644542465381216049,0.166713044047,-9.06134414673,0.0686465501785,acc,,,
849,1644542465382535934,,,,gyr,-0.00349065847695,0.0558505356312,-0.0279252678156
850,1644542465383229971,0.402072638273,-9.49283695221,0.529559075832,acc,,,
851,1644542465385243893,0.264779537916,-10.3852424622,0.686465501785,acc,,,
852,1644542465387257814,0.00980664975941,-8.88482475281,0.343232750893,acc,,,
853,1644542465387547493,,,,gyr,0.0069813169539,0.0209439508617,-0.0523598790169
854,1644542465389271498,0.402072638273,-9.43399715424,0.735498726368,acc,,,
855,1644542465391285419,0.38245934248,-9.86548995972,0.627625584602,acc,,,
856,1644542465392559290,,,,gyr,0.00872664619237,0.00349065847695,-0.0645771846175
857,1644542465393299341,0.0686465501785,-9.30651092529,0.313812792301,acc,,,
858,1644542465395313263,0.245166242123,-9.70858287811,0.774725317955,acc,,,
859,1644542465397327185,0.225552946329,-10.1204624176,1.01008486748,acc,,,
860,1644542465397571325,,,,gyr,0.0104719754308,-0.0314159244299,-0.0750491544604
861,1644542465399341106,0.402072638273,-9.58109664917,0.402072638273,acc,,,
862,1644542465401355028,0.38245934248,-9.1299905777,0.549172401428,acc,,,
863,1644542465402583122,,,,gyr,0.00349065847695,-0.0506145469844,-0.0837758034468
864,1644542465403368950,0.137293100357,-9.94394302368,1.12776470184,acc,,,
865,1644542465405384779,0.245166242123,-9.34573745728,0.558979034424,acc,,,
866,1644542465407398701,0.313812792301,-9.20844459534,0.598205626011,acc,,,
867,1644542465407594681,,,,gyr,0.00349065847695,-0.0436332300305,-0.0785398185253
868,1644542465409412622,0.166713044047,-9.61051654816,0.637432217598,acc,,,
869,1644542465411426544,0.509945809841,-9.49283695221,0.0784531980753,acc,,,
870,1644542465412606478,,,,gyr,0.0,-0.0418879017234,-0.0715584978461
871,1644542465413440466,0.362846046686,-10.1891088486,0.764918684959,acc,,,
872,1644542465415454388,0.196132987738,-9.42419052124,0.558979034424,acc,,,
873,1644542465417468309,0.343232750893,-9.42419052124,0.882598459721,acc,,,
874,1644542465417618275,,,,gyr,0.00349065847695,-0.0523598790169,-0.0610865242779
875,1644542465419482231,0.264779537916,-10.0616226196,1.24544453621,acc,,,
876,1644542465421496153,0.402072638273,-9.66935634613,0.637432217598,acc,,,
877,1644542465422629833,,,,gyr,-0.00523598771542,-0.0383972451091,-0.0558505356312
878,1644542465423510075,0.0294199492782,-9.56148338318,0.666852176189,acc,,,
879,1644542465425523996,0.882598459721,-9.64974308014,0.598205626011,acc,,,
880,1644542465427537918,-0.166713044047,-10.4342756271,1.04931151867,acc,,,
881,1644542465427641869,,,,gyr,0.00174532923847,-0.0558505356312,-0.0471238903701
882,1644542465429551840,0.627625584602,-9.17902374268,0.176519691944,acc,,,
883,1644542465431565762,-0.0686465501785,-9.39477062225,0.362846046686,acc,,,
884,1644542465432653666,,,,gyr,0.00349065847695,-0.0715584978461,-0.0436332300305
885,1644542465433581591,0.343232750893,-10.0125894547,0.627625584602,acc,,,
886,1644542465435595512,0.402072638273,-9.94394302368,0.558979034424,acc,,,
887,1644542465437607288,0.12748645246,-9.49283695221,0.12748645246,acc,,,
888,1644542465437665224,,,,gyr,-0.00523598771542,-0.0785398185253,-0.0558505356312
889,1644542465439623356,0.274586200714,-9.38496398926,0.274586200714,acc,,,
890,1644542465441637039,0.470719188452,-9.64974308014,0.57859236002,acc,,,
891,1644542465442677021,,,,gyr,-0.0069813169539,-0.0802851468325,-0.0558505356312
892,1644542465443650961,0.196132987738,-10.1891088486,1.04931151867,acc,,,
893,1644542465445667028,0.294199496508,-9.58109664917,0.509945809841,acc,,,
894,1644542465447680950,0.490332484245,-9.5222568512,0.225552946329,acc,,,
895,1644542465447688818,,,,gyr,-0.00174532923847,-0.0471238903701,-0.0471238903701
896,1644542465449692726,0.00980664975941,-9.24767112732,0.0686465501785,acc,,,
897,1644542465451708555,0.362846046686,-9.83607006073,0.764918684959,acc,,,
898,1644542465452700377,,,,gyr,-0.0069813169539,-0.00872664619237,-0.0383972451091
899,1644542465453724623,0.421685934067,-9.70858287811,0.274586200714,acc,,,
900,1644542465455736399,0.313812792301,-9.58109664917,0.176519691944,acc,,,
901,1644542465457710266,,,,gyr,-0.0069813169539,0.0349065847695,-0.0349065847695
902,1644542465457752228,0.402072638273,-9.70858287811,0.137293100357,acc,,,
903,1644542465459766150,0.196132987738,-9.75761604309,0.509945809841,acc,,,
904,1644542465461780071,0.245166242123,-9.67916297913,0.402072638273,acc,,,
905,1644542465462722063,,,,gyr,-0.00523598771542,0.0610865242779,-0.0296705961227
906,1644542465463793993,0.470719188452,-9.2868976593,-0.166713044047,acc,,,
907,1644542465465809822,0.294199496508,-9.98316955566,0.176519691944,acc,,,
908,1644542465467733860,,,,gyr,-0.00872664619237,0.0785398185253,-0.0279252678156
909,1644542465467823744,0.137293100357,-9.62032318115,0.402072638273,acc,,,
910,1644542465469837666,0.38245934248,-9.21825122833,0.196132987738,acc,,,
911,1644542465471851587,0.38245934248,-9.99297618866,0.951245009899,acc,,,
912,1644542465472745657,,,,gyr,0.0104719754308,0.0959931090474,-0.0296705961227
913,1644542465473863602,0.0686465501785,-9.62032318115,0.0392265990376,acc,,,
914,1644542465475881338,0.12748645246,-9.66935634613,0.490332484245,acc,,,
915,1644542465477757215,,,,gyr,0.0,0.0977384373546,-0.0436332300305
916,1644542465477893353,-0.0294199492782,-9.96355628967,0.696272134781,acc,,,
917,1644542465479909182,0.843371868134,-9.62032318115,0.0980664938688,acc,,,
918,1644542465481921196,-0.0980664938688,-9.62032318115,0.313812792301,acc,,,
919,1644542465482769012,,,,gyr,-0.00174532923847,0.0785398185253,-0.0523598790169
920,1644542465483937025,0.294199496508,-9.57129001617,0.313812792301,acc,,,
921,1644542465485952854,0.470719188452,-9.75761604309,0.245166242123,acc,,,
922,1644542465487780809,,,,gyr,0.0,0.0471238903701,-0.0785398185253
923,1644542465487964869,-0.0294199492782,-9.67916297913,0.451105892658,acc,,,
924,1644542465489978790,-0.0980664938688,-9.66935634613,0.38245934248,acc,,,
925,1644542465491994619,0.57859236002,-9.35554409027,0.166713044047,acc,,,
926,1644542465492792606,,,,gyr,0.0,0.00349065847695,-0.0959931090474
927,1644542465494008541,0.274586200714,-10.3362092972,0.912018418312,acc,,,
928,1644542465496022463,0.470719188452,-9.31631755829,-0.12748645246,acc,,,
929,1644542465497804403,,,,gyr,-0.00349065847695,-0.0209439508617,-0.11344639957
930,1644542465498036385,0.166713044047,-9.06134414673,0.176519691944,acc,,,
931,1644542465500050306,-0.00980664975941,-10.0910425186,1.16699135303,acc,,,
932,1644542465502066135,0.509945809841,-9.58109664917,0.294199496508,acc,,,
933,1644542465502816200,,,,gyr,0.0,-0.0226892791688,-0.11344639957
934,1644542465504080057,0.509945809841,-9.58109664917,0.402072638273,acc,,,
935,1644542465506093979,0.196132987738,-9.83607006073,0.558979034424,acc,,,
936,1644542465507827997,,,,gyr,-0.00174532923847,-0.0104719754308,-0.109955742955
937,1644542465508107901,0.402072638273,-9.57129001617,0.549172401428,acc,,,
938,1644542465510121822,0.549172401428,-9.99297618866,0.274586200714,acc,,,
939,1644542465512135744,0.245166242123,-9.62032318115,0.264779537916,acc,,,
940,1644542465512839556,,,,gyr,-0.00349065847695,0.0174532923847,-0.0959931090474
941,1644542465514149666,0.490332484245,-9.49283695221,0.470719188452,acc,,,
942,1644542465516163588,0.196132987738,-10.0616226196,0.549172401428,acc,,,
943,1644542465517851591,,,,gyr,-0.00174532923847,0.0383972451091,-0.0837758034468
944,1644542465518177509,0.57859236002,-9.20844459534,-0.166713044047,acc,,,
945,1644542465520193338,0.294199496508,-9.78703689575,0.558979034424,acc,,,
946,1644542465522207260,0.637432217598,-10.0322027206,0.549172401428,acc,,,
947,1644542465522863388,,,,gyr,-0.00174532923847,0.0558505356312,-0.0610865242779
948,1644542465524221182,0.0980664938688,-9.48303031921,0.343232750893,acc,,,
949,1644542465526235104,0.362846046686,-9.1299905777,0.470719188452,acc,,,
950,1644542465527874947,,,,gyr,-0.0104719754308,0.0785398185253,-0.0506145469844
951,1644542465528249025,0.529559075832,-10.4146623611,1.13757133484,acc,,,
952,1644542465530262947,0.343232750893,-9.58109664917,0.343232750893,acc,,,
953,1644542465532278776,0.294199496508,-9.31631755829,0.313812792301,acc,,,
954,1644542465532886744,,,,gyr,-0.0069813169539,0.0785398185253,-0.0471238903701
955,1644542465534292698,0.725692093372,-9.86548995972,0.598205626011,acc,,,
956,1644542465536306620,0.490332484245,-10.1891088486,0.813951909542,acc,,,
957,1644542465537898540,,,,gyr,-0.0104719754308,0.0645771846175,-0.0383972451091
958,1644542465538320541,0.402072638273,-9.2868976593,0.274586200714,acc,,,
959,1644542465540334463,0.470719188452,-9.24767112732,0.402072638273,acc,,,
960,1644542465542348385,0.470719188452,-9.96355628967,0.764918684959,acc,,,
961,1644542465542910099,,,,gyr,-0.00872664619237,0.0471238903701,-0.0383972451091
962,1644542465544364214,0.343232750893,-9.75761604309,0.627625584602,acc,,,
963,1644542465546378136,0.294199496508,-9.06134414673,0.245166242123,acc,,,
964,1644542465547922134,,,,gyr,-0.0139626339078,0.0471238903701,-0.0418879017234
965,1644542465548392057,0.313812792301,-9.91452312469,1.01989161968,acc,,,
966,1644542465550405979,0.686465501785,-9.5222568512,0.509945809841,acc,,,
967,1644542465552419901,0.343232750893,-9.71838951111,0.833565235138,acc,,,
968,1644542465552931786,,,,gyr,-0.00523598771542,0.0506145469844,-0.0383972451091
969,1644542465554435730,0.451105892658,-9.57129001617,0.529559075832,acc,,,
970,1644542465556449652,0.57859236002,-9.91452312469,0.558979034424,acc,,,
971,1644542465557943583,,,,gyr,-0.0104719754308,0.069813169539,-0.0296705961227
972,1644542465558461428,0.225552946329,-9.07115077972,-0.0784531980753,acc,,,
973,1644542465560477495,0.313812792301,-9.35554409027,0.686465501785,acc,,,
974,1644542465562491417,0.637432217598,-10.1596889496,0.843371868134,acc,,,
975,1644542465562955379,,,,gyr,-0.00174532923847,0.0959931090474,-0.0174532923847
976,1644542465564505100,0.00980664975941,-9.75761604309,0.686465501785,acc,,,
977,1644542465566519022,0.402072638273,-9.02211761475,0.196132987738,acc,,,
978,1644542465567966938,,,,gyr,0.0,0.0942477807403,-0.00872664619237
979,1644542465568535089,0.402072638273,-10.2381420135,1.05911815166,acc,,,
980,1644542465570549011,0.343232750893,-9.58109664917,0.196132987738,acc,,,
981,1644542465572562695,0.313812792301,-9.02211761475,-0.0784531980753,acc,,,
982,1644542465572978735,,,,gyr,-0.00349065847695,0.104719758034,0.00349065847695
983,1644542465574576616,0.598205626011,-10.2185287476,0.598205626011,acc,,,
984,1644542465576590538,0.402072638273,-9.49283695221,0.294199496508,acc,,,
985,1644542465577990770,,,,gyr,0.0139626339078,0.0890117883682,-0.00174532923847
986,1644542465578604460,0.12748645246,-9.96355628967,0.951245009899,acc,,,
987,1644542465580618382,0.264779537916,-9.71838951111,0.598205626011,acc,,,
988,1644542465582632303,0.402072638273,-8.69849872589,0.176519691944,acc,,,
989,1644542465583002329,,,,gyr,-0.0104719754308,0.0349065847695,-0.00523598771542
990,1644542465584648132,0.196132987738,-9.86548995972,0.951245009899,acc,,,
991,1644542465586662054,0.264779537916,-10.1106557846,1.01989161968,acc,,,
992,1644542465588014126,,,,gyr,0.0,0.00523598771542,-0.0191986225545
993,1644542465588678122,0.470719188452,-9.53206348419,0.264779537916,acc,,,
994,1644542465590689898,0.294199496508,-9.43399715424,0.57859236002,acc,,,
995,1644542465592703819,0.598205626011,-9.67916297913,0.686465501785,acc,,,
996,1644542465593025923,,,,gyr,0.00872664619237,-0.00523598771542,-0.0296705961227
997,1644542465594719648,0.509945809841,-9.70858287811,0.402072638273,acc,,,
998,1644542465596731663,0.343232750893,-9.61051654816,0.451105892658,acc,,,
999,1644542465598037481,,,,gyr,0.00174532923847,-0.00174532923847,-0.0209439508617
1000,1644542465598747492,0.627625584602,-10.2087221146,0.421685934067,acc,,,
1001,1644542465600759506,0.313812792301,-9.56148338318,0.0980664938688,acc,,,
1002,1644542465602775335,0.421685934067,-8.84559822083,-0.12748645246,acc,,,
1003,1644542465603049278,,,,gyr,0.0,0.0,-0.00349065847695
1004,1644542465604789257,0.421685934067,-10.1596889496,0.686465501785,acc,,,
1005,1644542465606803179,0.343232750893,-10.2087221146,0.872791826725,acc,,,
1006,1644542465608061314,,,,gyr,0.00174532923847,-0.00174532923847,0.0104719754308
1007,1644542465608819008,0.558979034424,-9.17902374268,0.274586200714,acc,,,
1008,1644542465610832930,0.274586200714,-9.56148338318,0.402072638273,acc,,,
1009,1644542465612846851,0.402072638273,-10.0322027206,0.735498726368,acc,,,
1010,1644542465613073111,,,,gyr,-0.00174532923847,0.0,0.0209439508617
1011,1644542465614860773,0.196132987738,-9.38496398926,0.137293100357,acc,,,
1012,1644542465616874695,0.774725317955,-9.53206348419,0.529559075832,acc,,,
1013,1644542465618084669,,,,gyr,-0.0069813169539,0.00523598771542,0.0209439508617
1014,1644542465618888617,0.0980664938688,-9.83607006073,0.402072638273,acc,,,
1015,1644542465620902538,-0.00980664975941,-9.61051654816,0.176519691944,acc,,,
1016,1644542465622918367,0.549172401428,-9.07115077972,-0.0686465501785,acc,,,
1017,1644542465623096466,,,,gyr,-0.00872664619237,0.0174532923847,0.0139626339078
1018,1644542465624932289,0.57859236002,-10.0322027206,0.38245934248,acc,,,
1019,1644542465626946211,-0.137293100357,-10.0616226196,0.509945809841,acc,,,
1020,1644542465628108263,,,,gyr,-0.00523598771542,0.0,0.0
1021,1644542465628960133,0.343232750893,-8.59062480927,-0.402072638273,acc,,,
1022,1644542465630975962,0.313812792301,-10.2871751785,0.362846046686,acc,,,
1023,1644542465632987976,0.343232750893,-9.80665016174,-0.0294199492782,acc,,,
1024,1644542465633120060,,,,gyr,-0.0104719754308,-0.0349065847695,-0.0104719754308
1025,1644542465635003805,0.264779537916,-9.70858287811,0.666852176189,acc,,,
1026,1644542465637019873,0.451105892658,-9.53206348419,0.402072638273,acc,,,
1027,1644542465638131857,,,,gyr,0.0139626339078,-0.0645771846175,-0.0314159244299
1028,1644542465639031649,0.00980664975941,-9.56148338318,0.470719188452,acc,,,
1029,1644542465641047716,0.264779537916,-9.61051654816,0.666852176189,acc,,,
1030,1644542465643061638,0.470719188452,-9.81645679474,0.686465501785,acc,,,
1031,1644542465643143654,,,,gyr,0.0174532923847,-0.0959931090474,-0.0558505356312
1032,1644542465645075321,0.402072638273,-9.78703689575,0.402072638273,acc,,,
1033,1644542465647089243,0.196132987738,-9.48303031921,0.12748645246,acc,,,
1034,1644542465648155212,,,,gyr,0.0069813169539,-0.120427720249,-0.0785398185253
1035,1644542465649105310,0.451105892658,-9.43399715424,0.274586200714,acc,,,
1036,1644542465651119232,0.402072638273,-9.75761604309,0.196132987738,acc,,,
1037,1644542465653133154,0.313812792301,-9.88510322571,0.0784531980753,acc,,,
1038,1644542465653165102,,,,gyr,-0.00349065847695,-0.176278248429,-0.0925024524331
1039,1644542465655147076,0.529559075832,-9.31631755829,-0.57859236002,acc,,,
1040,1644542465657160997,0.637432217598,-9.35554409027,-0.166713044047,acc,,,
1041,1644542465658176661,,,,gyr,0.0,-0.197222203016,-0.104719758034
1042,1644542465659176826,0.637432217598,-10.4931154251,0.961051702499,acc,,,
1043,1644542465661190748,0.12748645246,-9.30651092529,0.529559075832,acc,,,
1044,1644542465663188696,,,,gyr,0.0296705961227,-0.179768905044,-0.0802851468325
1045,1644542465663204670,0.57859236002,-9.06134414673,0.637432217598,acc,,,
1046,1644542465665218592,0.0980664938688,-10.2185287476,0.912018418312,acc,,,
1047,1644542465667230368,0.402072638273,-9.2868976593,0.245166242123,acc,,,
1048,1644542465668200493,,,,gyr,0.00523598771542,-0.0855211317539,-0.0506145469844
1049,1644542465669246435,0.421685934067,-9.66935634613,0.38245934248,acc,,,
1050,1644542465671260357,1.13757133484,-9.98316955566,0.176519691944,acc,,,
1051,1644542465673212051,,,,gyr,0.0,-0.0226892791688,-0.0279252678156
1052,1644542465673274279,-0.774725317955,-9.99297618866,0.696272134781,acc,,,
1053,1644542465675288200,0.872791826725,-8.39449214935,-1.98094320297,acc,,,
1054,1644542465677304029,0.961051702499,-10.0125894547,0.225552946329,acc,,,
1055,1644542465678223848,,,,gyr,-0.00523598771542,-0.0558505356312,-0.0209439508617
1056,1644542465679317951,0.245166242123,-10.708861351,0.225552946329,acc,,,
1057,1644542465681331873,-0.549172401428,-8.49255847931,-0.921825051308,acc,,,
1058,1644542465683235645,,,,gyr,0.0,-0.118682384491,-0.0314159244299
1059,1644542465683345795,1.31409108639,-8.59062480927,-0.362846046686,acc,,,
1060,1644542465685361624,0.627625584602,-11.1207408905,2.05939650536,acc,,,
1061,1644542465687375546,-0.0686465501785,-9.57129001617,1.04931151867,acc,,,
1062,1644542465688247442,,,,gyr,-0.00872664619237,-0.153588980436,-0.0471238903701
1063,1644542465689391375,0.38245934248,-9.06134414673,1.22583127022,acc,,,
1064,1644542465691405296,0.529559075832,-9.56148338318,1.01008486748,acc,,,
1065,1644542465693259239,,,,gyr,0.0104719754308,-0.0890117883682,-0.0436332300305
1066,1644542465693419218,0.402072638273,-10.1596889496,1.01008486748,acc,,,
1067,1644542465695433140,0.402072638273,-9.80665016174,0.245166242123,acc,,,
1068,1644542465697447062,0.421685934067,-9.20844459534,-0.735498726368,acc,,,
1069,1644542465698271036,,,,gyr,0.00349065847695,-0.0436332300305,-0.0296705961227
1070,1644542465699460983,0.833565235138,-9.53206348419,-0.666852176189,acc,,,
1071,1644542465701474905,0.0294199492782,-9.88510322571,-0.0686465501785,acc,,,
1072,1644542465703282833,,,,gyr,0.0,-0.0715584978461,-0.0261799395084
1073,1644542465703490734,0.686465501785,-9.62032318115,-1.13757133484,acc,,,
1074,1644542465705504656,0.598205626011,-9.64974308014,-0.470719188452,acc,,,
1075,1644542465707518578,0.558979034424,-9.83607006073,0.421685934067,acc,,,
1076,1644542465708294392,,,,gyr,0.0104719754308,-0.144862323999,-0.0174532923847
1077,1644542465709532499,0.0392265990376,-9.7478094101,0.137293100357,acc,,,
1078,1644542465711546421,0.196132987738,-9.2868976593,0.0784531980753,acc,,,
1079,1644542465713306189,,,,gyr,0.0104719754308,-0.165806278586,-0.00349065847695
1080,1644542465713560343,1.31409108639,-9.38496398926,-0.529559075832,acc,,,
1081,1644542465715576172,0.264779537916,-10.2871751785,0.774725317955,acc,,,
1082,1644542465717590094,0.245166242123,-9.78703689575,0.421685934067,acc,,,
1083,1644542465718318224,,,,gyr,0.0,-0.157079637051,0.00872664619237
1084,1644542465719604015,0.00980664975941,-9.03192424774,-0.509945809841,acc,,,
1085,1644542465721617937,0.12748645246,-9.24767112732,0.0686465501785,acc,,,
1086,1644542465723329782,,,,gyr,-0.00174532923847,-0.176278248429,0.0104719754308
1087,1644542465723633766,1.04931151867,-9.83607006073,0.362846046686,acc,,,
1088,1644542465725647688,-0.176519691944,-10.3362092972,0.402072638273,acc,,,
1089,1644542465727661610,-0.0784531980753,-8.11990642548,-1.22583127022,acc,,,
1090,1644542465728341579,,,,gyr,-0.0104719754308,-0.158824965358,0.0069813169539
1091,1644542465729677439,1.86326348782,-10.6107950211,0.343232750893,acc,,,
1092,1644542465731691360,-1.16699135303,-10.3852424622,0.725692093372,acc,,,
1093,1644542465733353376,,,,gyr,0.0,-0.167551606894,0.0104719754308
1094,1644542465733705282,1.04931151867,-8.03164577484,-0.245166242123,acc,,,
1095,1644542465735721111,0.696272134781,-10.3656291962,1.08853816986,acc,,,
1096,1644542465737733126,0.225552946329,-11.0422878265,1.24544453621,acc,,,
1097,1644542465738364935,,,,gyr,0.00523598771542,-0.132645025849,0.0209439508617
1098,1644542465739747047,-0.0392265990376,-7.61976671219,-0.764918684959,acc,,,
1099,1644542465741762877,0.549172401428,-9.1299905777,0.57859236002,acc,,,
1100,1644542465743376970,,,,gyr,0.0,-0.0785398185253,0.0418879017234
1101,1644542465743776798,0.882598459721,-11.3659067154,1.08853816986,acc,,,
1102,1644542465745788813,-0.0784531980753,-9.38496398926,-0.00980664975941,acc,,,
1103,1644542465747804642,0.725692093372,-8.69849872589,-0.696272134781,acc,,,
1104,1644542465748388767,,,,gyr,0.0069813169539,-0.0558505356312,0.0558505356312
1105,1644542465749818563,0.225552946329,-10.5911817551,1.42196416855,acc,,,
1106,1644542465751832485,0.451105892658,-9.49283695221,-0.421685934067,acc,,,
1107,1644542465753400326,,,,gyr,-0.00523598771542,-0.0418879017234,0.069813169539
1108,1644542465753848314,0.764918684959,-8.92405128479,0.313812792301,acc,,,
1109,1644542465755862236,0.402072638273,-10.3165950775,1.01008486748,acc,,,
1110,1644542465757876158,0.57859236002,-9.66935634613,0.176519691944,acc,,,
1111,1644542465758410215,,,,gyr,-0.00349065847695,0.0191986225545,0.0942477807403
1112,1644542465759891987,0.362846046686,-9.07115077972,0.402072638273,acc,,,
1113,1644542465761905909,0.294199496508,-10.1400756836,0.872791826725,acc,,,
1114,1644542465763421774,,,,gyr,-0.00523598771542,0.0506145469844,0.11344639957
1115,1644542465763919830,0.402072638273,-9.35554409027,0.0980664938688,acc,,,
1116,1644542465765935898,0.666852176189,-9.35554409027,0.274586200714,acc,,,
1117,1644542465767949820,0.137293100357,-10.2381420135,0.509945809841,acc,,,
1118,1644542465768433809,,,,gyr,-0.0069813169539,0.0872664600611,0.132645025849
1119,1644542465769961596,0.598205626011,-9.21825122833,-0.0686465501785,acc,,,
1120,1644542465771977425,0.313812792301,-9.70858287811,-0.137293100357,acc,,,
1121,1644542465773445606,,,,gyr,0.0069813169539,0.104719758034,0.144862323999
1122,1644542465773991346,0.509945809841,-9.66935634613,-0.264779537916,acc,,,
1123,1644542465776005268,0.166713044047,-8.85540485382,-0.735498726368,acc,,,
1124,1644542465778021336,0.294199496508,-9.81645679474,0.990471601486,acc,,,
1125,1644542465778457165,,,,gyr,0.00349065847695,0.0680678412318,0.141371667385
1126,1644542465780035257,0.0392265990376,-10.2381420135,1.17679798603,acc,,,
1127,1644542465782049179,0.764918684959,-9.35554409027,0.225552946329,acc,,,
1128,1644542465783468962,,,,gyr,0.0104719754308,0.0558505356312,0.130899697542
1129,1644542465784063101,0.0294199492782,-9.17902374268,-0.0392265990376,acc,,,
1130,1644542465786078930,0.598205626011,-9.67916297913,0.509945809841,acc,,,
1131,1644542465788090706,-0.00980664975941,-10.2381420135,0.166713044047,acc,,,
1132,1644542465788480759,,,,gyr,0.00174532923847,0.0610865242779,0.11344639957
1133,1644542465790106773,0.264779537916,-9.24767112732,-0.362846046686,acc,,,
1134,1644542465792120695,0.166713044047,-9.38496398926,-0.0686465501785,acc,,,
1135,1644542465793492794,,,,gyr,0.0,0.0471238903701,0.0925024524331
1136,1644542465794134617,0.666852176189,-9.70858287811,-0.313812792301,acc,,,
1137,1644542465796148539,0.196132987738,-10.2381420135,-0.12748645246,acc,,,
1138,1644542465798164368,0.0980664938688,-9.15941047668,0.12748645246,acc,,,
1139,1644542465798504353,,,,gyr,-0.0104719754308,-0.0104719754308,0.0680678412318
1140,1644542465800178289,0.313812792301,-9.25747776031,-0.313812792301,acc,,,
1141,1644542465802194118,0.421685934067,-9.78703689575,0.264779537916,acc,,,
1142,1644542465803516150,,,,gyr,-0.00174532923847,-0.0261799395084,0.0645771846175
1143,1644542465804208040,0.176519691944,-9.7478094101,0.343232750893,acc,,,
1144,1644542465806221962,0.509945809841,-9.53206348419,-0.872791826725,acc,,,
1145,1644542465808235884,0.451105892658,-9.48303031921,-0.402072638273,acc,,,
1146,1644542465808527946,,,,gyr,-0.00349065847695,-0.0104719754308,0.0610865242779
1147,1644542465810249805,0.0,-9.57129001617,-0.0294199492782,acc,,,
1148,1644542465812265635,0.402072638273,-9.70858287811,0.490332484245,acc,,,
1149,1644542465813539505,,,,gyr,-0.0139626339078,-0.00349065847695,0.0645771846175
1150,1644542465814277649,0.0686465501785,-9.48303031921,0.0294199492782,acc,,,
1151,1644542465816293478,0.166713044047,-9.56148338318,1.08853816986,acc,,,
1152,1644542465818307400,0.598205626011,-9.96355628967,0.598205626011,acc,,,
1153,1644542465818551540,,,,gyr,0.00174532923847,0.0174532923847,0.0610865242779
1154,1644542465820321321,0.38245934248,-9.16921710968,-0.137293100357,acc,,,
1155,1644542465822337151,0.0784531980753,-9.43399715424,0.0,acc,,,
1156,1644542465823563337,,,,gyr,0.0,0.0279252678156,0.0471238903701
1157,1644542465824351072,0.137293100357,-10.1204624176,0.421685934067,acc,,,
1158,1644542465826363087,0.245166242123,-9.57129001617,-0.804145276546,acc,,,
1159,1644542465828378916,0.313812792301,-9.43399715424,-0.245166242123,acc,,,
1160,1644542465828574896,,,,gyr,0.0069813169539,0.00349065847695,0.0383972451091
1161,1644542465830392838,0.343232750893,-9.75761604309,0.833565235138,acc,,,
1162,1644542465832408667,0.343232750893,-9.53206348419,0.343232750893,acc,,,
1163,1644542465833586693,,,,gyr,0.0,-0.0226892791688,0.0139626339078
1164,1644542465834422588,0.313812792301,-9.61051654816,0.490332484245,acc,,,
1165,1644542465836436510,0.313812792301,-9.56148338318,0.294199496508,acc,,,
1166,1644542465838450432,0.362846046686,-9.7478094101,0.598205626011,acc,,,
1167,1644542465838598490,,,,gyr,0.0,-0.0139626339078,0.00349065847695
1168,1644542465840466261,0.362846046686,-9.81645679474,0.470719188452,acc,,,
1169,1644542465842480183,0.264779537916,-9.39477062225,0.0686465501785,acc,,,
1170,1644542465843610287,,,,gyr,-0.00349065847695,-0.00174532923847,-0.00523598771542
1171,1644542465844494104,0.343232750893,-9.62032318115,0.0980664938688,acc,,,
1172,1644542465846508026,0.225552946329,-9.56148338318,0.362846046686,acc,,,
1173,1644542465848521948,0.38245934248,-9.80665016174,0.0,acc,,,
1174,1644542465848620176,,,,gyr,-0.00349065847695,0.0174532923847,-0.00174532923847
1175,1644542465850537777,0.451105892658,-9.99297618866,0.313812792301,acc,,,
1176,1644542465852549791,0.245166242123,-9.62032318115,0.0784531980753,acc,,,
1177,1644542465853631735,,,,gyr,-0.0104719754308,0.0139626339078,0.0
1178,1644542465854565620,0.402072638273,-8.95347118378,-0.549172401428,acc,,,
1179,1644542465856579542,0.313812792301,-9.64974308014,0.402072638273,acc,,,
1180,1644542465858595371,0.294199496508,-9.88510322571,0.666852176189,acc,,,
1181,1644542465858643532,,,,gyr,0.0,0.00872664619237,0.00872664619237
1182,1644542465860609293,0.166713044047,-9.96355628967,0.529559075832,acc,,,
1183,1644542465862623215,0.176519691944,-9.02211761475,-0.12748645246,acc,,,
1184,1644542465863655329,,,,gyr,0.00349065847695,0.0,0.00523598771542
1185,1644542465864637136,0.402072638273,-9.09076404572,-0.0686465501785,acc,,,
1186,1644542465866653204,0.196132987738,-10.669634819,1.24544453621,acc,,,
1187,1644542465868666887,0.176519691944,-9.66935634613,-0.0392265990376,acc,,,
1188,1644542465868666887,,,,gyr,0.00523598771542,0.00349065847695,0.00174532923847
1189,1644542465870680809,0.137293100357,-9.1201839447,-0.0784531980753,acc,,,
1190,1644542465872694731,0.196132987738,-9.21825122833,-0.225552946329,acc,,,
1191,1644542465873678923,,,,gyr,-0.0139626339078,-0.0104719754308,-0.00523598771542
1192,1644542465874711037,0.0980664938688,-9.94394302368,0.402072638273,acc,,,
1193,1644542465876724958,0.12748645246,-10.4636955261,0.882598459721,acc,,,
1194,1644542465878690720,,,,gyr,0.0,-0.0296705961227,-0.0104719754308
1195,1644542465878740788,0.12748645246,-9.62032318115,0.12748645246,acc,,,
1196,1644542465880754709,0.666852176189,-8.99269771576,-0.57859236002,acc,,,
1197,1644542465882768631,0.804145276546,-9.24767112732,-0.0392265990376,acc,,,
1198,1644542465883702278,,,,gyr,-0.0104719754308,-0.0383972451091,-0.0139626339078
1199,1644542465884784460,0.313812792301,-10.73828125,1.17679798603,acc,,,
1200,1644542465886798382,0.274586200714,-9.57129001617,0.38245934248,acc,,,
1201,1644542465888714075,,,,gyr,0.0139626339078,-0.0523598790169,-0.0349065847695
1202,1644542465888814211,0.294199496508,-9.31631755829,0.294199496508,acc,,,
1203,1644542465890828133,0.362846046686,-9.75761604309,0.264779537916,acc,,,
1204,1644542465892842054,0.362846046686,-9.49283695221,0.0392265990376,acc,,,
1205,1644542465893726110,,,,gyr,-0.00523598771542,-0.0523598790169,-0.0418879017234
1206,1644542465894855976,0.225552946329,-10.0910425186,0.313812792301,acc,,,
1207,1644542465896869898,0.549172401428,-9.45361042023,-0.0686465501785,acc,,,
1208,1644542465898737907,,,,gyr,-0.00174532923847,-0.0523598790169,-0.0436332300305
1209,1644542465898883820,0.00980664975941,-9.42419052124,0.0,acc,,,
1210,1644542465900899649,0.362846046686,-9.58109664917,0.12748645246,acc,,,
1211,1644542465902913570,0.225552946329,-9.58109664917,-0.245166242123,acc,,,
1212,1644542465903749466,,,,gyr,-0.00349065847695,-0.0523598790169,-0.0436332300305
1213,1644542465904927492,1.01989161968,-8.80637168884,-0.774725317955,acc,,,
1214,1644542465906943321,0.313812792301,-10.9148015976,0.627625584602,acc,,,
1215,1644542465908761263,,,,gyr,-0.00872664619237,-0.069813169539,-0.0436332300305
1216,1644542465908955336,0.196132987738,-9.1201839447,-0.804145276546,acc,,,
1217,1644542465910971165,0.137293100357,-9.67916297913,0.529559075832,acc,,,
1218,1644542465912985086,0.549172401428,-9.21825122833,1.08853816986,acc,,,
1219,1644542465913773060,,,,gyr,0.00523598771542,-0.069813169539,-0.0436332300305
1220,1644542465915000916,0.166713044047,-10.3852424622,1.55925726891,acc,,,
1221,1644542465917014837,0.529559075832,-9.56148338318,0.490332484245,acc,,,
1222,1644542465918784857,,,,gyr,0.00349065847695,-0.0139626339078,-0.0436332300305
1223,1644542465919028759,0.421685934067,-9.66935634613,0.637432217598,acc,,,
1224,1644542465921042681,0.294199496508,-9.91452312469,0.402072638273,acc,,,
1225,1644542465923056602,0.343232750893,-9.38496398926,-0.0980664938688,acc,,,
1226,1644542465923796654,,,,gyr,-0.0139626339078,0.0174532923847,-0.0383972451091
1227,1644542465925070524,0.402072638273,-9.75761604309,-0.0784531980753,acc,,,
1228,1644542465927086353,0.294199496508,-9.80665016174,0.0,acc,,,
1229,1644542465928808451,,,,gyr,0.0,-0.0104719754308,-0.0471238903701
1230,1644542465929098368,0.402072638273,-9.30651092529,-0.166713044047,acc,,,
1231,1644542465931114197,0.38245934248,-9.66935634613,0.274586200714,acc,,,
1232,1644542465933128119,0.343232750893,-9.57129001617,0.12748645246,acc,,,
1233,1644542465933820009,,,,gyr,-0.0069813169539,-0.0785398185253,-0.0506145469844
1234,1644542465935143948,0.38245934248,-9.7478094101,0.529559075832,acc,,,
1235,1644542465937157869,0.196132987738,-9.98316955566,0.529559075832,acc,,,
1236,1644542465938832045,,,,gyr,-0.0069813169539,-0.0785398185253,-0.0593411922455
1237,1644542465939171791,0.627625584602,-9.16921710968,0.0,acc,,,
1238,1644542465941185713,0.176519691944,-9.78703689575,0.490332484245,acc,,,
1239,1644542465943201542,0.627625584602,-9.78703689575,0.558979034424,acc,,,
1240,1644542465943843842,,,,gyr,-0.00174532923847,-0.0680678412318,-0.0593411922455
1241,1644542465945215464,0.225552946329,-10.0322027206,0.813951909542,acc,,,
1242,1644542465947227478,0.451105892658,-9.20844459534,0.0392265990376,acc,,,
1243,1644542465948853493,,,,gyr,0.0069813169539,-0.0418879017234,-0.0523598790169
1244,1644542465949243307,0.294199496508,-9.70858287811,0.509945809841,acc,,,
1245,1644542465951257229,0.833565235138,-9.42419052124,0.0,acc,,,
1246,1644542465953271151,0.0392265990376,-9.7478094101,0.0,acc,,,
1247,1644542465953867197,,,,gyr,0.0069813169539,-0.0226892791688,-0.0506145469844
1248,1644542465955287218,0.470719188452,-10.0420093536,0.421685934067,acc,,,
1249,1644542465957298994,0.402072638273,-9.35554409027,-0.245166242123,acc,,,
1250,1644542465958876848,,,,gyr,-0.00174532923847,-0.0436332300305,-0.0383972451091
1251,1644542465959314823,0.529559075832,-9.94394302368,0.627625584602,acc,,,
1252,1644542465961330891,0.38245934248,-9.98316955566,0.686465501785,acc,,,
1253,1644542465963344812,0.245166242123,-9.1299905777,0.313812792301,acc,,,
1254,1644542465963888645,,,,gyr,-0.00174532923847,-0.0645771846175,-0.0314159244299
1255,1644542465965358734,0.294199496508,-9.83607006073,0.686465501785,acc,,,
1256,1644542465967372656,0.470719188452,-10.2381420135,0.598205626011,acc,,,
1257,1644542465968900681,,,,gyr,-0.00174532923847,-0.0139626339078,-0.0174532923847
1258,1644542465969386578,0.882598459721,-9.38496398926,0.0784531980753,acc,,,
1259,1644542465971400499,-0.0392265990376,-9.67916297913,0.470719188452,acc,,,
1260,1644542465973416328,0.696272134781,-9.49283695221,0.38245934248,acc,,,
1261,1644542465973912239,,,,gyr,0.0,0.0436332300305,0.0
1262,1644542465975430250,0.402072638273,-9.94394302368,0.38245934248,acc,,,
1263,1644542465977442026,0.57859236002,-8.92405128479,-0.509945809841,acc,,,
1264,1644542465978924036,,,,gyr,-0.0104719754308,0.0506145469844,0.0139626339078
1265,1644542465979458094,0.166713044047,-10.0910425186,0.725692093372,acc,,,
1266,1644542465981473923,0.176519691944,-9.48303031921,0.549172401428,acc,,,
1267,1644542465983485937,0.951245009899,-9.49283695221,-0.12748645246,acc,,,
1268,1644542465983935833,,,,gyr,-0.00174532923847,0.069813169539,0.0261799395084
1269,1644542465985501766,0.137293100357,-10.3165950775,0.696272134781,acc,,,
1270,1644542465987515688,0.696272134781,-8.38468551636,-0.921825051308,acc,,,
1271,1644542465988947868,,,,gyr,-0.0104719754308,0.0750491544604,0.0349065847695
1272,1644542465989529610,0.0,-10.0125894547,0.833565235138,acc,,,
1273,1644542465991543531,0.951245009899,-9.57129001617,-0.0294199492782,acc,,,
1274,1644542465993557453,-0.176519691944,-9.94394302368,0.176519691944,acc,,,
1275,1644542465993959427,,,,gyr,0.0,0.0645771846175,0.0418879017234
1276,1644542465995573282,0.598205626011,-9.5222568512,0.38245934248,acc,,,
1277,1644542465997587204,0.362846046686,-10.0910425186,0.509945809841,acc,,,
1278,1644542465998971224,,,,gyr,0.0069813169539,0.0279252678156,0.0261799395084
1279,1644542465999601126,0.402072638273,-9.2868976593,0.0980664938688,acc,,,
1280,1644542466001615047,0.0294199492782,-9.64974308014,0.196132987738,acc,,,
1281,1644542466003630877,0.402072638273,-9.70858287811,0.176519691944,acc,,,
1282,1644542466003983021,,,,gyr,-0.00349065847695,-0.0139626339078,0.0069813169539
1283,1644542466005642891,0.362846046686,-9.67916297913,-0.509945809841,acc,,,
1284,1644542466007656813,0.0294199492782,-9.43399715424,-0.137293100357,acc,,,
1285,1644542466008994579,,,,gyr,-0.0104719754308,-0.0767944902182,-0.0104719754308
1286,1644542466009672642,0.402072638273,-9.71838951111,0.598205626011,acc,,,
1287,1644542466011686563,0.402072638273,-9.49283695221,0.549172401428,acc,,,
1288,1644542466013700485,0.362846046686,-9.71838951111,0.725692093372,acc,,,
1289,1644542466014006615,,,,gyr,-0.00523598771542,-0.0959931090474,-0.0418879017234
1290,1644542466015714407,0.12748645246,-9.62032318115,0.558979034424,acc,,,
1291,1644542466017728329,0.598205626011,-9.38496398926,0.421685934067,acc,,,
1292,1644542466019018412,,,,gyr,-0.0069813169539,-0.0715584978461,-0.0471238903701
1293,1644542466019742250,0.343232750893,-10.0910425186,0.490332484245,acc,,,
1294,1644542466021754265,0.0784531980753,-9.1201839447,0.0294199492782,acc,,,
1295,1644542466023770094,0.666852176189,-9.70858287811,0.0784531980753,acc,,,
1296,1644542466024029970,,,,gyr,-0.00349065847695,-0.0349065847695,-0.0418879017234
1297,1644542466025785923,0.725692093372,-10.2087221146,0.490332484245,acc,,,
1298,1644542466027799845,0.264779537916,-9.75761604309,0.225552946329,acc,,,
1299,1644542466029041767,,,,gyr,0.0,-0.0174532923847,-0.0349065847695
1300,1644542466029811859,0.225552946329,-9.02211761475,-0.343232750893,acc,,,
1301,1644542466031827688,0.725692093372,-9.75761604309,0.637432217598,acc,,,
1302,1644542466033841610,0.264779537916,-10.2087221146,0.666852176189,acc,,,
1303,1644542466034053802,,,,gyr,-0.00872664619237,-0.0104719754308,-0.0139626339078
1304,1644542466035855532,0.637432217598,-9.57129001617,-0.0392265990376,acc,,,
1305,1644542466037869453,0.598205626011,-9.5222568512,0.12748645246,acc,,,
1306,1644542466039065361,,,,gyr,-0.0139626339078,0.00872664619237,0.00349065847695
1307,1644542466039885283,0.137293100357,-9.98316955566,0.637432217598,acc,,,
1308,1644542466041899204,0.57859236002,-9.42419052124,0.196132987738,acc,,,
1309,1644542466043913126,0.166713044047,-10.1400756836,0.961051702499,acc,,,
1310,1644542466044075251,,,,gyr,0.00174532923847,0.00174532923847,0.00872664619237
1311,1644542466045927048,0.490332484245,-8.65927219391,-0.196132987738,acc,,,
1312,1644542466047940969,0.294199496508,-9.62032318115,0.872791826725,acc,,,
1313,1644542466049086809,,,,gyr,-0.00523598771542,0.0139626339078,0.0209439508617
1314,1644542466049954891,0.294199496508,-10.2969818115,1.01989161968,acc,,,
1315,1644542466051968813,0.774725317955,-9.38496398926,0.0,acc,,,
1316,1644542466053984642,0.264779537916,-9.38496398926,0.362846046686,acc,,,
1317,1644542466054098606,,,,gyr,-0.00523598771542,0.0349065847695,0.0191986225545
1318,1644542466055998564,0.343232750893,-10.4440822601,0.813951909542,acc,,,
1319,1644542466058012486,0.313812792301,-9.48303031921,0.274586200714,acc,,,
1320,1644542466059110641,,,,gyr,0.00174532923847,0.0383972451091,0.0279252678156
1321,1644542466060026407,0.813951909542,-8.99269771576,0.0,acc,,,
1322,1644542466062040329,0.196132987738,-10.1891088486,0.725692093372,acc,,,
1323,1644542466064056158,0.509945809841,-9.5222568512,0.343232750893,acc,,,
1324,1644542466064122200,,,,gyr,-0.00872664619237,0.0558505356312,0.0349065847695
1325,1644542466066070080,0.294199496508,-9.38496398926,0.313812792301,acc,,,
1326,1644542466068084002,0.470719188452,-9.88510322571,0.529559075832,acc,,,
1327,1644542466069133997,,,,gyr,0.0,0.0523598790169,0.0436332300305
1328,1644542466070097923,0.57859236002,-10.0420093536,0.0980664938688,acc,,,
1329,1644542466072111845,0.38245934248,-8.94366455078,-0.137293100357,acc,,,
1330,1644542466074127913,0.313812792301,-9.96355628967,0.735498726368,acc,,,
1331,1644542466074145794,,,,gyr,0.00872664619237,0.0418879017234,0.0471238903701
1332,1644542466076141834,0.274586200714,-9.81645679474,0.38245934248,acc,,,
1333,1644542466078155518,0.402072638273,-9.49283695221,0.402072638273,acc,,,
1334,1644542466079157352,,,,gyr,0.00872664619237,0.0296705961227,0.0436332300305
1335,1644542466080169439,0.470719188452,-9.64974308014,0.402072638273,acc,,,
1336,1644542466082185507,0.362846046686,-9.71838951111,0.402072638273,acc,,,
1337,1644542466084169388,,,,gyr,0.0,0.0261799395084,0.0296705961227
1338,1644542466084199429,0.402072638273,-9.45361042023,0.764918684959,acc,,,
1339,1644542466086213350,0.57859236002,-9.42419052124,0.196132987738,acc,,,
1340,1644542466088227272,0.549172401428,-10.1106557846,0.225552946329,acc,,,
1341,1644542466089181185,,,,gyr,0.00349065847695,0.0191986225545,0.0226892791688
1342,1644542466090241194,0.470719188452,-9.56148338318,0.343232750893,acc,,,
1343,1644542466092257023,0.362846046686,-9.21825122833,0.343232750893,acc,,,
1344,1644542466094192982,,,,gyr,0.00174532923847,0.0069813169539,0.0209439508617
1345,1644542466094270945,0.402072638273,-10.2185287476,0.598205626011,acc,,,
1346,1644542466096284866,0.38245934248,-9.24767112732,-0.12748645246,acc,,,
1347,1644542466098298788,0.274586200714,-9.2868976593,0.0784531980753,acc,,,
1348,1644542466099204540,,,,gyr,-0.0069813169539,-0.0104719754308,0.00174532923847
1349,1644542466100312710,0.313812792301,-10.1106557846,0.637432217598,acc,,,
1350,1644542466102328539,0.245166242123,-9.83607006073,0.137293100357,acc,,,
1351,1644542466104216576,,,,gyr,-0.00174532923847,-0.069813169539,-0.0209439508617
1352,1644542466104340553,0.274586200714,-9.20844459534,0.0392265990376,acc,,,
1353,1644542466106356382,0.362846046686,-9.86548995972,0.774725317955,acc,,,
1354,1644542466108370304,0.274586200714,-9.67916297913,0.921825051308,acc,,,
1355,1644542466109228373,,,,gyr,0.0,-0.102974422276,-0.0296705961227
1356,1644542466110384226,0.225552946329,-9.43399715424,0.686465501785,acc,,,
1357,1644542466112398148,0.490332484245,-9.8949098587,0.362846046686,acc,,,
1358,1644542466114239931,,,,gyr,-0.0104719754308,-0.0977384373546,-0.0349065847695
1359,1644542466114412069,0.264779537916,-9.53206348419,-0.0686465501785,acc,,,
1360,1644542466116427898,0.225552946329,-9.58109664917,0.402072638273,acc,,,
1361,1644542466118441820,0.0392265990376,-9.66935634613,0.274586200714,acc,,,
1362,1644542466119251728,,,,gyr,-0.00523598771542,-0.0872664600611,-0.0209439508617
1363,1644542466120455742,0.313812792301,-9.5222568512,0.0,acc,,,
1364,1644542466122469664,0.245166242123,-9.67916297913,0.0392265990376,acc,,,
1365,1644542466124263763,,,,gyr,-0.0139626339078,-0.0750491544604,-0.0069813169539
1366,1644542466124483585,0.245166242123,-9.56148338318,0.529559075832,acc,,,
1367,1644542466126497507,0.274586200714,-9.53206348419,0.38245934248,acc,,,
1368,1644542466128511429,0.402072638273,-9.8949098587,0.529559075832,acc,,,
1369,1644542466129275322,,,,gyr,0.00174532923847,-0.0471238903701,0.0069813169539
1370,1644542466130525351,0.274586200714,-9.49283695221,0.529559075832,acc,,,
1371,1644542466132541180,0.274586200714,-9.49283695221,0.264779537916,acc,,,
1372,1644542466134287119,,,,gyr,0.00523598771542,-0.0349065847695,0.0226892791688
1373,1644542466134553194,0.38245934248,-9.64974308014,0.196132987738,acc,,,
1374,1644542466136569023,0.38245934248,-9.91452312469,0.558979034424,acc,,,
1375,1644542466138581038,0.313812792301,-8.94366455078,-0.196132987738,acc,,,
1376,1644542466139298916,,,,gyr,-0.0069813169539,-0.0174532923847,0.0418879017234
1377,1644542466140596867,0.402072638273,-10.3362092972,0.912018418312,acc,,,
1378,1644542466142608643,0.274586200714,-9.07115077972,-0.00980664975941,acc,,,
1379,1644542466144308567,,,,gyr,0.0,0.0069813169539,0.0523598790169
1380,1644542466144624710,0.402072638273,-9.96355628967,0.833565235138,acc,,,
1381,1644542466146638632,0.421685934067,-9.8949098587,0.176519691944,acc,,,
1382,1644542466148652554,0.343232750893,-9.38496398926,0.313812792301,acc,,,
1383,1644542466149320602,,,,gyr,-0.00174532923847,0.0436332300305,0.0645771846175
1384,1644542466150666475,0.451105892658,-9.80665016174,0.666852176189,acc,,,
1385,1644542466152682304,0.470719188452,-9.66935634613,0.38245934248,acc,,,
1386,1644542466154332161,,,,gyr,-0.00349065847695,0.0645771846175,0.0785398185253
1387,1644542466154696226,0.470719188452,-9.15941047668,0.38245934248,acc,,,
1388,1644542466156710148,0.558979034424,-10.2969818115,0.912018418312,acc,,,
1389,1644542466158722162,0.402072638273,-8.99269771576,-0.264779537916,acc,,,
1390,1644542466159343958,,,,gyr,-0.0069813169539,0.0872664600611,0.0872664600611
1391,1644542466160737991,0.558979034424,-10.2675619125,0.813951909542,acc,,,
1392,1644542466162751913,0.57859236002,-9.1201839447,0.343232750893,acc,,,
1393,1644542466164355755,,,,gyr,0.00349065847695,0.101229093969,0.0925024524331
1394,1644542466164765835,0.598205626011,-10.1596889496,0.961051702499,acc,,,
1395,1644542466166779757,0.490332484245,-9.30651092529,0.313812792301,acc,,,
1396,1644542466168795586,0.637432217598,-9.67916297913,0.421685934067,acc,,,
1397,1644542466169367790,,,,gyr,-0.00872664619237,0.137881010771,0.0977384373546
1398,1644542466170809507,0.637432217598,-9.83607006073,0.912018418312,acc,,,
1399,1644542466172823429,0.696272134781,-9.35554409027,0.725692093372,acc,,,
1400,1644542466174379349,,,,gyr,0.00349065847695,0.183259576559,0.101229093969
1401,1644542466174837351,0.735498726368,-9.71838951111,0.951245009899,acc,,,
1402,1644542466176851273,0.833565235138,-9.78703689575,0.264779537916,acc,,,
1403,1644542466178863049,0.833565235138,-9.67916297913,-0.00980664975941,acc,,,
1404,1644542466179391146,,,,gyr,-0.0104719754308,0.235619440675,0.0959931090474
1405,1644542466180876970,0.451105892658,-9.16921710968,-0.0980664938688,acc,,,
1406,1644542466182892799,0.549172401428,-9.94394302368,0.951245009899,acc,,,
1407,1644542466184402943,,,,gyr,-0.0191986225545,0.237364768982,0.0925024524331
1408,1644542466184906721,0.421685934067,-9.02211761475,0.627625584602,acc,,,
1409,1644542466186920643,0.686465501785,-10.5911817551,1.42196416855,acc,,,
1410,1644542466188934565,0.735498726368,-9.02211761475,-0.00980664975941,acc,,,
1411,1644542466189414501,,,,gyr,0.0139626339078,0.237364768982,0.0680678412318
1412,1644542466190948248,0.362846046686,-9.99297618866,0.225552946329,acc,,,
1413,1644542466192964077,0.274586200714,-9.62032318115,0.225552946329,acc,,,
1414,1644542466194426060,,,,gyr,-0.00349065847695,0.23212878406,0.0523598790169
1415,1644542466194976091,0.245166242123,-9.34573745728,-0.12748645246,acc,,,
1416,1644542466196990013,-0.0686465501785,-9.25747776031,0.549172401428,acc,,,
1417,1644542466199005842,0.176519691944,-10.4636955261,1.01989161968,acc,,,
1418,1644542466199437857,,,,gyr,0.0104719754308,0.171042263508,0.0191986225545
1419,1644542466201017618,0.245166242123,-9.1201839447,0.00980664975941,acc,,,
1420,1644542466203031540,0.225552946329,-9.75761604309,-0.245166242123,acc,,,
1421,1644542466204449415,,,,gyr,0.0069813169539,0.130899697542,-0.0104719754308
1422,1644542466205047369,0.196132987738,-9.56148338318,0.490332484245,acc,,,
1423,1644542466207061291,0.343232750893,-9.62032318115,0.627625584602,acc,,,
1424,1644542466209077120,0.0686465501785,-9.94394302368,0.990471601486,acc,,,
1425,1644542466209461212,,,,gyr,0.0,0.0802851468325,-0.0349065847695
1426,1644542466211088896,0.166713044047,-9.2868976593,0.490332484245,acc,,,
1427,1644542466213102818,0.12748645246,-9.62032318115,0.470719188452,acc,,,
1428,1644542466214472771,,,,gyr,-0.0139626339078,0.0279252678156,-0.0506145469844
1429,1644542466215116739,0.00980664975941,-10.0616226196,0.529559075832,acc,,,
1430,1644542466217130661,-0.0294199492782,-9.15941047668,0.313812792301,acc,,,
1431,1644542466219146490,0.137293100357,-9.66935634613,0.509945809841,acc,,,
1432,1644542466219484329,,,,gyr,-0.00349065847695,-0.00523598771542,-0.0506145469844
1433,1644542466221160173,0.294199496508,-9.75761604309,0.225552946329,acc,,,
1434,1644542466223172426,0.362846046686,-9.39477062225,-0.0686465501785,acc,,,
1435,1644542466224496365,,,,gyr,0.00523598771542,-0.0261799395084,-0.0436332300305
1436,1644542466225188255,0.451105892658,-9.71838951111,0.0980664938688,acc,,,
1437,1644542466227202415,0.402072638273,-9.53206348419,-0.313812792301,acc,,,
1438,1644542466229216337,0.362846046686,-9.62032318115,-0.0980664938688,acc,,,
1439,1644542466229508400,,,,gyr,-0.00349065847695,-0.0349065847695,-0.0314159244299
1440,1644542466231230259,0.245166242123,-9.21825122833,0.0294199492782,acc,,,
1441,1644542466233246326,0.313812792301,-10.3852424622,1.33370435238,acc,,,
1442,1644542466234520197,,,,gyr,-0.0069813169539,-0.0523598790169,-0.0139626339078
1443,1644542466235260248,0.176519691944,-9.31631755829,0.490332484245,acc,,,
1444,1644542466237274408,0.274586200714,-9.67916297913,0.843371868134,acc,,,
1445,1644542466239288330,0.362846046686,-10.0420093536,0.813951909542,acc,,,
1446,1644542466239532471,,,,gyr,0.0,-0.0069813169539,0.0139626339078
1447,1644542466241302490,0.196132987738,-8.84559822083,0.0392265990376,acc,,,
1448,1644542466243316412,0.529559075832,-10.4440822601,0.686465501785,acc,,,
1449,1644542466244542599,,,,gyr,0.00349065847695,0.0436332300305,0.0436332300305
1450,1644542466245332479,0.509945809841,-8.80637168884,0.274586200714,acc,,,
1451,1644542466247346401,0.558979034424,-10.3950490952,1.45138418674,acc,,,
1452,1644542466249360561,0.57859236002,-8.92405128479,0.245166242123,acc,,,
1453,1644542466249554396,,,,gyr,-0.00523598771542,0.11344639957,0.069813169539
1454,1644542466251374483,0.558979034424,-10.3656291962,0.764918684959,acc,,,
1455,1644542466253388405,0.549172401428,-8.85540485382,-0.402072638273,acc,,,
1456,1644542466254566431,,,,gyr,-0.0104719754308,0.179768905044,0.0977384373546
1457,1644542466255402565,0.598205626011,-9.98316955566,0.38245934248,acc,,,
1458,1644542466257418394,0.725692093372,-9.86548995972,0.627625584602,acc,,,
1459,1644542466259432554,0.598205626011,-9.70858287811,0.00980664975941,acc,,,
1460,1644542466259578705,,,,gyr,-0.0069813169539,0.237364768982,0.122173048556
1461,1644542466261446476,0.470719188452,-9.7478094101,0.0686465501785,acc,,,
1462,1644542466263460636,0.813951909542,-9.66935634613,0.0784531980753,acc,,,
1463,1644542466264590502,,,,gyr,-0.0349065847695,0.30194196105,0.144862323999
1464,1644542466265474558,0.961051702499,-9.66935634613,-0.166713044047,acc,,,
1465,1644542466267490625,0.57859236002,-9.49283695221,0.0,acc,,,
1466,1644542466269504547,0.196132987738,-9.98316955566,0.0,acc,,,
1467,1644542466269602537,,,,gyr,-0.0296705961227,0.333357870579,0.150098308921
1468,1644542466271518469,-5.86437654495,-10.5911817551,1.61809718609,acc,,,
1469,1644542466273532629,0.558979034424,-8.16893959045,0.764918684959,acc,,,
1470,1644542466274614811,,,,gyr,-0.120427720249,0.331612557173,0.171042263508
1471,1644542466275548697,0.490332484245,-9.53206348419,0.951245009899,acc,,,
1472,1644542466277562857,0.402072638273,-10.0616226196,1.05911815166,acc,,,
1473,1644542466279576778,0.666852176189,-9.67916297913,1.20621788502,acc,,,
1474,1644542466279626608,,,,gyr,-0.0942477807403,0.431096315384,0.191986218095
1475,1644542466281590939,0.529559075832,-10.2969818115,0.696272134781,acc,,,
1476,1644542466283604622,-0.274586200714,-9.94394302368,0.402072638273,acc,,,
1477,1644542466284638643,,,,gyr,-0.0872664600611,0.448549628258,0.197222203016
1478,1644542466285620928,0.57859236002,-9.17902374268,0.313812792301,acc,,,
1479,1644542466287632704,0.00980664975941,-10.1204624176,0.137293100357,acc,,,
1480,1644542466289646626,0.529559075832,-9.78703689575,-0.451105892658,acc,,,
1481,1644542466289650917,,,,gyr,-0.272271364927,0.375245779753,0.158824965358
1482,1644542466291660786,0.38245934248,-9.20844459534,-0.509945809841,acc,,,
1483,1644542466293676853,0.421685934067,-9.1201839447,-0.245166242123,acc,,,
1484,1644542466294662952,,,,gyr,-0.307177960873,0.310668617487,0.130899697542
1485,1644542466295691013,0.402072638273,-9.02211761475,-0.0294199492782,acc,,,
1486,1644542466297706842,0.598205626011,-9.1201839447,0.764918684959,acc,,,
1487,1644542466299674749,,,,gyr,-0.0959931090474,0.26354470849,0.118682384491
1488,1644542466299718857,0.0686465501785,-9.94394302368,1.09834480286,acc,,,
1489,1644542466301734924,0.696272134781,-10.1106557846,0.843371868134,acc,,,
1490,1644542466303748846,-0.38245934248,-9.38496398926,0.912018418312,acc,,,
1491,1644542466304687023,,,,gyr,-0.0104719754308,0.275762021542,0.11344639957
1492,1644542466305763006,-0.0392265990376,-9.30651092529,0.872791826725,acc,,,
1493,1644542466307776928,-0.294199496508,-10.2087221146,0.872791826725,acc,,,
1494,1644542466309699059,,,,gyr,-0.0279252678156,0.308923274279,0.122173048556
1495,1644542466309792995,0.735498726368,-10.3656291962,0.343232750893,acc,,,
1496,1644542466311806917,0.176519691944,-9.42419052124,0.0980664938688,acc,,,
1497,1644542466313821077,0.12748645246,-8.95347118378,0.490332484245,acc,,,
1498,1644542466314710855,,,,gyr,-0.0436332300305,0.280998021364,0.127409040928
1499,1644542466315834999,0.166713044047,-9.70858287811,0.509945809841,acc,,,
1500,1644542466317851067,0.490332484245,-9.61051654816,0.0980664938688,acc,,,
1501,1644542466319722891,,,,gyr,-0.0174532923847,0.284488677979,0.130899697542
1502,1644542466319864988,0.0392265990376,-9.94394302368,0.274586200714,acc,,,
1503,1644542466321879148,0.362846046686,-10.0616226196,-0.402072638273,acc,,,
1504,1644542466323893070,-0.0294199492782,-9.07115077972,-0.470719188452,acc,,,
1505,1644542466324735165,,,,gyr,0.00523598771542,0.246091425419,0.144862323999
1506,1644542466325906992,0.362846046686,-9.06134414673,-0.00980664975941,acc,,,
1507,1644542466327923059,0.313812792301,-9.94394302368,0.225552946329,acc,,,
1508,1644542466329746962,,,,gyr,0.0750491544604,0.205948844552,0.153588980436
1509,1644542466329935074,0.294199496508,-10.1204624176,-0.0980664938688,acc,,,
1510,1644542466331949234,-0.0392265990376,-9.24767112732,-0.176519691944,acc,,,
1511,1644542466333966970,0.0294199492782,-9.20844459534,0.196132987738,acc,,,
1512,1644542466334757090,,,,gyr,0.130899697542,0.176278248429,0.167551606894
1513,1644542466335981131,0.451105892658,-9.39477062225,0.294199496508,acc,,,
1514,1644542466337995052,0.0784531980753,-8.8946313858,1.01989161968,acc,,,
1515,1644542466339771271,,,,gyr,0.244346097112,0.185004904866,0.179768905044
1516,1644542466340009212,0.421685934067,-10.787314415,1.08853816986,acc,,,
1517,1644542466342025042,0.490332484245,-10.3165950775,0.490332484245,acc,,,
1518,1644542466344037056,0.313812792301,-9.02211761475,-0.245166242123,acc,,,
1519,1644542466344781160,,,,gyr,0.291469991207,0.191986218095,0.211184844375
1520,1644542466346053123,0.0294199492782,-8.70830535889,0.196132987738,acc,,,
1521,1644542466348067045,0.294199496508,-12.2386989594,1.42196416855,acc,,,
1522,1644542466349793196,,,,gyr,0.176278248429,0.237364768982,0.237364768982
1523,1644542466350081205,0.529559075832,-8.92405128479,-0.176519691944,acc,,,
1524,1644542466352097273,0.0392265990376,-9.56148338318,0.00980664975941,acc,,,
1525,1644542466354111433,-0.0980664938688,-10.5323419571,0.38245934248,acc,,,
1526,1644542466354805470,,,,gyr,0.0436332300305,0.270526021719,0.253072738647
1527,1644542466356125355,0.0,-8.80637168884,-0.637432217598,acc,,,
1528,1644542466358141422,0.362846046686,-9.66935634613,0.196132987738,acc,,,
1529,1644542466359817266,,,,gyr,0.00174532923847,0.23212878406,0.244346097112
1530,1644542466360153437,-0.196132987738,-9.96355628967,0.509945809841,acc,,,
1531,1644542466362167597,0.176519691944,-9.02211761475,-0.509945809841,acc,,,
1532,1644542466364183426,-0.12748645246,-10.3362092972,0.451105892658,acc,,,
1533,1644542466364829302,,,,gyr,-0.00872664619237,0.21991148591,0.214675500989
1534,1644542466366197586,-0.245166242123,-9.64974308014,0.0392265990376,acc,,,
1535,1644542466368211508,-0.12748645246,-9.07115077972,0.0686465501785,acc,,,
1536,1644542466369841576,,,,gyr,-0.0174532923847,0.171042263508,0.171042263508
1537,1644542466370227575,0.264779537916,-10.0910425186,0.294199496508,acc,,,
1538,1644542466372241497,0.529559075832,-9.91452312469,0.225552946329,acc,,,
1539,1644542466374255419,-0.12748645246,-8.78675842285,-0.0686465501785,acc,,,
1540,1644542466374853611,,,,gyr,0.0,0.179768905044,0.141371667385
1541,1644542466376271486,0.245166242123,-10.1596889496,0.0784531980753,acc,,,
1542,1644542466378285408,0.274586200714,-9.58109664917,-0.0686465501785,acc,,,
1543,1644542466379865408,,,,gyr,-0.0104719754308,0.123918376863,0.153588980436
1544,1644542466380299568,-0.402072638273,-9.7478094101,0.990471601486,acc,,,
1545,1644542466382315397,0.402072638273,-9.98316955566,0.686465501785,acc,,,
1546,1644542466384329557,-0.0980664938688,-9.53206348419,0.421685934067,acc,,,
1547,1644542466384877682,,,,gyr,-0.00523598771542,0.185004904866,0.158824965358
1548,1644542466386345387,0.313812792301,-9.2868976593,0.245166242123,acc,,,
1549,1644542466388359547,0.245166242123,-9.57129001617,0.176519691944,acc,,,
1550,1644542466389889717,,,,gyr,-0.0104719754308,0.176278248429,0.158824965358
1551,1644542466390373468,0.176519691944,-10.3165950775,0.666852176189,acc,,,
1552,1644542466392387629,0.00980664975941,-9.16921710968,0.0392265990376,acc,,,
1553,1644542466394401550,0.00980664975941,-9.62032318115,0.637432217598,acc,,,
1554,1644542466394901514,,,,gyr,-0.0104719754308,0.185004904866,0.150098308921
1555,1644542466396417618,0.362846046686,-9.81645679474,-0.0686465501785,acc,,,
1556,1644542466398431540,0.0784531980753,-9.1299905777,0.362846046686,acc,,,
1557,1644542466399913788,,,,gyr,0.0139626339078,0.228638127446,0.141371667385
1558,1644542466400445700,-0.490332484245,-10.9638347626,0.833565235138,acc,,,
1559,1644542466402459621,-0.666852176189,-9.5222568512,-0.0784531980753,acc,,,
1560,1644542466404475927,0.490332484245,-9.49283695221,-0.0980664938688,acc,,,
1561,1644542466404925823,,,,gyr,-0.0349065847695,0.261799395084,0.130899697542
1562,1644542466406489849,-0.872791826725,-8.65927219391,0.166713044047,acc,,,
1563,1644542466408505917,0.696272134781,-9.99297618866,0.166713044047,acc,,,
1564,1644542466409937859,,,,gyr,-0.0523598790169,0.328121900558,0.0558505356312
1565,1644542466410517931,-0.245166242123,-8.45333194733,-1.55925726891,acc,,,
