,field.header.stamp,field.linear_acceleration.x,field.linear_acceleration.y,field.linear_acceleration.z,type,field.angular_velocity.x,field.angular_velocity.y,field.angular_velocity.z
0,1644542405353564262,0.549172401428,-9.5222568512,0.00980664975941,acc,,,
1,1644542405355000019,,,,gyr,-0.0069813169539,-0.0506145469844,0.00349065847695
2,1644542405355579853,0.57859236002,-9.62032318115,0.0392265990376,acc,,,
3,1644542405357593536,0.558979034424,-9.62032318115,0.176519691944,acc,,,
4,1644542405359606981,0.558979034424,-9.66935634613,0.274586200714,acc,,,
5,1644542405360011101,,,,gyr,0.0104719754308,-0.0645771846175,-0.00872664619237
6,1644542405361620665,0.558979034424,-9.64974308014,0.264779537916,acc,,,
7,1644542405363636255,0.598205626011,-9.66935634613,0.264779537916,acc,,,
8,1644542405365019798,,,,gyr,0.0261799395084,-0.0558505356312,-0.0174532923847
9,1644542405365649700,0.627625584602,-9.61051654816,0.264779537916,acc,,,
10,1644542405367663383,0.686465501785,-9.70858287811,0.274586200714,acc,,,
11,1644542405369677067,0.627625584602,-9.66935634613,0.245166242123,acc,,,
12,1644542405370030880,,,,gyr,0.0209439508617,-0.0349065847695,-0.0139626339078
13,1644542405371692419,0.627625584602,-9.64974308014,0.294199496508,acc,,,
14,1644542405373706102,0.598205626011,-9.70858287811,0.245166242123,acc,,,
15,1644542405375041723,,,,gyr,0.0104719754308,-0.0296705961227,-0.00349065847695
16,1644542405375719786,0.627625584602,-9.67916297913,0.196132987738,acc,,,
17,1644542405377735138,0.627625584602,-9.62032318115,0.264779537916,acc,,,
18,1644542405379749060,0.558979034424,-9.61051654816,0.225552946329,acc,,,
19,1644542405380053043,,,,gyr,0.0,-0.0191986225545,-0.00349065847695
20,1644542405381762743,0.529559075832,-9.58109664917,0.225552946329,acc,,,
21,1644542405383776665,0.558979034424,-9.53206348419,0.176519691944,acc,,,
22,1644542405385064363,,,,gyr,0.0,-0.0191986225545,0.0
23,1644542405390075922,,,,gyr,0.00349065847695,-0.0139626339078,-0.00349065847695
24,1644542405395087719,,,,gyr,0.00523598771542,-0.0104719754308,-0.00349065847695
25,1644542405400096416,,,,gyr,0.00872664619237,-0.00174532923847,-0.00523598771542
26,1644542405405104399,,,,gyr,0.0104719754308,-0.00174532923847,-0.00523598771542
27,1644542405410112858,,,,gyr,0.0139626339078,0.0,-0.0069813169539
28,1644542405415121078,,,,gyr,0.0209439508617,-0.00174532923847,-0.0104719754308
29,1644542405420129299,,,,gyr,0.0279252678156,0.0,-0.0139626339078
30,1644542405425137758,,,,gyr,0.0279252678156,0.0,-0.0139626339078
31,1644542405430143833,,,,gyr,0.0139626339078,0.0,-0.00872664619237
32,1644542406082256079,0.598205626011,-9.62032318115,0.176519691944,acc,,,
33,1644542406084268570,0.627625584602,-9.64974308014,0.176519691944,acc,,,
34,1644542406086179018,,,,gyr,-0.0104719754308,-0.00349065847695,0.00872664619237
35,1644542406086280823,0.558979034424,-9.58109664917,0.294199496508,acc,,,
36,1644542406088293314,0.627625584602,-9.66935634613,0.225552946329,acc,,,
37,1644542406090305328,0.57859236002,-9.62032318115,0.176519691944,acc,,,
38,1644542406091186762,,,,gyr,-0.0104719754308,-0.00174532923847,0.0069813169539
39,1644542406092319727,0.598205626011,-9.61051654816,0.176519691944,acc,,,
40,1644542406094331980,0.529559075832,-9.62032318115,0.137293100357,acc,,,
41,1644542406096194506,,,,gyr,-0.0104719754308,0.0,0.0069813169539
42,1644542406096344471,0.598205626011,-9.58109664917,0.196132987738,acc,,,
43,1644542406098356724,0.57859236002,-9.61051654816,0.225552946329,acc,,,
44,1644542406100369215,0.57859236002,-9.58109664917,0.225552946329,acc,,,
45,1644542406101202488,,,,gyr,-0.00349065847695,-0.00349065847695,0.0
46,1644542406102383375,0.57859236002,-9.66935634613,0.225552946329,acc,,,
47,1644542406104395866,0.57859236002,-9.62032318115,0.264779537916,acc,,,
48,1644542406106210232,,,,gyr,0.0,-0.00349065847695,0.0
49,1644542406106407881,0.627625584602,-9.64974308014,0.264779537916,acc,,,
50,1644542406108420372,0.57859236002,-9.64974308014,0.264779537916,acc,,,
51,1644542406110434532,0.558979034424,-9.62032318115,0.274586200714,acc,,,
52,1644542406111217976,,,,gyr,-0.00349065847695,0.0,0.0069813169539
53,1644542406112447023,0.529559075832,-9.62032318115,0.245166242123,acc,,,
54,1644542406114459276,0.549172401428,-9.62032318115,0.196132987738,acc,,,
55,1644542406116223812,,,,gyr,-0.00523598771542,-0.00349065847695,0.00349065847695
56,1644542406116471767,0.558979034424,-9.62032318115,0.225552946329,acc,,,
57,1644542406118485928,0.57859236002,-9.62032318115,0.264779537916,acc,,,
58,1644542406120498180,0.549172401428,-9.61051654816,0.225552946329,acc,,,
59,1644542406121231794,,,,gyr,-0.00872664619237,-0.00349065847695,0.00174532923847
60,1644542406122510433,0.57859236002,-9.61051654816,0.225552946329,acc,,,
61,1644542406124522924,0.558979034424,-9.61051654816,0.264779537916,acc,,,
62,1644542406126239538,,,,gyr,0.0,0.0,0.0
63,1644542406126537085,0.558979034424,-9.62032318115,0.264779537916,acc,,,
64,1644542406128549576,0.558979034424,-9.58109664917,0.245166242123,acc,,,
65,1644542406130561829,0.558979034424,-9.58109664917,0.196132987738,acc,,,
66,1644542406131247282,,,,gyr,0.0,0.0,-0.00174532923847
67,1644542406132574081,0.627625584602,-9.67916297913,0.274586200714,acc,,,
68,1644542406134586334,0.627625584602,-9.66935634613,0.294199496508,acc,,,
69,1644542406136254787,,,,gyr,0.00174532923847,0.0,-0.00523598771542
70,1644542406136598587,0.627625584602,-9.64974308014,0.245166242123,acc,,,
71,1644542406138611078,0.627625584602,-9.64974308014,0.274586200714,acc,,,
72,1644542406140623331,0.764918684959,-9.81645679474,0.402072638273,acc,,,
73,1644542406141262770,,,,gyr,-0.0104719754308,-0.00523598771542,0.0069813169539
74,1644542406142637730,0.872791826725,-9.88510322571,0.529559075832,acc,,,
75,1644542406144649982,0.813951909542,-9.81645679474,0.549172401428,acc,,,
76,1644542406146270514,,,,gyr,-0.0506145469844,-0.0139626339078,0.0279252678156
77,1644542406146662235,0.804145276546,-9.80665016174,0.509945809841,acc,,,
78,1644542406148674488,0.686465501785,-9.71838951111,0.313812792301,acc,,,
79,1644542406150686741,0.637432217598,-9.67916297913,0.245166242123,acc,,,
80,1644542406151278257,,,,gyr,-0.127409040928,-0.0349065847695,0.069813169539
81,1644542406152699232,0.549172401428,-9.64974308014,0.137293100357,acc,,,
82,1644542406154711485,0.529559075832,-9.57129001617,0.0392265990376,acc,,,
83,1644542406156286240,,,,gyr,-0.167551606894,-0.0471238903701,0.0942477807403
84,1644542406156725883,0.529559075832,-9.61051654816,0.0392265990376,acc,,,
85,1644542406158738136,0.470719188452,-9.61051654816,0.0392265990376,acc,,,
86,1644542406160748243,0.470719188452,-9.53206348419,0.0,acc,,,
87,1644542406161293983,,,,gyr,-0.157079637051,-0.0471238903701,0.0925024524331
88,1644542406162760735,0.470719188452,-9.53206348419,-0.00980664975941,acc,,,
89,1644542406164772987,0.451105892658,-9.53206348419,-0.00980664975941,acc,,,
90,1644542406166301727,,,,gyr,-0.127409040928,-0.0349065847695,0.069813169539
91,1644542406166787386,0.421685934067,-9.57129001617,-0.00980664975941,acc,,,
92,1644542406168799639,0.402072638273,-9.5222568512,-0.0294199492782,acc,,,
93,1644542406170812130,0.529559075832,-9.56148338318,0.0,acc,,,
94,1644542406171309471,,,,gyr,-0.0785398185253,-0.0191986225545,0.0471238903701
95,1644542406172826290,0.558979034424,-9.62032318115,0.0686465501785,acc,,,
96,1644542406174838543,0.627625584602,-9.66935634613,0.137293100357,acc,,,
97,1644542406176317453,,,,gyr,-0.0436332300305,-0.0104719754308,0.0209439508617
98,1644542406176850796,0.57859236002,-9.61051654816,0.196132987738,acc,,,
99,1644542406178863049,0.558979034424,-9.64974308014,0.176519691944,acc,,,
100,1644542406180875540,0.627625584602,-9.62032318115,0.176519691944,acc,,,
101,1644542406181323051,,,,gyr,-0.0383972451091,-0.00523598771542,0.0191986225545
102,1644542406182889700,0.57859236002,-9.64974308014,0.166713044047,acc,,,
103,1644542406184902191,0.637432217598,-9.62032318115,0.176519691944,acc,,,
104,1644542406186330795,,,,gyr,-0.0436332300305,-0.0104719754308,0.0209439508617
105,1644542406186914206,0.57859236002,-9.67916297913,0.176519691944,acc,,,
106,1644542406188926458,0.627625584602,-9.70858287811,0.196132987738,acc,,,
107,1644542406190938950,0.549172401428,-9.62032318115,0.137293100357,acc,,,
108,1644542406191338539,,,,gyr,-0.0523598790169,-0.0104719754308,0.0296705961227
109,1644542406192953110,0.529559075832,-9.61051654816,0.0980664938688,acc,,,
110,1644542406194965601,0.529559075832,-9.62032318115,0.0784531980753,acc,,,
111,1644542406196346521,,,,gyr,-0.0558505356312,-0.0139626339078,0.0296705961227
112,1644542406196977854,0.549172401428,-9.64974308014,0.0686465501785,acc,,,
113,1644542406198990107,0.627625584602,-9.62032318115,0.12748645246,acc,,,
114,1644542406201004505,0.57859236002,-9.66935634613,0.166713044047,acc,,,
115,1644542406201354027,,,,gyr,-0.0506145469844,-0.0104719754308,0.0296705961227
116,1644542406203016520,0.637432217598,-9.64974308014,0.176519691944,acc,,,
117,1644542406205029011,0.666852176189,-9.66935634613,0.196132987738,acc,,,
118,1644542406206361771,,,,gyr,-0.0523598790169,-0.0104719754308,0.0296705961227
119,1644542406207041264,0.666852176189,-9.7478094101,0.196132987738,acc,,,
120,1644542406209053516,0.686465501785,-9.67916297913,0.245166242123,acc,,,
121,1644542406211067915,0.666852176189,-9.67916297913,0.176519691944,acc,,,
122,1644542406211369514,,,,gyr,-0.0785398185253,-0.0191986225545,0.0471238903701
123,1644542406213080168,0.598205626011,-9.62032318115,0.166713044047,acc,,,
124,1644542406215092421,0.558979034424,-9.61051654816,0.166713044047,acc,,,
125,1644542406216377497,,,,gyr,-0.0977384373546,-0.0296705961227,0.0610865242779
126,1644542406217104673,0.558979034424,-9.61051654816,0.12748645246,acc,,,
127,1644542406219115019,0.402072638273,-9.53206348419,-0.00980664975941,acc,,,
128,1644542406221129417,0.451105892658,-9.5222568512,-0.00980664975941,acc,,,
129,1644542406221385002,,,,gyr,-0.104719758034,-0.0314159244299,0.0610865242779
130,1644542406223141670,0.451105892658,-9.53206348419,-0.0686465501785,acc,,,
131,1644542406225153923,0.470719188452,-9.57129001617,-0.0294199492782,acc,,,
132,1644542406226392746,,,,gyr,-0.0750491544604,-0.0209439508617,0.0471238903701
133,1644542406227168322,0.529559075832,-9.58109664917,0.0392265990376,acc,,,
134,1644542406229180336,0.549172401428,-9.61051654816,0.0392265990376,acc,,,
135,1644542406231192827,0.627625584602,-9.64974308014,0.0980664938688,acc,,,
136,1644542406231400728,,,,gyr,-0.0436332300305,-0.0104719754308,0.0261799395084
137,1644542406233206987,0.637432217598,-9.67916297913,0.166713044047,acc,,,
138,1644542406235219240,0.813951909542,-9.75761604309,0.343232750893,acc,,,
139,1644542406236408234,,,,gyr,-0.0383972451091,-0.00523598771542,0.0226892791688
140,1644542406237231731,1.04931151867,-10.0125894547,0.813951909542,acc,,,
141,1644542406239243984,1.17679798603,-9.8949098587,0.686465501785,acc,,,
142,1644542406241255999,0.666852176189,-9.7478094101,0.274586200714,acc,,,
143,1644542406241415977,,,,gyr,-0.0855211317539,-0.00349065847695,0.0785398185253
144,1644542406243268490,0.362846046686,-9.57129001617,0.00980664975941,acc,,,
145,1644542406245282650,0.343232750893,-9.56148338318,0.0980664938688,acc,,,
146,1644542406246423721,,,,gyr,-0.179768905044,-0.0139626339078,0.171042263508
147,1644542406247294903,0.57859236002,-9.62032318115,0.166713044047,acc,,,
148,1644542406249307394,0.686465501785,-9.66935634613,0.245166242123,acc,,,
149,1644542406251319647,0.598205626011,-9.64974308014,0.264779537916,acc,,,
150,1644542406251429558,,,,gyr,-0.183259576559,0.0,0.176278248429
151,1644542406253331900,0.421685934067,-9.56148338318,0.0784531980753,acc,,,
152,1644542406255344152,0.313812792301,-9.48303031921,-0.0392265990376,acc,,,
153,1644542406256437302,,,,gyr,-0.188495561481,0.0261799395084,0.205948844552
154,1644542406257356405,0.245166242123,-9.49283695221,-0.0294199492782,acc,,,
155,1644542406259368658,0.274586200714,-9.53206348419,-0.12748645246,acc,,,
156,1644542406261383057,0.264779537916,-9.56148338318,-0.0686465501785,acc,,,
157,1644542406261445045,,,,gyr,-0.158824965358,0.0593411922455,0.197222203016
158,1644542406263395309,0.343232750893,-9.53206348419,-0.0294199492782,acc,,,
159,1644542406265407562,0.294199496508,-9.56148338318,0.0,acc,,,
160,1644542406266452551,,,,gyr,-0.104719758034,0.0715584978461,0.150098308921
161,1644542406267421961,0.274586200714,-9.56148338318,0.00980664975941,acc,,,
162,1644542406269432068,0.313812792301,-9.5222568512,0.0,acc,,,
163,1644542406271446228,0.313812792301,-9.57129001617,0.0,acc,,,
164,1644542406271460533,,,,gyr,-0.0767944902182,0.0785398185253,0.0977384373546
165,1644542406273458719,0.402072638273,-9.64974308014,-0.0294199492782,acc,,,
166,1644542406275472879,0.421685934067,-9.62032318115,0.0392265990376,acc,,,
167,1644542406276468039,,,,gyr,-0.0558505356312,0.0855211317539,0.0593411922455
168,1644542406277485132,0.421685934067,-9.62032318115,0.0392265990376,acc,,,
169,1644542406279497623,0.362846046686,-9.66935634613,0.12748645246,acc,,,
170,1644542406281475782,,,,gyr,-0.0471238903701,0.0802851468325,0.0349065847695
171,1644542406281509876,0.343232750893,-9.56148338318,0.0,acc,,,
172,1644542406283521891,0.637432217598,-9.66935634613,0.137293100357,acc,,,
173,1644542406285534382,0.57859236002,-9.67916297913,0.166713044047,acc,,,
174,1644542406286483288,,,,gyr,-0.0436332300305,0.069813169539,0.0104719754308
175,1644542406287548542,0.509945809841,-9.62032318115,0.0784531980753,acc,,,
176,1644542406289560795,0.637432217598,-9.67916297913,0.0784531980753,acc,,,
177,1644542406291491270,,,,gyr,-0.0471238903701,0.0645771846175,0.0174532923847
178,1644542406291573286,0.627625584602,-9.67916297913,0.0294199492782,acc,,,
179,1644542406293585539,0.725692093372,-9.67916297913,0.0980664938688,acc,,,
180,1644542406295597553,0.637432217598,-9.71838951111,0.12748645246,acc,,,
181,1644542406296498775,,,,gyr,-0.0558505356312,0.0506145469844,0.0383972451091
182,1644542406297609806,0.686465501785,-9.66935634613,0.00980664975941,acc,,,
183,1644542406299622297,0.529559075832,-9.64974308014,0.0392265990376,acc,,,
184,1644542406301506519,,,,gyr,-0.0750491544604,0.0209439508617,0.0610865242779
185,1644542406301634550,0.402072638273,-9.56148338318,-0.0294199492782,acc,,,
186,1644542406303646803,0.402072638273,-9.56148338318,-0.0784531980753,acc,,,
187,1644542406305658817,0.451105892658,-9.58109664917,-0.0392265990376,acc,,,
188,1644542406306514502,,,,gyr,-0.0750491544604,0.00523598771542,0.0715584978461
189,1644542406307671309,0.38245934248,-9.57129001617,-0.0392265990376,acc,,,
190,1644542406309683561,0.294199496508,-9.56148338318,-0.0980664938688,acc,,,
191,1644542406311522007,,,,gyr,-0.0558505356312,0.0,0.0523598790169
192,1644542406311697721,0.274586200714,-9.56148338318,-0.0980664938688,acc,,,
193,1644542406313710213,0.402072638273,-9.57129001617,0.0,acc,,,
194,1644542406315722466,0.38245934248,-9.58109664917,-0.00980664975941,acc,,,
195,1644542406316527605,,,,gyr,-0.0279252678156,0.0104719754308,0.0191986225545
196,1644542406317736626,0.38245934248,-9.62032318115,0.00980664975941,acc,,,
197,1644542406319748878,0.421685934067,-9.58109664917,0.0686465501785,acc,,,
198,1644542406321535349,,,,gyr,-0.0069813169539,0.0209439508617,-0.00523598771542
199,1644542406321761131,0.38245934248,-9.61051654816,0.0,acc,,,
200,1644542406323773384,0.421685934067,-9.58109664917,-0.00980664975941,acc,,,
201,1644542406325787544,0.509945809841,-9.61051654816,0.0,acc,,,
202,1644542406326542854,,,,gyr,0.00174532923847,0.0349065847695,-0.0296705961227
203,1644542406327801943,0.470719188452,-9.64974308014,0.0294199492782,acc,,,
204,1644542406329814196,0.421685934067,-9.61051654816,0.0784531980753,acc,,,
205,1644542406331550837,,,,gyr,0.00349065847695,0.0383972451091,-0.0471238903701
206,1644542406331826448,0.490332484245,-9.66935634613,0.0686465501785,acc,,,
207,1644542406333838701,0.451105892658,-9.66935634613,0.0980664938688,acc,,,
208,1644542406335853100,0.509945809841,-9.70858287811,0.12748645246,acc,,,
209,1644542406336558342,,,,gyr,-0.00523598771542,0.0279252678156,-0.0523598790169
210,1644542406337865353,0.598205626011,-9.64974308014,0.0686465501785,acc,,,
211,1644542406339877367,0.549172401428,-9.66935634613,0.12748645246,acc,,,
212,1644542406341565847,,,,gyr,-0.0191986225545,0.0226892791688,-0.0436332300305
213,1644542406341889620,0.627625584602,-9.62032318115,0.0294199492782,acc,,,
214,1644542406343902111,0.529559075832,-9.66935634613,0.00980664975941,acc,,,
215,1644542406345914364,0.470719188452,-9.56148338318,-0.00980664975941,acc,,,
216,1644542406346573830,,,,gyr,-0.0279252678156,0.0174532923847,-0.0279252678156
217,1644542406347926617,0.549172401428,-9.57129001617,-0.0686465501785,acc,,,
218,1644542406349938631,0.509945809841,-9.62032318115,-0.0294199492782,acc,,,
219,1644542406351581335,,,,gyr,-0.0226892791688,0.00872664619237,-0.0139626339078
220,1644542406351950884,0.529559075832,-9.58109664917,-0.0294199492782,acc,,,
221,1644542406353965282,0.549172401428,-9.64974308014,-0.00980664975941,acc,,,
222,1644542406355979443,0.451105892658,-9.66935634613,0.00980664975941,acc,,,
223,1644542406356589079,,,,gyr,-0.0104719754308,0.00349065847695,-0.00872664619237
224,1644542406357989788,0.402072638273,-9.57129001617,-0.00980664975941,acc,,,
225,1644542406360002041,0.402072638273,-9.58109664917,-0.0686465501785,acc,,,
226,1644542406361596584,,,,gyr,0.0,0.0,0.0
227,1644542406362016439,0.362846046686,-9.5222568512,-0.0784531980753,acc,,,
228,1644542406364028454,0.362846046686,-9.53206348419,-0.0980664938688,acc,,,
229,1644542406366040707,0.313812792301,-9.56148338318,-0.12748645246,acc,,,
230,1644542406366604328,,,,gyr,0.0139626339078,0.00523598771542,-0.0261799395084
231,1644542406368052959,0.274586200714,-9.5222568512,-0.0784531980753,acc,,,
232,1644542406370067358,0.137293100357,-9.45361042023,-0.196132987738,acc,,,
233,1644542406371612072,,,,gyr,0.0523598790169,0.0174532923847,-0.0523598790169
234,1644542406372079611,0.0980664938688,-9.39477062225,-0.225552946329,acc,,,
235,1644542406374091864,0.274586200714,-9.45361042023,-0.166713044047,acc,,,
236,1644542406376104116,0.451105892658,-9.56148338318,-0.12748645246,acc,,,
237,1644542406376619577,,,,gyr,0.11344639957,0.0383972451091,-0.11344639957
238,1644542406378118515,0.549172401428,-9.61051654816,-0.0686465501785,acc,,,
239,1644542406380130529,0.558979034424,-9.64974308014,-0.00980664975941,acc,,,
240,1644542406381627083,,,,gyr,0.174532920122,0.0593411922455,-0.162315621972
241,1644542406382142782,0.598205626011,-9.64974308014,-0.0294199492782,acc,,,
242,1644542406384156942,0.666852176189,-9.66935634613,-0.00980664975941,acc,,,
243,1644542406386171341,0.725692093372,-9.70858287811,0.0392265990376,acc,,,
244,1644542406386632919,,,,gyr,0.193731546402,0.0610865242779,-0.162315621972
245,1644542406388183594,0.696272134781,-9.61051654816,0.0686465501785,acc,,,
246,1644542406390195847,0.725692093372,-9.61051654816,0.0980664938688,acc,,,
247,1644542406391640663,,,,gyr,0.193731546402,0.0558505356312,-0.137881010771
248,1644542406392208099,0.637432217598,-9.61051654816,0.00980664975941,acc,,,
249,1644542406394220114,0.666852176189,-9.58109664917,-0.0392265990376,acc,,,
250,1644542406396235466,0.637432217598,-9.5222568512,-0.0784531980753,acc,,,
251,1644542406396649361,,,,gyr,0.197222203016,0.0471238903701,-0.101229093969
252,1644542406398248911,0.529559075832,-9.57129001617,-0.137293100357,acc,,,
253,1644542406400262594,0.529559075832,-9.56148338318,-0.176519691944,acc,,,
254,1644542406401660681,,,,gyr,0.223402142525,0.0383972451091,-0.0750491544604
255,1644542406402276278,0.666852176189,-9.53206348419,-0.12748645246,acc,,,
256,1644542406404289961,0.627625584602,-9.58109664917,-0.0980664938688,acc,,,
257,1644542406406305790,0.627625584602,-9.70858287811,0.137293100357,acc,,,
258,1644542406406671762,,,,gyr,0.267035365105,0.0174532923847,-0.0680678412318
259,1644542406408321619,0.666852176189,-9.71838951111,0.313812792301,acc,,,
260,1644542406410335302,0.549172401428,-9.78703689575,0.362846046686,acc,,,
261,1644542406411683083,,,,gyr,0.28274333477,-0.0104719754308,-0.0349065847695
262,1644542406412348986,0.57859236002,-9.80665016174,0.421685934067,acc,,,
263,1644542406414362431,0.490332484245,-9.75761604309,0.402072638273,acc,,,
264,1644542406416376114,0.362846046686,-9.67916297913,0.196132987738,acc,,,
265,1644542406416694403,,,,gyr,0.235619440675,-0.0349065847695,-0.0139626339078
266,1644542406418389797,0.402072638273,-9.57129001617,0.0784531980753,acc,,,
267,1644542406420401573,0.470719188452,-9.49283695221,-0.00980664975941,acc,,,
268,1644542406421705484,,,,gyr,0.197222203016,-0.0593411922455,-0.00523598771542
269,1644542406422417402,0.38245934248,-9.43399715424,-0.12748645246,acc,,,
270,1644542406424431086,0.362846046686,-9.57129001617,0.0,acc,,,
271,1644542406426446676,0.421685934067,-9.61051654816,0.0980664938688,acc,,,
272,1644542406426716805,,,,gyr,0.218166157603,-0.0645771846175,0.0069813169539
273,1644542406428460360,0.313812792301,-9.66935634613,0.176519691944,acc,,,
274,1644542406430474043,0.245166242123,-9.66935634613,0.0686465501785,acc,,,
275,1644542406431728125,,,,gyr,0.254818081856,-0.0645771846175,0.0226892791688
276,1644542406432487726,0.764918684959,-9.75761604309,0.245166242123,acc,,,
277,1644542406434503317,0.951245009899,-9.98316955566,0.598205626011,acc,,,
278,1644542406436517000,0.804145276546,-9.99297618866,0.598205626011,acc,,,
279,1644542406436739206,,,,gyr,0.23212878406,-0.0750491544604,0.0506145469844
280,1644542406438530922,0.627625584602,-9.91452312469,0.38245934248,acc,,,
281,1644542406440544605,0.558979034424,-9.78703689575,0.137293100357,acc,,,
282,1644542406441750526,,,,gyr,0.127409040928,-0.069813169539,0.069813169539
283,1644542406442558289,0.509945809841,-9.71838951111,0.00980664975941,acc,,,
284,1644542406444572210,0.470719188452,-9.64974308014,-0.0686465501785,acc,,,
285,1644542406446586132,0.470719188452,-9.62032318115,-0.0686465501785,acc,,,
286,1644542406446762323,,,,gyr,0.0209439508617,-0.069813169539,0.0785398185253
287,1644542406448600054,0.38245934248,-9.5222568512,-0.176519691944,acc,,,
288,1644542406450613976,0.12748645246,-9.45361042023,-0.166713044047,acc,,,
289,1644542406451773882,,,,gyr,-0.00349065847695,-0.0261799395084,0.0523598790169
290,1644542406452627659,0.12748645246,-9.45361042023,-0.343232750893,acc,,,
291,1644542406454643488,0.274586200714,-9.45361042023,-0.196132987738,acc,,,
292,1644542406456657410,0.12748645246,-9.48303031921,-0.0980664938688,acc,,,
293,1644542406456785440,,,,gyr,0.0436332300305,0.0104719754308,0.0139626339078
294,1644542406458673239,0.274586200714,-9.80665016174,0.225552946329,acc,,,
295,1644542406460687160,0.666852176189,-9.98316955566,0.627625584602,acc,,,
296,1644542406461795092,,,,gyr,0.0959931090474,0.0314159244299,-0.0436332300305
297,1644542406462701082,0.57859236002,-9.64974308014,0.166713044047,acc,,,
298,1644542406464714766,0.402072638273,-9.57129001617,-0.0686465501785,acc,,,
299,1644542406466730595,0.627625584602,-9.7478094101,0.362846046686,acc,,,
300,1644542406466806889,,,,gyr,0.0296705961227,0.0279252678156,-0.0593411922455
301,1644542406468744516,0.686465501785,-9.62032318115,0.294199496508,acc,,,
302,1644542406470758438,0.627625584602,-9.64974308014,0.245166242123,acc,,,
303,1644542406471818447,,,,gyr,0.00523598771542,0.0314159244299,-0.0767944902182
304,1644542406472772360,0.402072638273,-9.7478094101,0.313812792301,acc,,,
305,1644542406474788427,0.402072638273,-9.67916297913,0.264779537916,acc,,,
306,1644542406476802349,0.529559075832,-9.67916297913,0.402072638273,acc,,,
307,1644542406476830006,,,,gyr,-0.00349065847695,0.0279252678156,-0.0750491544604
308,1644542406478816032,0.666852176189,-9.61051654816,0.343232750893,acc,,,
309,1644542406480829716,0.637432217598,-9.67916297913,0.225552946329,acc,,,
310,1644542406481841803,,,,gyr,0.0,0.0296705961227,-0.0872664600611
311,1644542406482845783,0.686465501785,-9.67916297913,0.313812792301,acc,,,
312,1644542406484859705,0.725692093372,-9.62032318115,0.245166242123,acc,,,
313,1644542406486853600,,,,gyr,-0.00523598771542,0.0279252678156,-0.0890117883682
314,1644542406486873627,0.725692093372,-9.66935634613,0.294199496508,acc,,,
315,1644542406488887310,0.598205626011,-9.62032318115,0.264779537916,acc,,,
316,1644542406490901232,0.558979034424,-9.57129001617,0.38245934248,acc,,,
317,1644542406491865158,,,,gyr,-0.00349065847695,0.0139626339078,-0.0715584978461
318,1644542406492917061,0.57859236002,-9.66935634613,0.470719188452,acc,,,
319,1644542406494930983,0.509945809841,-9.66935634613,0.38245934248,acc,,,
320,1644542406496876717,,,,gyr,-0.0069813169539,0.00872664619237,-0.0680678412318
321,1644542406496944904,0.598205626011,-9.57129001617,0.421685934067,acc,,,
322,1644542406498958826,0.549172401428,-9.70858287811,0.470719188452,acc,,,
323,1644542406500972509,0.490332484245,-9.71838951111,0.362846046686,acc,,,
324,1644542406501888514,,,,gyr,-0.00349065847695,0.0139626339078,-0.0785398185253
325,1644542406502986431,0.509945809841,-9.61051654816,0.313812792301,acc,,,
326,1644542406505000353,0.549172401428,-9.62032318115,0.264779537916,acc,,,
327,1644542406506900072,,,,gyr,-0.00523598771542,0.0139626339078,-0.0977384373546
328,1644542406507016182,0.490332484245,-9.62032318115,0.166713044047,acc,,,
329,1644542406509030104,0.549172401428,-9.58109664917,0.12748645246,acc,,,
330,1644542406511044025,0.686465501785,-9.66935634613,0.196132987738,acc,,,
331,1644542406511911869,,,,gyr,-0.00523598771542,0.0174532923847,-0.11344639957
332,1644542406513057709,0.549172401428,-9.57129001617,0.00980664975941,acc,,,
333,1644542406515071630,0.558979034424,-9.66935634613,0.0784531980753,acc,,,
334,1644542406516923428,,,,gyr,-0.00523598771542,0.00872664619237,-0.106465086341
335,1644542406517087460,0.509945809841,-9.57129001617,0.0294199492782,acc,,,
336,1644542406519099474,0.470719188452,-9.58109664917,0.0,acc,,,
337,1644542406521115303,0.451105892658,-9.58109664917,-0.0392265990376,acc,,,
338,1644542406521934986,,,,gyr,-0.00523598771542,0.00523598771542,-0.101229093969
339,1644542406523128986,0.451105892658,-9.61051654816,0.0784531980753,acc,,,
340,1644542406525144815,0.38245934248,-9.66935634613,0.176519691944,acc,,,
341,1644542406526946783,,,,gyr,0.0,0.0139626339078,-0.0959931090474
342,1644542406527158737,0.470719188452,-9.61051654816,0.137293100357,acc,,,
343,1644542406529172659,0.529559075832,-9.62032318115,0.225552946329,acc,,,
344,1644542406531186581,0.490332484245,-9.62032318115,0.0980664938688,acc,,,
345,1644542406531956434,,,,gyr,0.00174532923847,0.0174532923847,-0.11344639957
346,1644542406533218145,0.598205626011,-9.62032318115,0.38245934248,acc,,,
347,1644542406535214186,0.637432217598,-9.5222568512,0.12748645246,acc,,,
348,1644542406536967993,,,,gyr,0.00523598771542,0.0261799395084,-0.132645025849
349,1644542406537228107,1.60829055309,-9.57129001617,-0.402072638273,acc,,,
350,1644542406539243937,0.951245009899,-9.88510322571,0.549172401428,acc,,,
351,1644542406541257858,0.558979034424,-9.58109664917,0.0294199492782,acc,,,
352,1644542406541979790,,,,gyr,0.0261799395084,0.0279252678156,-0.0872664600611
353,1644542406543271780,0.558979034424,-9.67916297913,0.0294199492782,acc,,,
354,1644542406545287609,0.627625584602,-9.67916297913,0.0,acc,,,
355,1644542406546991348,,,,gyr,0.0209439508617,0.0174532923847,-0.0139626339078
356,1644542406547301531,0.549172401428,-9.62032318115,0.0294199492782,acc,,,
357,1644542406549315214,0.470719188452,-9.61051654816,-0.0294199492782,acc,,,
358,1644542406551331043,0.343232750893,-9.58109664917,0.0980664938688,acc,,,
359,1644542406552003145,,,,gyr,0.0139626339078,0.0261799395084,-0.0139626339078
360,1644542406553344965,0.451105892658,-9.61051654816,0.343232750893,acc,,,
361,1644542406555360794,0.402072638273,-9.67916297913,0.294199496508,acc,,,
362,1644542406557014704,,,,gyr,0.0279252678156,0.0767944902182,-0.0139626339078
363,1644542406557374716,0.470719188452,-9.67916297913,0.176519691944,acc,,,
364,1644542406559388638,0.666852176189,-9.67916297913,0.0784531980753,acc,,,
365,1644542406561404467,0.558979034424,-9.64974308014,0.0980664938688,acc,,,
366,1644542406562026262,,,,gyr,0.0226892791688,0.202458187938,-0.0139626339078
367,1644542406563416243,0.686465501785,-9.71838951111,-0.0686465501785,acc,,,
368,1644542406565430164,0.549172401428,-9.58109664917,-0.225552946329,acc,,,
369,1644542406567038059,,,,gyr,0.00872664619237,0.275762021542,0.0
370,1644542406567445993,0.627625584602,-9.58109664917,-0.245166242123,acc,,,
371,1644542406569459915,0.637432217598,-9.61051654816,-0.166713044047,acc,,,
372,1644542406571475744,0.843371868134,-9.7478094101,0.225552946329,acc,,,
373,1644542406572049856,,,,gyr,0.00872664619237,0.237364768982,0.00174532923847
374,1644542406573489666,0.402072638273,-9.58109664917,0.813951909542,acc,,,
375,1644542406575503349,0.509945809841,-9.66935634613,0.735498726368,acc,,,
376,1644542406577061415,,,,gyr,0.0069813169539,0.193731546402,0.00349065847695
377,1644542406577517271,0.421685934067,-9.57129001617,0.313812792301,acc,,,
378,1644542406579533100,0.627625584602,-9.61051654816,0.245166242123,acc,,,
379,1644542406581547022,0.598205626011,-9.57129001617,0.0392265990376,acc,,,
380,1644542406582072973,,,,gyr,-0.0139626339078,0.254818081856,0.0104719754308
381,1644542406583560944,0.764918684959,-9.58109664917,0.12748645246,acc,,,
382,1644542406585577011,0.725692093372,-9.56148338318,0.225552946329,acc,,,
383,1644542406587084770,,,,gyr,-0.0069813169539,0.211184844375,0.00349065847695
384,1644542406587590933,0.666852176189,-9.61051654816,0.294199496508,acc,,,
385,1644542406589604378,0.57859236002,-9.53206348419,0.402072638273,acc,,,
386,1644542406591620445,0.637432217598,-9.71838951111,0.451105892658,acc,,,
387,1644542406592094421,,,,gyr,0.0,0.123918376863,-0.00174532923847
388,1644542406593634367,0.558979034424,-9.75761604309,0.343232750893,acc,,,
389,1644542406595648289,0.627625584602,-9.56148338318,0.313812792301,acc,,,
390,1644542406597108126,,,,gyr,0.0,0.069813169539,0.0
391,1644542406597664118,0.696272134781,-9.58109664917,0.343232750893,acc,,,
392,1644542406599678040,0.666852176189,-9.64974308014,0.38245934248,acc,,,
393,1644542406601691961,0.735498726368,-9.58109664917,0.38245934248,acc,,,
394,1644542406602117777,,,,gyr,0.0,0.0436332300305,0.0
395,1644542406603705645,0.696272134781,-9.66935634613,0.451105892658,acc,,,
396,1644542406605721474,0.666852176189,-9.64974308014,0.529559075832,acc,,,
397,1644542406607129335,,,,gyr,0.00174532923847,0.0296705961227,-0.00174532923847
398,1644542406607735395,0.627625584602,-9.64974308014,0.57859236002,acc,,,
399,1644542406609749317,0.696272134781,-9.66935634613,0.509945809841,acc,,,
400,1644542406611765146,0.558979034424,-9.62032318115,0.57859236002,acc,,,
401,1644542406612141132,,,,gyr,0.00174532923847,0.0349065847695,0.0
402,1644542406613779068,0.637432217598,-9.61051654816,0.637432217598,acc,,,
403,1644542406615792990,0.666852176189,-9.62032318115,0.686465501785,acc,,,
404,1644542406617152929,,,,gyr,0.00174532923847,0.0750491544604,0.00349065847695
405,1644542406617806673,0.637432217598,-9.71838951111,0.774725317955,acc,,,
406,1644542406619820595,0.637432217598,-9.61051654816,0.696272134781,acc,,,
407,1644542406621834517,0.666852176189,-9.67916297913,0.57859236002,acc,,,
408,1644542406622164488,,,,gyr,0.00872664619237,0.153588980436,0.00523598771542
409,1644542406623850346,0.725692093372,-9.66935634613,0.274586200714,acc,,,
410,1644542406625864267,0.735498726368,-9.64974308014,0.12748645246,acc,,,
411,1644542406627176046,,,,gyr,0.0226892791688,0.23212878406,0.0139626339078
412,1644542406627878189,0.764918684959,-9.66935634613,0.196132987738,acc,,,
413,1644542406629891872,0.686465501785,-9.64974308014,0.176519691944,acc,,,
414,1644542406631905794,0.637432217598,-9.58109664917,0.274586200714,acc,,,
415,1644542406632187843,,,,gyr,0.0767944902182,0.261799395084,0.0209439508617
416,1644542406633919716,0.637432217598,-9.58109664917,0.38245934248,acc,,,
417,1644542406635933638,0.637432217598,-9.61051654816,0.509945809841,acc,,,
418,1644542406637199402,,,,gyr,0.11344639957,0.240855440497,0.0226892791688
419,1644542406637949467,0.637432217598,-9.61051654816,0.529559075832,acc,,,
420,1644542406639963388,0.725692093372,-9.64974308014,0.558979034424,acc,,,
421,1644542406641977072,0.686465501785,-9.62032318115,0.490332484245,acc,,,
422,1644542406642211199,,,,gyr,0.0767944902182,0.197222203016,0.0174532923847
423,1644542406643990993,0.696272134781,-9.62032318115,0.421685934067,acc,,,
424,1644542406646006823,0.598205626011,-9.61051654816,0.402072638273,acc,,,
425,1644542406647222996,,,,gyr,0.0139626339078,0.101229093969,0.00349065847695
426,1644542406648020744,0.598205626011,-9.58109664917,0.558979034424,acc,,,
427,1644542406650034666,0.598205626011,-9.61051654816,0.666852176189,acc,,,
428,1644542406652048588,0.558979034424,-9.64974308014,0.529559075832,acc,,,
429,1644542406652234316,,,,gyr,-0.0296705961227,0.00872664619237,-0.0069813169539
430,1644542406654064417,0.57859236002,-9.61051654816,0.558979034424,acc,,,
431,1644542406656078100,0.509945809841,-9.64974308014,0.558979034424,acc,,,
432,1644542406657246113,,,,gyr,-0.0855211317539,-0.0261799395084,-0.0104719754308
433,1644542406658092022,0.637432217598,-9.67916297913,0.598205626011,acc,,,
434,1644542406660105944,0.490332484245,-9.62032318115,0.686465501785,acc,,,
435,1644542406662119865,1.08853816986,-10.0420093536,-0.245166242123,acc,,,
436,1644542406662257910,,,,gyr,-0.162315621972,-0.0418879017234,-0.0139626339078
437,1644542406664131641,0.00980664975941,-9.06134414673,-1.47099745274,acc,,,
438,1644542406666149616,1.05911815166,-9.81645679474,0.686465501785,acc,,,
439,1644542406667269468,,,,gyr,-0.150098308921,-0.0558505356312,0.0
440,1644542406668163300,0.264779537916,-9.56148338318,0.529559075832,acc,,,
441,1644542406670177221,0.666852176189,-9.53206348419,-0.0294199492782,acc,,,
442,1644542406672193050,0.38245934248,-9.61051654816,0.274586200714,acc,,,
443,1644542406672279119,,,,gyr,-0.0139626339078,-0.00523598771542,0.0104719754308
444,1644542406674206972,0.509945809841,-9.58109664917,0.313812792301,acc,,,
445,1644542406676220894,0.637432217598,-9.62032318115,0.137293100357,acc,,,
446,1644542406677290678,,,,gyr,-0.0104719754308,-0.00523598771542,0.0104719754308
447,1644542406678236723,0.549172401428,-9.53206348419,0.294199496508,acc,,,
448,1644542406680250645,0.490332484245,-9.66935634613,0.137293100357,acc,,,
449,1644542406682264328,0.549172401428,-9.62032318115,0.225552946329,acc,,,
450,1644542406682302475,,,,gyr,-0.00872664619237,0.0,0.00174532923847
451,1644542406684280157,0.598205626011,-9.61051654816,0.245166242123,acc,,,
452,1644542406686294079,0.549172401428,-9.62032318115,0.166713044047,acc,,,
453,1644542406687314272,,,,gyr,-0.00523598771542,-0.00872664619237,0.0
454,1644542406688308001,0.549172401428,-9.64974308014,0.0980664938688,acc,,,
455,1644542406690324068,0.627625584602,-9.58109664917,0.196132987738,acc,,,
456,1644542406692325830,,,,gyr,-0.00174532923847,-0.00349065847695,0.0
457,1644542406692337990,0.598205626011,-9.58109664917,0.196132987738,acc,,,
458,1644542406694351912,0.558979034424,-9.66935634613,0.12748645246,acc,,,
459,1644542406696365595,0.627625584602,-9.57129001617,0.225552946329,acc,,,
460,1644542406697337389,,,,gyr,0.00174532923847,0.0,-0.00523598771542
461,1644542406698381424,0.686465501785,-9.62032318115,0.225552946329,acc,,,
462,1644542406700395346,0.598205626011,-9.64974308014,0.12748645246,acc,,,
463,1644542406702349186,,,,gyr,0.0139626339078,0.00349065847695,-0.0104719754308
464,1644542406702409267,0.57859236002,-9.61051654816,0.12748645246,acc,,,
465,1644542406704423189,0.637432217598,-9.62032318115,0.176519691944,acc,,,
466,1644542406706439018,0.666852176189,-9.67916297913,0.245166242123,acc,,,
467,1644542406707360744,,,,gyr,0.0104719754308,0.00174532923847,-0.0069813169539
468,1644542406708452940,0.637432217598,-9.67916297913,0.12748645246,acc,,,
469,1644542406710466623,0.637432217598,-9.58109664917,0.176519691944,acc,,,
470,1644542406712372541,,,,gyr,0.0104719754308,0.0069813169539,-0.00523598771542
471,1644542406712482452,0.696272134781,-9.64974308014,0.176519691944,acc,,,
472,1644542406714496374,0.598205626011,-9.64974308014,0.166713044047,acc,,,
473,1644542406716510296,0.627625584602,-9.64974308014,0.196132987738,acc,,,
474,1644542406717384338,,,,gyr,0.00872664619237,0.00349065847695,0.0
475,1644542406718524218,0.696272134781,-9.61051654816,0.176519691944,acc,,,
476,1644542406720540047,0.637432217598,-9.64974308014,0.166713044047,acc,,,
477,1644542406722395897,,,,gyr,0.0,0.0,-0.00174532923847
478,1644542406722553968,0.598205626011,-9.62032318115,0.166713044047,acc,,,
479,1644542406724567652,0.598205626011,-9.58109664917,0.245166242123,acc,,,
480,1644542406726583481,0.57859236002,-9.62032318115,0.196132987738,acc,,,
481,1644542406727407455,,,,gyr,0.0,-0.00174532923847,0.0
482,1644542406728597403,0.627625584602,-9.64974308014,0.196132987738,acc,,,
483,1644542406730611324,0.57859236002,-9.61051654816,0.274586200714,acc,,,
484,1644542406732419252,,,,gyr,-0.0069813169539,0.0,0.00174532923847
485,1644542406732627153,0.57859236002,-9.64974308014,0.274586200714,acc,,,
486,1644542406734641075,0.637432217598,-9.67916297913,0.274586200714,acc,,,
487,1644542406736656904,0.558979034424,-9.66935634613,0.313812792301,acc,,,
488,1644542406737428904,,,,gyr,-0.0069813169539,-0.00174532923847,0.0
489,1644542406738670826,0.558979034424,-9.58109664917,0.313812792301,acc,,,
490,1644542406740684509,0.57859236002,-9.62032318115,0.264779537916,acc,,,
491,1644542406742440701,,,,gyr,-0.00872664619237,-0.00523598771542,0.00174532923847
492,1644542406742700338,0.558979034424,-9.61051654816,0.294199496508,acc,,,
493,1644542406744714260,0.549172401428,-9.67916297913,0.343232750893,acc,,,
494,1644542406746728182,0.57859236002,-9.64974308014,0.313812792301,acc,,,
495,1644542406747452259,,,,gyr,-0.0069813169539,-0.00523598771542,0.0
496,1644542406748742104,0.598205626011,-9.61051654816,0.274586200714,acc,,,
497,1644542406750758171,0.558979034424,-9.62032318115,0.264779537916,acc,,,
498,1644542406752463818,,,,gyr,-0.0069813169539,-0.00174532923847,0.0069813169539
499,1644542406752771854,0.549172401428,-9.66935634613,0.264779537916,acc,,,
500,1644542406754785776,0.549172401428,-9.61051654816,0.274586200714,acc,,,
501,1644542406756801844,0.57859236002,-9.64974308014,0.274586200714,acc,,,
502,1644542406757475615,,,,gyr,-0.0104719754308,-0.00349065847695,0.00349065847695
503,1644542406758815527,0.598205626011,-9.66935634613,0.294199496508,acc,,,
504,1644542406760829449,0.57859236002,-9.61051654816,0.225552946329,acc,,,
505,1644542406762487411,,,,gyr,-0.00872664619237,-0.00174532923847,0.00523598771542
506,1644542406762843370,0.627625584602,-9.62032318115,0.225552946329,acc,,,
507,1644542406764859200,0.627625584602,-9.61051654816,0.225552946329,acc,,,
508,1644542406766873121,0.598205626011,-9.70858287811,0.137293100357,acc,,,
509,1644542406767498970,,,,gyr,-0.00523598771542,-0.0069813169539,0.00349065847695
510,1644542406768887043,0.598205626011,-9.66935634613,0.12748645246,acc,,,
511,1644542406770900726,0.558979034424,-9.61051654816,0.0,acc,,,
512,1644542406772510767,,,,gyr,-0.0104719754308,-0.0209439508617,0.00872664619237
513,1644542406772914648,0.558979034424,-9.61051654816,-0.0294199492782,acc,,,
514,1644542406774928570,0.549172401428,-9.62032318115,-0.0392265990376,acc,,,
515,1644542406776942492,0.57859236002,-9.58109664917,-0.0294199492782,acc,,,
516,1644542406777522326,,,,gyr,-0.00523598771542,-0.069813169539,0.0069813169539
517,1644542406778958321,0.598205626011,-9.58109664917,0.00980664975941,acc,,,
518,1644542406780974150,0.598205626011,-9.62032318115,0.0392265990376,acc,,,
519,1644542406782533884,,,,gyr,0.0,-0.150098308921,0.00174532923847
520,1644542406782988071,0.627625584602,-9.58109664917,0.137293100357,acc,,,
521,1644542406785001993,0.627625584602,-9.64974308014,0.176519691944,acc,,,
522,1644542406787017822,0.558979034424,-9.61051654816,0.12748645246,acc,,,
523,1644542406787545681,,,,gyr,-0.00174532923847,-0.223402142525,0.0
524,1644542406789031506,0.666852176189,-9.66935634613,0.196132987738,acc,,,
525,1644542406791045427,0.558979034424,-9.62032318115,0.12748645246,acc,,,
526,1644542406792557478,,,,gyr,-0.0069813169539,-0.246091425419,0.00523598771542
527,1644542406793061256,0.627625584602,-9.62032318115,0.176519691944,acc,,,
528,1644542406795075178,0.666852176189,-9.62032318115,0.313812792301,acc,,,
529,1644542406797089100,0.666852176189,-9.64974308014,0.402072638273,acc,,,
530,1644542406797569036,,,,gyr,-0.00523598771542,-0.237364768982,0.00523598771542
531,1644542406799103022,0.627625584602,-9.62032318115,0.451105892658,acc,,,
532,1644542406801118851,0.598205626011,-9.61051654816,0.362846046686,acc,,,
533,1644542406802580833,,,,gyr,-0.0069813169539,-0.197222203016,0.0
534,1644542406803132534,0.57859236002,-9.58109664917,0.343232750893,acc,,,
535,1644542406805146456,0.627625584602,-9.62032318115,0.294199496508,acc,,,
536,1644542406807160378,0.57859236002,-9.64974308014,0.343232750893,acc,,,
537,1644542406807590246,,,,gyr,-0.00523598771542,-0.141371667385,0.0
538,1644542406809176207,0.558979034424,-9.61051654816,0.264779537916,acc,,,
539,1644542406811190128,0.598205626011,-9.64974308014,0.313812792301,acc,,,
540,1644542406812602043,,,,gyr,-0.00349065847695,-0.102974422276,0.00349065847695
541,1644542406813204050,0.598205626011,-9.62032318115,0.294199496508,acc,,,
542,1644542406815219879,0.627625584602,-9.61051654816,0.264779537916,acc,,,
543,1644542406817233801,0.598205626011,-9.61051654816,0.264779537916,acc,,,
544,1644542406817613840,,,,gyr,-0.00523598771542,-0.0837758034468,0.00523598771542
545,1644542406819247484,0.598205626011,-9.58109664917,0.225552946329,acc,,,
546,1644542406821261406,0.627625584602,-9.58109664917,0.264779537916,acc,,,
547,1644542406822625399,,,,gyr,-0.0069813169539,-0.0645771846175,0.0139626339078
548,1644542406823275328,0.637432217598,-9.62032318115,0.264779537916,acc,,,
549,1644542406825289249,0.57859236002,-9.58109664917,0.245166242123,acc,,,
550,1644542406827303171,0.598205626011,-9.62032318115,0.196132987738,acc,,,
551,1644542406827637196,,,,gyr,-0.00349065847695,-0.0610865242779,0.0314159244299
552,1644542406829316854,0.558979034424,-9.62032318115,0.225552946329,acc,,,
553,1644542406831332684,0.598205626011,-9.61051654816,0.225552946329,acc,,,
554,1644542406832648754,,,,gyr,0.0,-0.0558505356312,0.0383972451091
555,1644542406833346605,0.558979034424,-9.64974308014,0.274586200714,acc,,,
556,1644542406835360527,0.549172401428,-9.61051654816,0.245166242123,acc,,,
557,1644542406837376356,0.627625584602,-9.61051654816,0.264779537916,acc,,,
558,1644542406837660313,,,,gyr,0.0,-0.0610865242779,0.0436332300305
559,1644542406839390278,0.627625584602,-9.66935634613,0.274586200714,acc,,,
560,1644542406841404200,0.598205626011,-9.64974308014,0.176519691944,acc,,,
561,1644542406842672110,,,,gyr,0.00174532923847,-0.0610865242779,0.0471238903701
562,1644542406843418121,0.558979034424,-9.62032318115,0.176519691944,acc,,,
563,1644542406845431805,0.627625584602,-9.62032318115,0.176519691944,acc,,,
564,1644542406847447872,0.598205626011,-9.66935634613,0.137293100357,acc,,,
565,1644542406847683907,,,,gyr,-0.00174532923847,-0.069813169539,0.0558505356312
566,1644542406849461555,0.57859236002,-9.64974308014,0.166713044047,acc,,,
567,1644542406851475477,0.598205626011,-9.67916297913,0.0980664938688,acc,,,
568,1644542406852695465,,,,gyr,-0.00174532923847,-0.0802851468325,0.0593411922455
569,1644542406853489399,0.558979034424,-9.62032318115,0.176519691944,acc,,,
570,1644542406855503321,0.598205626011,-9.64974308014,0.12748645246,acc,,,
571,1644542406857519388,0.627625584602,-9.61051654816,0.176519691944,acc,,,
572,1644542406857707262,,,,gyr,-0.00174532923847,-0.0977384373546,0.0610865242779
573,1644542406859533072,0.637432217598,-9.64974308014,0.166713044047,acc,,,
574,1644542406861546993,0.637432217598,-9.66935634613,0.225552946329,acc,,,
575,1644542406862718821,,,,gyr,-0.00174532923847,-0.104719758034,0.0610865242779
576,1644542406863560677,0.598205626011,-9.62032318115,0.176519691944,acc,,,
577,1644542406865574598,0.57859236002,-9.62032318115,0.225552946329,acc,,,
578,1644542406867590666,0.549172401428,-9.62032318115,0.196132987738,acc,,,
579,1644542406867730379,,,,gyr,-0.00174532923847,-0.0977384373546,0.0610865242779
580,1644542406869604588,0.598205626011,-9.64974308014,0.166713044047,acc,,,
581,1644542406871618509,0.529559075832,-9.62032318115,0.176519691944,acc,,,
582,1644542406872740269,,,,gyr,-0.00349065847695,-0.0785398185253,0.0471238903701
583,1644542406873632193,0.529559075832,-9.64974308014,0.245166242123,acc,,,
584,1644542406875646114,0.490332484245,-9.61051654816,0.245166242123,acc,,,
585,1644542406877661943,0.509945809841,-9.58109664917,0.196132987738,acc,,,
586,1644542406877752066,,,,gyr,0.0,-0.0610865242779,0.0383972451091
587,1644542406879675865,0.490332484245,-9.62032318115,0.225552946329,acc,,,
588,1644542406881689787,0.529559075832,-9.62032318115,0.176519691944,acc,,,
589,1644542406882763624,,,,gyr,0.0,-0.0418879017234,0.0174532923847
590,1644542406883703709,0.509945809841,-9.61051654816,0.225552946329,acc,,,
591,1644542406885719538,0.490332484245,-9.61051654816,0.264779537916,acc,,,
592,1644542406887733459,0.470719188452,-9.62032318115,0.294199496508,acc,,,
593,1644542406887775421,,,,gyr,-0.00174532923847,-0.0296705961227,-0.0069813169539
594,1644542406889747143,0.451105892658,-9.61051654816,0.245166242123,acc,,,
595,1644542406891762972,0.421685934067,-9.58109664917,0.225552946329,acc,,,
596,1644542406892786980,,,,gyr,0.0,-0.0139626339078,-0.0209439508617
597,1644542406893776894,0.402072638273,-9.61051654816,0.264779537916,acc,,,
598,1644542406895790815,0.451105892658,-9.61051654816,0.264779537916,acc,,,
599,1644542406897798538,,,,gyr,0.0,-0.00523598771542,-0.0523598790169
600,1644542406897804737,0.490332484245,-9.66935634613,0.264779537916,acc,,,
601,1644542406899820566,0.421685934067,-9.61051654816,0.245166242123,acc,,,
602,1644542406901834488,0.421685934067,-9.61051654816,0.245166242123,acc,,,
603,1644542406902810335,,,,gyr,-0.00174532923847,-0.00349065847695,-0.0715584978461
604,1644542406903848410,0.490332484245,-9.57129001617,0.225552946329,acc,,,
605,1644542406905864239,0.490332484245,-9.58109664917,0.274586200714,acc,,,
606,1644542406907822132,,,,gyr,0.0,0.0,-0.102974422276
607,1644542406907877922,0.490332484245,-9.62032318115,0.264779537916,acc,,,
608,1644542406909891844,0.558979034424,-9.61051654816,0.245166242123,acc,,,
609,1644542406911905766,0.558979034424,-9.61051654816,0.245166242123,acc,,,
610,1644542406912833691,,,,gyr,-0.00523598771542,-0.0104719754308,-0.111701071262
611,1644542406913921595,0.558979034424,-9.62032318115,0.264779537916,acc,,,
612,1644542406915935516,0.558979034424,-9.61051654816,0.245166242123,acc,,,
613,1644542406917845488,,,,gyr,-0.00174532923847,-0.0261799395084,-0.11344639957
614,1644542406917949438,0.598205626011,-9.5222568512,0.176519691944,acc,,,
615,1644542406919963121,1.54945063591,-9.70858287811,-0.196132987738,acc,,,
616,1644542406921978951,0.558979034424,-9.66935634613,1.20621788502,acc,,,
617,1644542406922857285,,,,gyr,0.00174532923847,-0.0418879017234,-0.0890117883682
618,1644542406923992872,0.57859236002,-9.57129001617,0.0686465501785,acc,,,
619,1644542406926006794,0.686465501785,-9.66935634613,0.313812792301,acc,,,
620,1644542406927868605,,,,gyr,0.00174532923847,-0.0069813169539,-0.0139626339078
621,1644542406928022623,0.470719188452,-9.56148338318,0.245166242123,acc,,,
622,1644542406930036545,0.666852176189,-9.58109664917,0.274586200714,acc,,,
623,1644542406932050467,0.57859236002,-9.61051654816,0.176519691944,acc,,,
624,1644542406932880402,,,,gyr,0.0,0.0,-0.00349065847695
625,1644542406934066296,0.598205626011,-9.61051654816,0.225552946329,acc,,,
626,1644542406936080217,0.627625584602,-9.61051654816,0.264779537916,acc,,,
627,1644542406937892199,,,,gyr,-0.00523598771542,-0.00523598771542,-0.00174532923847
628,1644542406938093901,0.666852176189,-9.66935634613,0.225552946329,acc,,,
629,1644542406940110207,0.627625584602,-9.62032318115,0.176519691944,acc,,,
630,1644542406942123890,0.666852176189,-9.64974308014,0.264779537916,acc,,,
631,1644542406942901850,,,,gyr,-0.00523598771542,-0.0104719754308,0.00174532923847
632,1644542406944137812,0.666852176189,-9.62032318115,0.245166242123,acc,,,
633,1644542406946153641,0.57859236002,-9.61051654816,0.176519691944,acc,,,
634,1644542406947913647,,,,gyr,-0.00523598771542,-0.0104719754308,0.00174532923847
635,1644542406948167562,0.637432217598,-9.66935634613,0.12748645246,acc,,,
636,1644542406950181484,0.627625584602,-9.58109664917,0.245166242123,acc,,,
637,1644542406952195406,0.637432217598,-9.67916297913,0.225552946329,acc,,,
638,1644542406952925205,,,,gyr,0.0,-0.0104719754308,0.0
639,1644542406954211235,0.598205626011,-9.64974308014,0.196132987738,acc,,,
640,1644542406956225157,0.637432217598,-9.67916297913,0.225552946329,acc,,,
641,1644542406957936764,,,,gyr,0.0,-0.0069813169539,-0.00523598771542
642,1644542406958238840,0.598205626011,-9.64974308014,0.264779537916,acc,,,
643,1644542406960254669,0.637432217598,-9.64974308014,0.137293100357,acc,,,
644,1644542406962268591,0.637432217598,-9.62032318115,0.225552946329,acc,,,
645,1644542406962948561,,,,gyr,0.0069813169539,0.00174532923847,-0.0069813169539
646,1644542406964282513,0.637432217598,-9.61051654816,0.225552946329,acc,,,
647,1644542406966298342,0.598205626011,-9.62032318115,0.196132987738,acc,,,
648,1644542406967960119,,,,gyr,0.00523598771542,0.0,-0.00174532923847
649,1644542406968312263,0.558979034424,-9.64974308014,0.166713044047,acc,,,
650,1644542406970326185,0.57859236002,-9.61051654816,0.264779537916,acc,,,
651,1644542406972342014,0.598205626011,-9.66935634613,0.264779537916,acc,,,
652,1644542406972971916,,,,gyr,0.00523598771542,0.00523598771542,-0.00349065847695
653,1644542406974355936,0.57859236002,-9.67916297913,0.196132987738,acc,,,
654,1644542406976369619,0.57859236002,-9.62032318115,0.264779537916,acc,,,
655,1644542406977983713,,,,gyr,0.00523598771542,0.0,-0.00523598771542
656,1644542406978385448,0.57859236002,-9.67916297913,0.245166242123,acc,,,
657,1644542406980399370,0.558979034424,-9.62032318115,0.294199496508,acc,,,
658,1644542406982413292,0.549172401428,-9.64974308014,0.245166242123,acc,,,
659,1644542406982995272,,,,gyr,0.00349065847695,0.0,-0.00174532923847
660,1644542406984427214,0.558979034424,-9.58109664917,0.225552946329,acc,,,
661,1644542406986443043,0.558979034424,-9.62032318115,0.264779537916,acc,,,
662,1644542406988007069,,,,gyr,0.00174532923847,0.0,0.0
663,1644542406988456964,0.57859236002,-9.62032318115,0.225552946329,acc,,,
664,1644542406990470886,0.598205626011,-9.64974308014,0.245166242123,acc,,,
665,1644542406992486715,0.598205626011,-9.66935634613,0.274586200714,acc,,,
666,1644542406993018866,,,,gyr,0.00349065847695,0.0,0.0
667,1644542406994500399,0.57859236002,-9.62032318115,0.225552946329,acc,,,
668,1644542406996514320,0.549172401428,-9.61051654816,0.264779537916,acc,,,
669,1644542406998030186,,,,gyr,0.0,0.0,-0.00523598771542
670,1644542406998530388,0.57859236002,-9.62032318115,0.274586200714,acc,,,
671,1644542407000544071,0.549172401428,-9.62032318115,0.225552946329,acc,,,
672,1644542407002557993,0.57859236002,-9.62032318115,0.225552946329,acc,,,
673,1644542407003041983,,,,gyr,0.00174532923847,0.0,0.0
674,1644542407004574060,0.57859236002,-9.61051654816,0.166713044047,acc,,,
675,1644542407006587982,0.57859236002,-9.61051654816,0.196132987738,acc,,,
676,1644542407008053780,,,,gyr,-0.00174532923847,0.0,0.0
677,1644542407008601904,0.598205626011,-9.66935634613,0.196132987738,acc,,,
678,1644542407010617733,0.598205626011,-9.62032318115,0.166713044047,acc,,,
679,1644542407012631416,0.598205626011,-9.62032318115,0.196132987738,acc,,,
680,1644542407013063431,,,,gyr,-0.00174532923847,0.0,-0.00174532923847
681,1644542407014645338,0.598205626011,-9.62032318115,0.225552946329,acc,,,
682,1644542407016661167,0.627625584602,-9.62032318115,0.225552946329,acc,,,
683,1644542407018075228,,,,gyr,0.0,0.00174532923847,0.0
684,1644542407018675089,0.637432217598,-9.64974308014,0.225552946329,acc,,,
685,1644542407020689011,0.598205626011,-9.66935634613,0.245166242123,acc,,,
686,1644542407022702932,0.598205626011,-9.67916297913,0.196132987738,acc,,,
687,1644542407023087025,,,,gyr,0.0,0.0,-0.00174532923847
688,1644542407024718761,0.627625584602,-9.62032318115,0.225552946329,acc,,,
689,1644542407026732683,0.637432217598,-9.64974308014,0.225552946329,acc,,,
690,1644542407028098583,,,,gyr,0.0,0.0,0.0
691,1644542407028748512,0.598205626011,-9.66935634613,0.176519691944,acc,,,
692,1644542407030762434,0.627625584602,-9.61051654816,0.176519691944,acc,,,
693,1644542407032776117,0.637432217598,-9.62032318115,0.176519691944,acc,,,
694,1644542407033110142,,,,gyr,0.0,0.00174532923847,-0.00174532923847
695,1644542407034790039,0.637432217598,-9.62032318115,0.137293100357,acc,,,
696,1644542407036805868,0.627625584602,-9.64974308014,0.176519691944,acc,,,
697,1644542407038121939,,,,gyr,0.0,0.0,0.00349065847695
698,1644542407038819790,0.666852176189,-9.64974308014,0.245166242123,acc,,,
699,1644542407040833712,0.57859236002,-9.62032318115,0.166713044047,acc,,,
700,1644542407042849541,0.627625584602,-9.61051654816,0.225552946329,acc,,,
701,1644542407043133497,,,,gyr,-0.00174532923847,0.0,0.0
702,1644542407044863462,0.598205626011,-9.64974308014,0.264779537916,acc,,,
703,1644542407046877384,0.666852176189,-9.58109664917,0.245166242123,acc,,,
704,1644542407048145294,,,,gyr,0.0,-0.00174532923847,0.00523598771542
705,1644542407048891068,0.627625584602,-9.64974308014,0.196132987738,acc,,,
706,1644542407050904989,0.627625584602,-9.64974308014,0.245166242123,acc,,,
707,1644542407052920818,0.57859236002,-9.62032318115,0.274586200714,acc,,,
708,1644542407053157091,,,,gyr,0.0,0.0,0.00349065847695
709,1644542407054934740,0.598205626011,-9.64974308014,0.274586200714,acc,,,
710,1644542407056948662,0.57859236002,-9.62032318115,0.274586200714,acc,,,
711,1644542407058168650,,,,gyr,0.0,-0.00349065847695,0.0
712,1644542407058962584,0.598205626011,-9.58109664917,0.245166242123,acc,,,
713,1644542407060976505,0.558979034424,-9.62032318115,0.264779537916,acc,,,
714,1644542407062990427,0.57859236002,-9.62032318115,0.264779537916,acc,,,
715,1644542407063180447,,,,gyr,0.0,0.0,0.00349065847695
716,1644542407065006256,0.558979034424,-9.64974308014,0.274586200714,acc,,,
717,1644542407067019939,0.558979034424,-9.61051654816,0.274586200714,acc,,,
718,1644542407068192244,,,,gyr,0.0,-0.00174532923847,0.00349065847695
719,1644542407069033861,0.598205626011,-9.61051654816,0.313812792301,acc,,,
720,1644542407071047783,0.57859236002,-9.61051654816,0.225552946329,acc,,,
721,1644542407073061705,0.598205626011,-9.61051654816,0.274586200714,acc,,,
722,1644542407073201656,,,,gyr,-0.00349065847695,0.0,-0.00174532923847
723,1644542407075075626,0.558979034424,-9.58109664917,0.264779537916,acc,,,
724,1644542407077091455,0.549172401428,-9.62032318115,0.274586200714,acc,,,
725,1644542407078213453,,,,gyr,-0.00174532923847,-0.00174532923847,0.00349065847695
726,1644542407079105377,0.57859236002,-9.62032318115,0.264779537916,acc,,,
727,1644542407081119061,0.627625584602,-9.62032318115,0.245166242123,acc,,,
728,1644542407083132982,0.598205626011,-9.62032318115,0.294199496508,acc,,,
729,1644542407083227158,,,,gyr,-0.0104719754308,-0.00349065847695,0.00349065847695
730,1644542407085146904,0.627625584602,-9.58109664917,0.264779537916,acc,,,
731,1644542407087162733,0.57859236002,-9.58109664917,0.245166242123,acc,,,
732,1644542407088236809,,,,gyr,-0.00174532923847,-0.00174532923847,0.0
733,1644542407089176655,0.57859236002,-9.62032318115,0.225552946329,acc,,,
734,1644542407091190577,0.558979034424,-9.64974308014,0.166713044047,acc,,,
735,1644542407093204498,0.57859236002,-9.62032318115,0.245166242123,acc,,,
736,1644542407093248606,,,,gyr,-0.0069813169539,-0.00174532923847,0.00174532923847
737,1644542407095220566,0.598205626011,-9.64974308014,0.245166242123,acc,,,
738,1644542407097234488,0.627625584602,-9.66935634613,0.225552946329,acc,,,
739,1644542407098260164,,,,gyr,-0.00174532923847,0.0,-0.00174532923847
740,1644542407099247932,0.627625584602,-9.61051654816,0.196132987738,acc,,,
741,1644542407101261854,0.558979034424,-9.64974308014,0.196132987738,acc,,,
742,1644542407103271961,,,,gyr,-0.00349065847695,0.0,0.0
743,1644542407103277922,0.598205626011,-9.64974308014,0.225552946329,acc,,,
744,1644542407105291843,0.666852176189,-9.66935634613,0.176519691944,acc,,,
745,1644542407107305765,0.637432217598,-9.61051654816,0.245166242123,acc,,,
746,1644542407108283758,,,,gyr,-0.00349065847695,0.0,0.0
747,1644542407109319687,0.627625584602,-9.61051654816,0.176519691944,acc,,,
748,1644542407111333609,0.598205626011,-9.64974308014,0.225552946329,acc,,,
749,1644542407113295078,,,,gyr,-0.00174532923847,0.00174532923847,0.00174532923847
750,1644542407113349438,0.598205626011,-9.62032318115,0.225552946329,acc,,,
751,1644542407115363359,0.637432217598,-9.64974308014,0.196132987738,acc,,,
752,1644542407117377043,0.598205626011,-9.61051654816,0.225552946329,acc,,,
753,1644542407118306875,,,,gyr,-0.00523598771542,-0.00174532923847,0.0
754,1644542407119390965,0.57859236002,-9.66935634613,0.166713044047,acc,,,
755,1644542407121406794,0.627625584602,-9.62032318115,0.196132987738,acc,,,
756,1644542407123318672,,,,gyr,-0.00523598771542,0.0,0.00349065847695
757,1644542407123420715,0.627625584602,-9.62032318115,0.176519691944,acc,,,
758,1644542407125436544,0.598205626011,-9.62032318115,0.176519691944,acc,,,
759,1644542407127450466,0.57859236002,-9.61051654816,0.166713044047,acc,,,
760,1644542407128330231,,,,gyr,-0.00349065847695,0.0,0.00174532923847
761,1644542407129464388,0.558979034424,-9.58109664917,0.245166242123,acc,,,
762,1644542407131478310,0.598205626011,-9.62032318115,0.225552946329,acc,,,
763,1644542407133342028,,,,gyr,-0.00349065847695,-0.00174532923847,0.00349065847695
764,1644542407133494139,0.558979034424,-9.58109664917,0.196132987738,acc,,,
765,1644542407135508060,0.57859236002,-9.62032318115,0.245166242123,acc,,,
766,1644542407137521744,0.529559075832,-9.61051654816,0.225552946329,acc,,,
767,1644542407138353825,,,,gyr,-0.00349065847695,-0.00174532923847,0.0
768,1644542407139535666,0.57859236002,-9.62032318115,0.245166242123,acc,,,
769,1644542407141551495,0.57859236002,-9.62032318115,0.225552946329,acc,,,
770,1644542407143365383,,,,gyr,-0.00523598771542,-0.00349065847695,0.0
771,1644542407143565416,0.558979034424,-9.61051654816,0.225552946329,acc,,,
772,1644542407145579338,0.598205626011,-9.62032318115,0.245166242123,acc,,,
773,1644542407147593260,0.558979034424,-9.61051654816,0.274586200714,acc,,,
774,1644542407148375273,,,,gyr,-0.00174532923847,-0.00174532923847,0.00174532923847
775,1644542407149609089,0.549172401428,-9.62032318115,0.264779537916,acc,,,
776,1644542407151623011,0.598205626011,-9.62032318115,0.245166242123,acc,,,
777,1644542407153387070,,,,gyr,-0.00872664619237,-0.00349065847695,0.00349065847695
778,1644542407153636694,0.57859236002,-9.66935634613,0.225552946329,acc,,,
779,1644542407155652761,0.549172401428,-9.62032318115,0.245166242123,acc,,,
780,1644542407157666445,0.558979034424,-9.62032318115,0.264779537916,acc,,,
781,1644542407158398390,,,,gyr,-0.00872664619237,-0.00174532923847,0.00523598771542
782,1644542407159680367,0.598205626011,-9.61051654816,0.274586200714,acc,,,
783,1644542407161694288,0.57859236002,-9.58109664917,0.196132987738,acc,,,
784,1644542407163410187,,,,gyr,-0.0139626339078,-0.00523598771542,0.00523598771542
785,1644542407163710117,0.57859236002,-9.66935634613,0.196132987738,acc,,,
786,1644542407165724039,0.598205626011,-9.62032318115,0.264779537916,acc,,,
787,1644542407167737961,0.598205626011,-9.62032318115,0.225552946329,acc,,,
788,1644542407168421984,,,,gyr,-0.0069813169539,-0.00349065847695,0.0104719754308
789,1644542407169751883,0.627625584602,-9.61051654816,0.176519691944,acc,,,
790,1644542407171765566,0.57859236002,-9.61051654816,0.166713044047,acc,,,
791,1644542407173433542,,,,gyr,-0.00872664619237,-0.00349065847695,0.00349065847695
792,1644542407173779488,0.57859236002,-9.64974308014,0.137293100357,acc,,,
793,1644542407175795317,0.627625584602,-9.61051654816,0.176519691944,acc,,,
794,1644542407177809238,0.57859236002,-9.61051654816,0.166713044047,acc,,,
795,1644542407178445339,,,,gyr,-0.00523598771542,0.0,0.00523598771542
796,1644542407179823160,0.627625584602,-9.62032318115,0.176519691944,acc,,,
797,1644542407181839228,0.627625584602,-9.62032318115,0.176519691944,acc,,,
798,1644542407183457136,,,,gyr,-0.00349065847695,-0.00349065847695,0.00174532923847
799,1644542407183852911,0.637432217598,-9.61051654816,0.196132987738,acc,,,
800,1644542407185866833,0.637432217598,-9.64974308014,0.245166242123,acc,,,
801,1644542407187880754,0.637432217598,-9.62032318115,0.196132987738,acc,,,
802,1644542407188468695,,,,gyr,-0.00523598771542,-0.00523598771542,0.00174532923847
803,1644542407189896822,0.637432217598,-9.70858287811,0.196132987738,acc,,,
804,1644542407191910744,0.598205626011,-9.67916297913,0.196132987738,acc,,,
805,1644542407193480492,,,,gyr,0.0,-0.00523598771542,0.0
806,1644542407193924427,0.627625584602,-9.61051654816,0.196132987738,acc,,,
807,1644542407195938349,0.637432217598,-9.57129001617,0.176519691944,acc,,,
808,1644542407197952032,0.627625584602,-9.64974308014,0.196132987738,acc,,,
809,1644542407198492289,,,,gyr,-0.00174532923847,-0.00174532923847,0.0
810,1644542407199968100,0.627625584602,-9.64974308014,0.225552946329,acc,,,
811,1644542407201982021,0.598205626011,-9.58109664917,0.166713044047,acc,,,
812,1644542407203503847,,,,gyr,0.0,0.0,-0.00174532923847
813,1644542407203995943,0.558979034424,-9.64974308014,0.196132987738,acc,,,
814,1644542407206009865,0.558979034424,-9.64974308014,0.264779537916,acc,,,
815,1644542407208023787,0.57859236002,-9.62032318115,0.274586200714,acc,,,
816,1644542407208515644,,,,gyr,0.0,-0.00174532923847,0.0
817,1644542407210037470,0.558979034424,-9.64974308014,0.225552946329,acc,,,
818,1644542407212053299,0.598205626011,-9.62032318115,0.225552946329,acc,,,
819,1644542407213527441,,,,gyr,0.0,-0.00872664619237,0.0
820,1644542407214067221,0.57859236002,-9.64974308014,0.176519691944,acc,,,
821,1644542407216081142,0.57859236002,-9.58109664917,0.264779537916,acc,,,
822,1644542407218095064,0.549172401428,-9.61051654816,0.225552946329,acc,,,
823,1644542407218536854,,,,gyr,0.0,-0.00523598771542,0.0
824,1644542407220108986,0.558979034424,-9.64974308014,0.225552946329,acc,,,
825,1644542407222124815,0.558979034424,-9.61051654816,0.245166242123,acc,,,
826,1644542407223548651,,,,gyr,-0.00174532923847,-0.0139626339078,0.0
827,1644542407224138737,0.627625584602,-9.58109664917,0.137293100357,acc,,,
828,1644542407226152658,0.558979034424,-9.61051654816,0.196132987738,acc,,,
829,1644542407228168488,0.558979034424,-9.58109664917,0.196132987738,acc,,,
830,1644542407228560209,,,,gyr,-0.00523598771542,-0.0296705961227,0.00523598771542
831,1644542407230182171,0.558979034424,-9.58109664917,0.166713044047,acc,,,
832,1644542407232196093,0.549172401428,-9.61051654816,0.245166242123,acc,,,
833,1644542407233572006,,,,gyr,-0.00349065847695,-0.0593411922455,0.0
834,1644542407234210014,0.529559075832,-9.57129001617,0.176519691944,acc,,,
835,1644542407236223936,0.57859236002,-9.58109664917,0.225552946329,acc,,,
836,1644542407238239765,0.558979034424,-9.61051654816,0.245166242123,acc,,,
837,1644542407238583803,,,,gyr,-0.00174532923847,-0.0872664600611,0.00349065847695
838,1644542407240253687,0.57859236002,-9.61051654816,0.196132987738,acc,,,
839,1644542407242267609,0.57859236002,-9.58109664917,0.274586200714,acc,,,
840,1644542407243595362,,,,gyr,-0.00174532923847,-0.11344639957,-0.00349065847695
841,1644542407244283438,0.57859236002,-9.58109664917,0.245166242123,acc,,,
842,1644542407246297359,0.549172401428,-9.61051654816,0.0980664938688,acc,,,
843,1644542407248311281,0.558979034424,-9.61051654816,0.196132987738,acc,,,
844,1644542407248607159,,,,gyr,-0.0069813169539,-0.115191727877,0.0
845,1644542407250324965,0.558979034424,-9.62032318115,0.274586200714,acc,,,
846,1644542407252340794,0.57859236002,-9.61051654816,0.225552946329,acc,,,
847,1644542407253618956,,,,gyr,0.0,-0.127409040928,0.0
848,1644542407254354715,0.666852176189,-9.62032318115,0.225552946329,acc,,,
849,1644542407256368637,0.598205626011,-9.64974308014,0.274586200714,acc,,,
850,1644542407258382559,0.57859236002,-9.66935634613,0.245166242123,acc,,,
851,1644542407258630514,,,,gyr,0.0,-0.129154369235,-0.00174532923847
852,1644542407260398388,0.627625584602,-9.64974308014,0.264779537916,acc,,,
853,1644542407262412310,0.57859236002,-9.58109664917,0.196132987738,acc,,,
854,1644542407263642311,,,,gyr,-0.00174532923847,-0.115191727877,0.0
855,1644542407264426231,0.627625584602,-9.62032318115,0.225552946329,acc,,,
856,1644542407266442060,0.637432217598,-9.64974308014,0.294199496508,acc,,,
857,1644542407268455982,0.57859236002,-9.64974308014,0.313812792301,acc,,,
858,1644542407268654108,,,,gyr,0.00174532923847,-0.101229093969,0.0
859,1644542407270469666,0.627625584602,-9.64974308014,0.313812792301,acc,,,
860,1644542407272483587,0.627625584602,-9.64974308014,0.313812792301,acc,,,
861,1644542407273665667,,,,gyr,0.0,-0.069813169539,0.0
862,1644542407274499416,0.598205626011,-9.64974308014,0.294199496508,acc,,,
863,1644542407276513338,0.627625584602,-9.64974308014,0.225552946329,acc,,,
864,1644542407278527260,0.598205626011,-9.64974308014,0.225552946329,acc,,,
865,1644542407278675318,,,,gyr,0.0,-0.0349065847695,0.0
866,1644542407280541182,0.627625584602,-9.62032318115,0.176519691944,acc,,,
867,1644542407282557011,0.627625584602,-9.62032318115,0.245166242123,acc,,,
868,1644542407283687115,,,,gyr,0.0,-0.0139626339078,0.0
869,1644542407284570932,0.627625584602,-9.66935634613,0.274586200714,acc,,,
870,1644542407286584854,0.627625584602,-9.61051654816,0.245166242123,acc,,,
871,1644542407288598776,0.666852176189,-9.62032318115,0.176519691944,acc,,,
872,1644542407288698673,,,,gyr,0.00174532923847,-0.0069813169539,0.0
873,1644542407290614843,0.598205626011,-9.61051654816,0.245166242123,acc,,,
874,1644542407292628527,0.57859236002,-9.67916297913,0.225552946329,acc,,,
875,1644542407293710470,,,,gyr,0.00174532923847,-0.00174532923847,0.0
876,1644542407294642448,0.558979034424,-9.64974308014,0.196132987738,acc,,,
877,1644542407296656132,0.598205626011,-9.64974308014,0.176519691944,acc,,,
878,1644542407298672199,0.57859236002,-9.64974308014,0.196132987738,acc,,,
879,1644542407298722267,,,,gyr,-0.00174532923847,-0.00174532923847,0.00174532923847
880,1644542407300686121,0.57859236002,-9.62032318115,0.196132987738,acc,,,
881,1644542407302700043,0.558979034424,-9.58109664917,0.176519691944,acc,,,
882,1644542407303733826,,,,gyr,0.00174532923847,0.0,0.0
883,1644542407304713964,0.598205626011,-9.62032318115,0.0980664938688,acc,,,
884,1644542407306729794,0.637432217598,-9.62032318115,0.264779537916,acc,,,
885,1644542407308743715,0.598205626011,-9.62032318115,0.245166242123,acc,,,
886,1644542407308745623,,,,gyr,0.00174532923847,-0.00349065847695,0.0
887,1644542407310757637,0.57859236002,-9.61051654816,0.245166242123,acc,,,
888,1644542407312771320,0.558979034424,-9.62032318115,0.196132987738,acc,,,
889,1644542407313757420,,,,gyr,0.0,-0.0104719754308,0.00349065847695
890,1644542407314785242,0.558979034424,-9.62032318115,0.137293100357,acc,,,
891,1644542407316801071,0.549172401428,-9.67916297913,0.196132987738,acc,,,
892,1644542407318768978,,,,gyr,0.0,-0.0279252678156,0.0
893,1644542407318814993,0.57859236002,-9.64974308014,0.0980664938688,acc,,,
894,1644542407320828915,0.558979034424,-9.58109664917,0.12748645246,acc,,,
895,1644542407322842836,0.558979034424,-9.64974308014,0.137293100357,acc,,,
896,1644542407323780775,,,,gyr,-0.00349065847695,-0.0610865242779,0.0
897,1644542407324858665,0.57859236002,-9.64974308014,0.225552946329,acc,,,
898,1644542407326872587,0.627625584602,-9.66935634613,0.274586200714,acc,,,
899,1644542407328792572,,,,gyr,-0.00174532923847,-0.0942477807403,0.00174532923847
900,1644542407328886509,0.598205626011,-9.64974308014,0.176519691944,acc,,,
901,1644542407330900431,0.627625584602,-9.58109664917,0.166713044047,acc,,,
902,1644542407332914114,0.598205626011,-9.58109664917,0.196132987738,acc,,,
903,1644542407333804131,,,,gyr,0.0,-0.111701071262,0.00174532923847
904,1644542407334928036,0.627625584602,-9.58109664917,0.176519691944,acc,,,
905,1644542407336943865,0.598205626011,-9.62032318115,0.137293100357,acc,,,
906,1644542407338815928,,,,gyr,-0.00174532923847,-0.118682384491,0.0
907,1644542407338957787,0.637432217598,-9.62032318115,0.166713044047,acc,,,
908,1644542407340971708,0.598205626011,-9.61051654816,0.166713044047,acc,,,
909,1644542407342985630,0.57859236002,-9.66935634613,0.313812792301,acc,,,
910,1644542407343827724,,,,gyr,0.00174532923847,-0.132645025849,0.00174532923847
911,1644542407345001459,0.627625584602,-9.61051654816,0.294199496508,acc,,,
912,1644542407347015381,0.598205626011,-9.57129001617,0.196132987738,acc,,,
913,1644542407348839283,,,,gyr,-0.0069813169539,-0.122173048556,0.0
914,1644542407349029303,0.627625584602,-9.66935634613,0.176519691944,acc,,,
915,1644542407351043224,0.598205626011,-9.66935634613,0.137293100357,acc,,,
916,1644542407353056908,0.598205626011,-9.62032318115,0.225552946329,acc,,,
917,1644542407353848934,,,,gyr,-0.00523598771542,-0.11344639957,0.0
918,1644542407355072737,0.627625584602,-9.66935634613,0.274586200714,acc,,,
919,1644542407357086658,0.627625584602,-9.62032318115,0.12748645246,acc,,,
920,1644542407358860493,,,,gyr,0.0,-0.106465086341,-0.00174532923847
921,1644542407359100580,0.637432217598,-9.64974308014,0.166713044047,acc,,,
922,1644542407361114502,0.57859236002,-9.62032318115,0.166713044047,acc,,,
923,1644542407363128424,0.598205626011,-9.62032318115,0.137293100357,acc,,,
924,1644542407363872290,,,,gyr,0.00174532923847,-0.104719758034,0.0
925,1644542407365142345,0.666852176189,-9.67916297913,0.196132987738,acc,,,
926,1644542407367158175,0.627625584602,-9.61051654816,0.274586200714,acc,,,
927,1644542407368884087,,,,gyr,-0.00174532923847,-0.11344639957,0.00174532923847
928,1644542407369172096,0.598205626011,-9.58109664917,0.137293100357,acc,,,
929,1644542407371186018,0.598205626011,-9.61051654816,0.137293100357,acc,,,
930,1644542407373199701,0.558979034424,-9.61051654816,0.166713044047,acc,,,
931,1644542407373895645,,,,gyr,0.00174532923847,-0.122173048556,0.0
932,1644542407375215530,0.558979034424,-9.53206348419,0.225552946329,acc,,,
933,1644542407377229452,0.57859236002,-9.61051654816,0.245166242123,acc,,,
934,1644542407378907442,,,,gyr,0.00174532923847,-0.148352980614,0.00174532923847
935,1644542407379243374,0.549172401428,-9.57129001617,0.245166242123,acc,,,
936,1644542407381257296,0.558979034424,-9.58109664917,0.38245934248,acc,,,
937,1644542407383273125,0.598205626011,-9.67916297913,0.274586200714,acc,,,
938,1644542407383919239,,,,gyr,-0.00174532923847,-0.158824965358,0.0
939,1644542407385287046,0.558979034424,-9.61051654816,0.245166242123,acc,,,
940,1644542407387300968,0.529559075832,-9.61051654816,0.196132987738,acc,,,
941,1644542407388930798,,,,gyr,-0.00349065847695,-0.144862323999,0.0
942,1644542407389314890,0.549172401428,-9.58109664917,0.245166242123,acc,,,
943,1644542407391328812,0.558979034424,-9.71838951111,0.38245934248,acc,,,
944,1644542407393344641,0.57859236002,-9.75761604309,0.294199496508,acc,,,
945,1644542407393942595,,,,gyr,-0.00349065847695,-0.153588980436,0.00349065847695
946,1644542407395358562,0.558979034424,-9.66935634613,0.402072638273,acc,,,
947,1644542407397372246,0.627625584602,-9.67916297913,0.402072638273,acc,,,
948,1644542407398954391,,,,gyr,-0.00523598771542,-0.132645025849,0.0
949,1644542407399386168,0.549172401428,-9.61051654816,0.294199496508,acc,,,
950,1644542407401400089,0.598205626011,-9.62032318115,0.343232750893,acc,,,
951,1644542407403415918,0.637432217598,-9.67916297913,0.264779537916,acc,,,
952,1644542407403965950,,,,gyr,-0.00523598771542,-0.0959931090474,0.00174532923847
953,1644542407405429840,0.558979034424,-9.57129001617,0.245166242123,acc,,,
954,1644542407407443762,0.666852176189,-9.62032318115,0.274586200714,acc,,,
955,1644542407408977747,,,,gyr,-0.0104719754308,-0.0802851468325,0.00349065847695
956,1644542407409457684,0.686465501785,-9.57129001617,0.343232750893,acc,,,
957,1644542407411471605,0.627625584602,-9.5222568512,0.362846046686,acc,,,
958,1644542407413485527,0.627625584602,-9.56148338318,0.274586200714,acc,,,
959,1644542407413989544,,,,gyr,-0.00872664619237,-0.069813169539,0.0
960,1644542407415499210,0.666852176189,-9.57129001617,0.264779537916,acc,,,
961,1644542407417515039,0.637432217598,-9.64974308014,0.274586200714,acc,,,
962,1644542407418999195,,,,gyr,-0.0104719754308,-0.0383972451091,0.00349065847695
963,1644542407419528961,0.666852176189,-9.61051654816,0.264779537916,acc,,,
964,1644542407421542883,0.686465501785,-9.67916297913,0.225552946329,acc,,,
965,1644542407423556805,0.666852176189,-9.71838951111,0.225552946329,acc,,,
966,1644542407424010992,,,,gyr,-0.0069813169539,-0.0139626339078,-0.00174532923847
967,1644542407425572872,0.627625584602,-9.67916297913,0.166713044047,acc,,,
968,1644542407427586555,0.627625584602,-9.67916297913,0.137293100357,acc,,,
969,1644542407429022551,,,,gyr,-0.00174532923847,-0.00349065847695,0.00349065847695
970,1644542407429600477,0.637432217598,-9.67916297913,0.166713044047,acc,,,
971,1644542407431614399,0.627625584602,-9.70858287811,0.176519691944,acc,,,
972,1644542407433628321,0.696272134781,-9.7478094101,0.137293100357,acc,,,
973,1644542407434034109,,,,gyr,0.0,-0.00174532923847,-0.00349065847695
974,1644542407435642004,0.490332484245,-9.56148338318,0.245166242123,acc,,,
975,1644542407437658310,0.686465501785,-9.70858287811,0.176519691944,acc,,,
976,1644542407439045906,,,,gyr,0.0,-0.00174532923847,0.0
977,1644542407439671993,0.598205626011,-9.64974308014,0.0980664938688,acc,,,
978,1644542407441685677,0.598205626011,-9.67916297913,0.196132987738,acc,,,
979,1644542407443701506,0.598205626011,-9.56148338318,0.0980664938688,acc,,,
980,1644542407444057465,,,,gyr,0.0,0.0,0.0
981,1644542407445715189,0.686465501785,-9.58109664917,0.176519691944,acc,,,
982,1644542407447728872,0.549172401428,-9.61051654816,0.137293100357,acc,,,
983,1644542407449068546,,,,gyr,0.0,0.0,0.00174532923847
984,1644542407449742317,0.627625584602,-9.62032318115,0.12748645246,acc,,,
985,1644542407451758385,0.627625584602,-9.64974308014,0.196132987738,acc,,,
986,1644542407453772068,0.57859236002,-9.62032318115,0.196132987738,acc,,,
987,1644542407454079866,,,,gyr,0.00349065847695,0.0,-0.00523598771542
988,1644542407455785751,0.57859236002,-9.58109664917,0.225552946329,acc,,,
989,1644542407457801342,0.598205626011,-9.58109664917,0.196132987738,acc,,,
990,1644542407459090948,,,,gyr,0.0,0.00174532923847,-0.00523598771542
991,1644542407459815025,0.558979034424,-9.58109664917,0.274586200714,acc,,,
992,1644542407461828947,0.549172401428,-9.58109664917,0.245166242123,acc,,,
993,1644542407463842630,0.598205626011,-9.64974308014,0.294199496508,acc,,,
994,1644542407464102268,,,,gyr,0.00174532923847,0.00174532923847,0.0
995,1644542407465858221,0.529559075832,-9.58109664917,0.225552946329,acc,,,
996,1644542407467871904,0.549172401428,-9.58109664917,0.245166242123,acc,,,
997,1644542407469113827,,,,gyr,0.0,0.00174532923847,0.0
998,1644542407469885588,0.558979034424,-9.61051654816,0.196132987738,acc,,,
999,1644542407471901417,0.558979034424,-9.61051654816,0.196132987738,acc,,,
1000,1644542407473915100,0.509945809841,-9.66935634613,0.225552946329,acc,,,
1001,1644542407474124908,,,,gyr,0.00174532923847,0.00349065847695,0.0
1002,1644542407475928783,0.529559075832,-9.66935634613,0.225552946329,acc,,,
1003,1644542407477942467,0.57859236002,-9.62032318115,0.176519691944,acc,,,
1004,1644542407479136229,,,,gyr,-0.00174532923847,0.00349065847695,-0.00349065847695
1005,1644542407479958057,0.598205626011,-9.62032318115,0.264779537916,acc,,,
1006,1644542407481971741,0.558979034424,-9.66935634613,0.196132987738,acc,,,
1007,1644542407483985424,0.598205626011,-9.61051654816,0.245166242123,acc,,,
1008,1644542407484147549,,,,gyr,-0.00349065847695,0.0,0.00174532923847
1009,1644542407485999346,0.57859236002,-9.62032318115,0.225552946329,acc,,,
1010,1644542407488013029,0.57859236002,-9.62032318115,0.225552946329,acc,,,
1011,1644542407489156723,,,,gyr,-0.00349065847695,-0.00349065847695,0.00174532923847
1012,1644542407490028620,0.57859236002,-9.57129001617,0.245166242123,acc,,,
1013,1644542407492042303,0.549172401428,-9.57129001617,0.274586200714,acc,,,
1014,1644542407494055986,0.598205626011,-9.58109664917,0.196132987738,acc,,,
1015,1644542407494168043,,,,gyr,0.0,0.0,0.0
1016,1644542407496069908,0.57859236002,-9.58109664917,0.176519691944,acc,,,
1017,1644542407498085737,0.637432217598,-9.58109664917,0.176519691944,acc,,,
1018,1644542407499179602,,,,gyr,-0.00174532923847,0.0,0.0
1019,1644542407500099659,0.637432217598,-9.62032318115,0.176519691944,acc,,,
1020,1644542407502113342,0.598205626011,-9.58109664917,0.196132987738,acc,,,
1021,1644542407504127264,0.627625584602,-9.64974308014,0.225552946329,acc,,,
1022,1644542407504191160,,,,gyr,0.0,-0.00174532923847,0.0
1023,1644542407506141186,0.686465501785,-9.66935634613,0.225552946329,acc,,,
1024,1644542407508154869,0.637432217598,-9.70858287811,0.176519691944,acc,,,
1025,1644542407509202957,,,,gyr,-0.00349065847695,-0.00174532923847,0.00174532923847
1026,1644542407510170698,0.637432217598,-9.70858287811,0.196132987738,acc,,,
1027,1644542407512184620,0.686465501785,-9.67916297913,0.166713044047,acc,,,
1028,1644542407514198542,0.666852176189,-9.67916297913,0.166713044047,acc,,,
1029,1644542407514214277,,,,gyr,-0.00349065847695,-0.00349065847695,0.00349065847695
1030,1644542407516212463,0.627625584602,-9.71838951111,0.137293100357,acc,,,
1031,1644542407518228054,0.686465501785,-9.66935634613,0.225552946329,acc,,,
1032,1644542407519226074,,,,gyr,-0.00349065847695,-0.0069813169539,0.00174532923847
1033,1644542407520241976,0.637432217598,-9.66935634613,0.176519691944,acc,,,
1034,1644542407522255898,0.627625584602,-9.62032318115,0.176519691944,acc,,,
1035,1644542407524237871,,,,gyr,-0.00174532923847,-0.00349065847695,0.00174532923847
1036,1644542407524269819,0.627625584602,-9.62032318115,0.245166242123,acc,,,
1037,1644542407526283503,0.637432217598,-9.58109664917,0.245166242123,acc,,,
1038,1644542407528297424,0.627625584602,-9.62032318115,0.176519691944,acc,,,
1039,1644542407529249191,,,,gyr,-0.00349065847695,-0.00349065847695,0.00349065847695
1040,1644542407530313253,0.627625584602,-9.58109664917,0.245166242123,acc,,,
1041,1644542407532327175,0.637432217598,-9.53206348419,0.245166242123,acc,,,
1042,1644542407534260988,,,,gyr,-0.00523598771542,-0.0069813169539,0.0
1043,1644542407534340858,0.598205626011,-9.57129001617,0.245166242123,acc,,,
1044,1644542407536354780,0.598205626011,-9.58109664917,0.196132987738,acc,,,
1045,1644542407538368702,0.598205626011,-9.62032318115,0.264779537916,acc,,,
1046,1644542407539272547,,,,gyr,0.0,0.0,0.0
1047,1644542407540382624,0.598205626011,-9.64974308014,0.196132987738,acc,,,
1048,1644542407542398214,0.57859236002,-9.66935634613,0.264779537916,acc,,,
1049,1644542407544284105,,,,gyr,0.00174532923847,0.0,0.0
1050,1644542407544412136,0.558979034424,-9.61051654816,0.245166242123,acc,,,
1051,1644542407546426058,0.549172401428,-9.66935634613,0.225552946329,acc,,,
1052,1644542407548439980,0.558979034424,-9.66935634613,0.225552946329,acc,,,
1053,1644542407549295902,,,,gyr,-0.00523598771542,-0.00174532923847,0.0
1054,1644542407550453663,0.549172401428,-9.66935634613,0.313812792301,acc,,,
1055,1644542407552467585,0.57859236002,-9.67916297913,0.196132987738,acc,,,
1056,1644542407554305315,,,,gyr,-0.00174532923847,-0.00349065847695,0.0
1057,1644542407554481506,0.549172401428,-9.64974308014,0.196132987738,acc,,,
1058,1644542407556497335,0.529559075832,-9.64974308014,0.264779537916,acc,,,
1059,1644542407558511019,0.57859236002,-9.61051654816,0.225552946329,acc,,,
1060,1644542407559317112,,,,gyr,0.0,0.0,0.00349065847695
1061,1644542407560524940,0.549172401428,-9.58109664917,0.264779537916,acc,,,
1062,1644542407562538862,0.558979034424,-9.58109664917,0.176519691944,acc,,,
1063,1644542407564328671,,,,gyr,-0.00349065847695,0.0,0.0
1064,1644542407564552784,0.57859236002,-9.58109664917,0.196132987738,acc,,,
1065,1644542407566566467,0.549172401428,-9.57129001617,0.225552946329,acc,,,
1066,1644542407568582296,0.549172401428,-9.57129001617,0.196132987738,acc,,,
1067,1644542407569340229,,,,gyr,-0.00349065847695,0.0,0.00349065847695
1068,1644542407570596218,0.57859236002,-9.61051654816,0.166713044047,acc,,,
1069,1644542407572610140,0.558979034424,-9.57129001617,0.196132987738,acc,,,
1070,1644542407574351788,,,,gyr,-0.00174532923847,0.00349065847695,0.0
1071,1644542407574623823,0.558979034424,-9.61051654816,0.245166242123,acc,,,
1072,1644542407576637745,0.558979034424,-9.58109664917,0.166713044047,acc,,,
1073,1644542407578651667,0.57859236002,-9.62032318115,0.225552946329,acc,,,
1074,1644542407579363585,,,,gyr,-0.00523598771542,-0.00174532923847,0.00174532923847
1075,1644542407580667496,0.598205626011,-9.64974308014,0.176519691944,acc,,,
1076,1644542407582681417,0.549172401428,-9.66935634613,0.176519691944,acc,,,
1077,1644542407584375143,,,,gyr,-0.00174532923847,0.0,0.0
1078,1644542407584695101,0.57859236002,-9.66935634613,0.176519691944,acc,,,
1079,1644542407586709023,0.637432217598,-9.64974308014,0.176519691944,acc,,,
1080,1644542407588722944,0.57859236002,-9.66935634613,0.196132987738,acc,,,
1081,1644542407589386702,,,,gyr,0.0,-0.00174532923847,0.0
1082,1644542407590738773,0.627625584602,-9.64974308014,0.0980664938688,acc,,,
1083,1644542407592752457,0.598205626011,-9.62032318115,0.196132987738,acc,,,
1084,1644542407594398499,,,,gyr,-0.00174532923847,0.00349065847695,0.0
1085,1644542407594766378,0.598205626011,-9.64974308014,0.166713044047,acc,,,
1086,1644542407596780300,0.637432217598,-9.64974308014,0.176519691944,acc,,,
1087,1644542407598796129,0.627625584602,-9.61051654816,0.196132987738,acc,,,
1088,1644542407599410057,,,,gyr,0.00349065847695,0.00174532923847,0.0
1089,1644542407600809813,0.598205626011,-9.61051654816,0.176519691944,acc,,,
1090,1644542407602823734,0.598205626011,-9.62032318115,0.166713044047,acc,,,
1091,1644542407604421616,,,,gyr,0.00174532923847,0.0,0.0
1092,1644542407604837656,0.637432217598,-9.58109664917,0.176519691944,acc,,,
1093,1644542407606853485,0.598205626011,-9.62032318115,0.264779537916,acc,,,
1094,1644542407608867407,0.637432217598,-9.62032318115,0.245166242123,acc,,,
1095,1644542407609433413,,,,gyr,0.0,0.0,0.0
1096,1644542407610881090,0.637432217598,-9.61051654816,0.225552946329,acc,,,
1097,1644542407612895012,0.627625584602,-9.62032318115,0.176519691944,acc,,,
1098,1644542407614444733,,,,gyr,0.00174532923847,-0.00174532923847,-0.00174532923847
1099,1644542407614910841,0.637432217598,-9.61051654816,0.245166242123,acc,,,
1100,1644542407616924763,0.57859236002,-9.64974308014,0.245166242123,acc,,,
1101,1644542407618938446,0.598205626011,-9.62032318115,0.264779537916,acc,,,
1102,1644542407619456530,,,,gyr,0.0,0.0,0.00174532923847
1103,1644542407620952368,0.627625584602,-9.64974308014,0.245166242123,acc,,,
1104,1644542407622966290,0.666852176189,-9.64974308014,0.245166242123,acc,,,
1105,1644542407624466181,,,,gyr,0.0,0.00174532923847,-0.00349065847695
1106,1644542407624982119,0.57859236002,-9.64974308014,0.225552946329,acc,,,
1107,1644542407626996040,0.627625584602,-9.67916297913,0.294199496508,acc,,,
1108,1644542407629009724,0.57859236002,-9.66935634613,0.274586200714,acc,,,
1109,1644542407629477739,,,,gyr,-0.00349065847695,0.0,0.0
1110,1644542407631023645,0.598205626011,-9.71838951111,0.274586200714,acc,,,
1111,1644542407633037567,0.627625584602,-9.66935634613,0.176519691944,acc,,,
1112,1644542407634489536,,,,gyr,-0.00349065847695,-0.00523598771542,0.00174532923847
1113,1644542407635051250,0.627625584602,-9.64974308014,0.245166242123,acc,,,
1114,1644542407637067080,0.627625584602,-9.62032318115,0.264779537916,acc,,,
1115,1644542407639081001,0.598205626011,-9.70858287811,0.196132987738,acc,,,
1116,1644542407639501095,,,,gyr,-0.00523598771542,0.0,0.00174532923847
1117,1644542407641094923,0.57859236002,-9.62032318115,0.196132987738,acc,,,
1118,1644542407643108845,0.627625584602,-9.58109664917,0.225552946329,acc,,,
1119,1644542407644512653,,,,gyr,-0.00349065847695,0.0,0.0
1120,1644542407645124435,0.627625584602,-9.57129001617,0.196132987738,acc,,,
1121,1644542407647138357,0.627625584602,-9.62032318115,0.137293100357,acc,,,
1122,1644542407649154186,0.627625584602,-9.66935634613,0.196132987738,acc,,,
1123,1644542407649524450,,,,gyr,-0.00349065847695,-0.00174532923847,0.0
1124,1644542407651168108,0.627625584602,-9.61051654816,0.264779537916,acc,,,
1125,1644542407653182030,0.57859236002,-9.58109664917,0.176519691944,acc,,,
1126,1644542407654535770,,,,gyr,0.0,0.0,0.0
1127,1644542407655195713,0.627625584602,-9.58109664917,0.196132987738,acc,,,
1128,1644542407657211781,0.627625584602,-9.61051654816,0.225552946329,acc,,,
1129,1644542407659225702,0.558979034424,-9.61051654816,0.196132987738,acc,,,
1130,1644542407659547567,,,,gyr,-0.00174532923847,-0.00174532923847,0.00174532923847
1131,1644542407661239386,0.558979034424,-9.66935634613,0.196132987738,acc,,,
1132,1644542407663253069,0.627625584602,-9.64974308014,0.166713044047,acc,,,
1133,1644542407664559126,,,,gyr,-0.00349065847695,-0.00349065847695,0.0
1134,1644542407665269136,0.598205626011,-9.67916297913,0.245166242123,acc,,,
1135,1644542407667283058,0.598205626011,-9.61051654816,0.166713044047,acc,,,
1136,1644542407669296980,0.627625584602,-9.66935634613,0.137293100357,acc,,,
1137,1644542407669570684,,,,gyr,-0.00174532923847,0.0,0.0
1138,1644542407671312809,0.598205626011,-9.62032318115,0.176519691944,acc,,,
1139,1644542407673326492,0.558979034424,-9.64974308014,0.12748645246,acc,,,
1140,1644542407674582481,,,,gyr,0.00349065847695,-0.00174532923847,0.00349065847695
1141,1644542407675340414,0.57859236002,-9.58109664917,0.176519691944,acc,,,
1142,1644542407677354336,0.57859236002,-9.62032318115,0.166713044047,acc,,,
1143,1644542407679368258,0.57859236002,-9.61051654816,0.166713044047,acc,,,
1144,1644542407679594040,,,,gyr,0.0,0.00174532923847,0.00349065847695
1145,1644542407681384087,0.558979034424,-9.57129001617,0.166713044047,acc,,,
1146,1644542407683397770,0.549172401428,-9.57129001617,0.196132987738,acc,,,
1147,1644542407684605598,,,,gyr,0.00174532923847,-0.00174532923847,0.0
1148,1644542407685411692,0.57859236002,-9.53206348419,0.245166242123,acc,,,
1149,1644542407687427521,0.57859236002,-9.57129001617,0.176519691944,acc,,,
1150,1644542407689441442,0.549172401428,-9.58109664917,0.225552946329,acc,,,
1151,1644542407689615250,,,,gyr,0.00174532923847,0.00523598771542,0.0
1152,1644542407691455126,0.558979034424,-9.58109664917,0.245166242123,acc,,,
1153,1644542407693469048,0.558979034424,-9.58109664917,0.225552946329,acc,,,
1154,1644542407694627047,,,,gyr,0.00174532923847,0.0,-0.00174532923847
1155,1644542407695484877,0.549172401428,-9.58109664917,0.225552946329,acc,,,
1156,1644542407697498798,0.558979034424,-9.64974308014,0.245166242123,acc,,,
1157,1644542407699512720,0.598205626011,-9.67916297913,0.176519691944,acc,,,
1158,1644542407699638605,,,,gyr,-0.00174532923847,0.0,-0.00174532923847
1159,1644542407701528549,0.549172401428,-9.64974308014,0.313812792301,acc,,,
1160,1644542407703542233,0.57859236002,-9.64974308014,0.225552946329,acc,,,
1161,1644542407704650164,,,,gyr,-0.00174532923847,0.00174532923847,0.0
1162,1644542407705556154,0.57859236002,-9.62032318115,0.225552946329,acc,,,
1163,1644542407707570076,0.558979034424,-9.64974308014,0.264779537916,acc,,,
1164,1644542407709585905,0.598205626011,-9.62032318115,0.264779537916,acc,,,
1165,1644542407709661961,,,,gyr,-0.00174532923847,0.00174532923847,0.0
1166,1644542407711599588,0.57859236002,-9.61051654816,0.245166242123,acc,,,
1167,1644542407713613510,0.549172401428,-9.58109664917,0.225552946329,acc,,,
1168,1644542407714673519,,,,gyr,-0.00523598771542,0.0,0.0
1169,1644542407715629339,0.549172401428,-9.61051654816,0.264779537916,acc,,,
1170,1644542407717643261,0.627625584602,-9.58109664917,0.245166242123,acc,,,
1171,1644542407719656944,0.637432217598,-9.57129001617,0.274586200714,acc,,,
1172,1644542407719685078,,,,gyr,-0.00349065847695,-0.00349065847695,0.0
1173,1644542407721688986,0.598205626011,-9.61051654816,0.264779537916,acc,,,
1174,1644542407723686695,0.637432217598,-9.58109664917,0.264779537916,acc,,,
1175,1644542407724696875,,,,gyr,-0.00349065847695,0.0,0.0
1176,1644542407725700617,0.637432217598,-9.62032318115,0.245166242123,acc,,,
1177,1644542407727716446,0.637432217598,-9.61051654816,0.245166242123,acc,,,
1178,1644542407729708195,,,,gyr,-0.00349065847695,0.0,0.0
1179,1644542407729730368,0.637432217598,-9.62032318115,0.264779537916,acc,,,
1180,1644542407731744051,0.627625584602,-9.64974308014,0.245166242123,acc,,,
1181,1644542407733760118,0.627625584602,-9.64974308014,0.245166242123,acc,,,
1182,1644542407734719992,,,,gyr,-0.00523598771542,0.0,0.00523598771542
1183,1644542407735774040,0.627625584602,-9.66935634613,0.196132987738,acc,,,
1184,1644542407737787724,0.666852176189,-9.64974308014,0.196132987738,acc,,,
1185,1644542407739731789,,,,gyr,-0.00872664619237,0.0,0.00174532923847
1186,1644542407739803791,0.57859236002,-9.70858287811,0.137293100357,acc,,,
1187,1644542407741817474,0.637432217598,-9.64974308014,0.166713044047,acc,,,
1188,1644542407743831396,0.637432217598,-9.64974308014,0.196132987738,acc,,,
1189,1644542407744743109,,,,gyr,-0.00872664619237,-0.00523598771542,0.00523598771542
1190,1644542407745845318,0.666852176189,-9.66935634613,0.274586200714,acc,,,
1191,1644542407747861147,0.637432217598,-9.66935634613,0.196132987738,acc,,,
1192,1644542407749754906,,,,gyr,-0.00523598771542,-0.00523598771542,0.0069813169539
1193,1644542407749874830,0.598205626011,-9.64974308014,0.274586200714,acc,,,
1194,1644542407751888752,0.637432217598,-9.64974308014,0.137293100357,acc,,,
1195,1644542407753904581,0.627625584602,-9.64974308014,0.166713044047,acc,,,
1196,1644542407754766703,,,,gyr,0.0,-0.00349065847695,0.00174532923847
1197,1644542407755918503,0.627625584602,-9.62032318115,0.137293100357,acc,,,
1198,1644542407757932425,0.598205626011,-9.62032318115,0.225552946329,acc,,,
1199,1644542407759778023,,,,gyr,-0.00174532923847,0.0,0.0
1200,1644542407759946108,0.637432217598,-9.62032318115,0.176519691944,acc,,,
1201,1644542407761960030,0.637432217598,-9.64974308014,0.264779537916,acc,,,
1202,1644542407763973951,0.637432217598,-9.61051654816,0.225552946329,acc,,,
1203,1644542407764787912,,,,gyr,-0.00523598771542,-0.00523598771542,0.0069813169539
1204,1644542407765989780,0.57859236002,-9.62032318115,0.225552946329,acc,,,
1205,1644542407768003702,0.598205626011,-9.57129001617,0.196132987738,acc,,,
1206,1644542407769799232,,,,gyr,-0.0069813169539,0.0,0.00523598771542
1207,1644542407770017385,0.627625584602,-9.58109664917,0.225552946329,acc,,,
1208,1644542407772031307,0.57859236002,-9.62032318115,0.225552946329,acc,,,
1209,1644542407774047136,0.598205626011,-9.57129001617,0.166713044047,acc,,,
1210,1644542407774811029,,,,gyr,0.0,-0.00349065847695,0.00349065847695
1211,1644542407776061058,0.549172401428,-9.61051654816,0.196132987738,acc,,,
1212,1644542407778074741,0.529559075832,-9.61051654816,0.176519691944,acc,,,
1213,1644542407779822826,,,,gyr,-0.00349065847695,-0.00174532923847,0.00174532923847
1214,1644542407780088663,0.57859236002,-9.62032318115,0.196132987738,acc,,,
1215,1644542407782104492,0.549172401428,-9.57129001617,0.176519691944,acc,,,
1216,1644542407784118414,0.549172401428,-9.61051654816,0.176519691944,acc,,,
1217,1644542407784834146,,,,gyr,-0.0069813169539,-0.00349065847695,0.00174532923847
1218,1644542407786132336,0.549172401428,-9.61051654816,0.196132987738,acc,,,
1219,1644542407788146019,0.558979034424,-9.61051654816,0.176519691944,acc,,,
1220,1644542407789845943,,,,gyr,-0.00349065847695,-0.00174532923847,0.00349065847695
1221,1644542407790159941,0.529559075832,-9.61051654816,0.176519691944,acc,,,
1222,1644542407792173862,0.558979034424,-9.64974308014,0.176519691944,acc,,,
1223,1644542407794187784,0.558979034424,-9.58109664917,0.225552946329,acc,,,
1224,1644542407794857740,,,,gyr,-0.00872664619237,-0.00523598771542,0.00174532923847
1225,1644542407796203375,0.598205626011,-9.61051654816,0.137293100357,acc,,,
1226,1644542407798217297,0.549172401428,-9.61051654816,0.166713044047,acc,,,
1227,1644542407799869061,,,,gyr,-0.00523598771542,-0.0139626339078,0.00349065847695
1228,1644542407800231218,0.558979034424,-9.62032318115,0.176519691944,acc,,,
1229,1644542407802247047,0.558979034424,-9.56148338318,0.137293100357,acc,,,
1230,1644542407804260969,0.558979034424,-9.56148338318,0.196132987738,acc,,,
1231,1644542407804880857,,,,gyr,0.0,-0.0174532923847,0.00523598771542
1232,1644542407806274652,0.558979034424,-9.53206348419,0.225552946329,acc,,,
1233,1644542407808288574,0.57859236002,-9.61051654816,0.196132987738,acc,,,
1234,1644542407809892654,,,,gyr,-0.00523598771542,-0.0209439508617,-0.00174532923847
1235,1644542407810304403,0.57859236002,-9.58109664917,0.166713044047,acc,,,
1236,1644542407812318325,0.558979034424,-9.61051654816,0.176519691944,acc,,,
1237,1644542407814334154,0.57859236002,-9.64974308014,0.12748645246,acc,,,
1238,1644542407814903975,,,,gyr,-0.00349065847695,-0.0191986225545,0.00349065847695
1239,1644542407816347837,0.57859236002,-9.62032318115,0.225552946329,acc,,,
1240,1644542407818361759,0.57859236002,-9.66935634613,0.245166242123,acc,,,
1241,1644542407819915771,,,,gyr,-0.0069813169539,-0.0139626339078,0.00174532923847
1242,1644542407820377588,0.598205626011,-9.67916297913,0.196132987738,acc,,,
1243,1644542407822391510,0.627625584602,-9.64974308014,0.137293100357,acc,,,
1244,1644542407824405432,0.637432217598,-9.67916297913,0.196132987738,acc,,,
1245,1644542407824927568,,,,gyr,-0.0069813169539,-0.00872664619237,0.00174532923847
1246,1644542407826421499,0.57859236002,-9.62032318115,0.176519691944,acc,,,
1247,1644542407828434944,0.598205626011,-9.66935634613,0.176519691944,acc,,,
1248,1644542407829938889,,,,gyr,-0.00523598771542,-0.00174532923847,0.00174532923847
1249,1644542407830448866,0.637432217598,-9.66935634613,0.137293100357,acc,,,
1250,1644542407832464933,0.666852176189,-9.64974308014,0.225552946329,acc,,,
1251,1644542407834478855,0.637432217598,-9.61051654816,0.225552946329,acc,,,
1252,1644542407834948778,,,,gyr,-0.0069813169539,-0.00523598771542,0.00523598771542
1253,1644542407836492538,0.666852176189,-9.61051654816,0.196132987738,acc,,,
1254,1644542407838508368,0.696272134781,-9.61051654816,0.225552946329,acc,,,
1255,1644542407839960098,,,,gyr,-0.0069813169539,-0.00523598771542,0.00523598771542
1256,1644542407840522289,0.57859236002,-9.61051654816,0.225552946329,acc,,,
1257,1644542407842536211,0.627625584602,-9.61051654816,0.225552946329,acc,,,
1258,1644542407844552040,0.627625584602,-9.62032318115,0.176519691944,acc,,,
1259,1644542407844971895,,,,gyr,-0.0069813169539,-0.00523598771542,0.00174532923847
1260,1644542407846565962,0.666852176189,-9.62032318115,0.137293100357,acc,,,
1261,1644542407848579645,0.598205626011,-9.61051654816,0.196132987738,acc,,,
1262,1644542407849983692,,,,gyr,-0.00349065847695,-0.0104719754308,0.0069813169539
1263,1644542407850595474,0.637432217598,-9.61051654816,0.176519691944,acc,,,
1264,1644542407852609396,0.637432217598,-9.64974308014,0.176519691944,acc,,,
1265,1644542407854625225,0.666852176189,-9.70858287811,0.264779537916,acc,,,
1266,1644542407854995012,,,,gyr,-0.0069813169539,-0.0191986225545,0.0104719754308
1267,1644542407856639147,0.666852176189,-9.62032318115,0.343232750893,acc,,,
1268,1644542407858654976,0.666852176189,-9.62032318115,0.274586200714,acc,,,
1269,1644542407860006809,,,,gyr,-0.0069813169539,-0.0296705961227,0.0226892791688
1270,1644542407860668659,0.627625584602,-9.64974308014,0.274586200714,acc,,,
1271,1644542407862684488,0.637432217598,-9.64974308014,0.294199496508,acc,,,
1272,1644542407864698410,0.598205626011,-9.62032318115,0.264779537916,acc,,,
1273,1644542407865018606,,,,gyr,0.0,-0.0209439508617,0.0296705961227
1274,1644542407866712332,0.57859236002,-9.61051654816,0.274586200714,acc,,,
1275,1644542407868728161,0.598205626011,-9.62032318115,0.245166242123,acc,,,
1276,1644542407870029926,,,,gyr,0.0,-0.0104719754308,0.0349065847695
1277,1644542407870741844,0.529559075832,-9.61051654816,0.274586200714,acc,,,
1278,1644542407872757912,0.558979034424,-9.61051654816,0.274586200714,acc,,,
1279,1644542407874771833,0.558979034424,-9.62032318115,0.294199496508,acc,,,
1280,1644542407875041723,,,,gyr,0.0,-0.00523598771542,0.0418879017234
1281,1644542407876785755,0.549172401428,-9.61051654816,0.294199496508,acc,,,
1282,1644542407878801584,0.529559075832,-9.57129001617,0.274586200714,acc,,,
1283,1644542407880053520,,,,gyr,0.0,-0.0069813169539,0.0436332300305
1284,1644542407880815506,0.558979034424,-9.62032318115,0.245166242123,acc,,,
1285,1644542407882829189,0.549172401428,-9.58109664917,0.274586200714,acc,,,
1286,1644542407884845018,0.509945809841,-9.61051654816,0.264779537916,acc,,,
1287,1644542407885064840,,,,gyr,-0.00174532923847,-0.0104719754308,0.0418879017234
1288,1644542407886858940,0.549172401428,-9.57129001617,0.245166242123,acc,,,
1289,1644542407888872862,0.549172401428,-9.58109664917,0.225552946329,acc,,,
1290,1644542407890076637,,,,gyr,0.0,-0.00872664619237,0.0296705961227
1291,1644542407890888691,0.549172401428,-9.62032318115,0.225552946329,acc,,,
1292,1644542407892902374,0.509945809841,-9.61051654816,0.245166242123,acc,,,
1293,1644542407894918203,0.549172401428,-9.58109664917,0.166713044047,acc,,,
1294,1644542407895088434,,,,gyr,0.0,-0.0104719754308,0.0209439508617
1295,1644542407896932125,0.549172401428,-9.62032318115,0.225552946329,acc,,,
1296,1644542407898946047,0.558979034424,-9.61051654816,0.245166242123,acc,,,
1297,1644542407900097847,,,,gyr,0.0,-0.00523598771542,0.0139626339078
1298,1644542407900961876,0.558979034424,-9.62032318115,0.196132987738,acc,,,
1299,1644542407902975559,0.558979034424,-9.62032318115,0.264779537916,acc,,,
1300,1644542407904989481,0.598205626011,-9.64974308014,0.176519691944,acc,,,
1301,1644542407905109644,,,,gyr,0.0,-0.00174532923847,0.0104719754308
1302,1644542407907003403,0.558979034424,-9.61051654816,0.166713044047,acc,,,
1303,1644542407909019232,0.558979034424,-9.62032318115,0.166713044047,acc,,,
1304,1644542407910121202,,,,gyr,0.0,-0.00174532923847,0.0069813169539
1305,1644542407911033154,0.558979034424,-9.64974308014,0.196132987738,acc,,,
1306,1644542407913046837,0.529559075832,-9.61051654816,0.12748645246,acc,,,
1307,1644542407915062666,0.549172401428,-9.61051654816,0.137293100357,acc,,,
1308,1644542407915132761,,,,gyr,-0.00523598771542,-0.00872664619237,0.0104719754308
1309,1644542407917076588,0.529559075832,-9.62032318115,0.0980664938688,acc,,,
1310,1644542407919090509,0.549172401428,-9.61051654816,0.12748645246,acc,,,
1311,1644542407920144558,,,,gyr,-0.00349065847695,-0.0104719754308,0.0104719754308
1312,1644542407921104431,0.558979034424,-9.61051654816,0.166713044047,acc,,,
1313,1644542407923120260,0.529559075832,-9.64974308014,0.176519691944,acc,,,
1314,1644542407925133944,0.558979034424,-9.64974308014,0.225552946329,acc,,,
1315,1644542407925156116,,,,gyr,-0.00523598771542,-0.0104719754308,0.0174532923847
1316,1644542407927147865,0.598205626011,-9.61051654816,0.137293100357,acc,,,
1317,1644542407929163933,0.57859236002,-9.57129001617,0.176519691944,acc,,,
1318,1644542407930167675,,,,gyr,-0.00349065847695,-0.0209439508617,0.0191986225545
1319,1644542407931177616,0.549172401428,-9.62032318115,0.225552946329,acc,,,
1320,1644542407933193684,0.558979034424,-9.62032318115,0.196132987738,acc,,,
1321,1644542407935179472,,,,gyr,-0.00523598771542,-0.0209439508617,0.0226892791688
1322,1644542407935207367,0.627625584602,-9.61051654816,0.196132987738,acc,,,
1323,1644542407937223196,0.666852176189,-9.64974308014,0.225552946329,acc,,,
1324,1644542407939237118,0.558979034424,-9.62032318115,0.166713044047,acc,,,
1325,1644542407940191031,,,,gyr,-0.00174532923847,-0.0191986225545,0.0226892791688
1326,1644542407941252947,0.686465501785,-9.67916297913,0.196132987738,acc,,,
1327,1644542407943266869,0.627625584602,-9.61051654816,0.245166242123,acc,,,
1328,1644542407945202589,,,,gyr,-0.00174532923847,-0.0139626339078,0.0279252678156
1329,1644542407945280790,0.598205626011,-9.61051654816,0.137293100357,acc,,,
1330,1644542407947296381,0.627625584602,-9.67916297913,0.225552946329,acc,,,
1331,1644542407949310303,0.558979034424,-9.64974308014,0.196132987738,acc,,,
1332,1644542407950214386,,,,gyr,0.0,-0.0069813169539,0.0261799395084
1333,1644542407951324224,0.598205626011,-9.64974308014,0.196132987738,acc,,,
1334,1644542407953340054,0.57859236002,-9.61051654816,0.166713044047,acc,,,
1335,1644542407955225945,,,,gyr,0.0,-0.00523598771542,0.0226892791688
1336,1644542407955353975,0.598205626011,-9.61051654816,0.166713044047,acc,,,
1337,1644542407957367659,0.57859236002,-9.62032318115,0.176519691944,acc,,,
1338,1644542407959383488,0.558979034424,-9.61051654816,0.166713044047,acc,,,
1339,1644542407960237503,,,,gyr,0.0,-0.00174532923847,0.0226892791688
1340,1644542407961397409,0.529559075832,-9.62032318115,0.166713044047,acc,,,
1341,1644542407963411331,0.598205626011,-9.66935634613,0.137293100357,acc,,,
1342,1644542407965249300,,,,gyr,0.0,-0.00174532923847,0.0209439508617
1343,1644542407965425253,0.598205626011,-9.62032318115,0.196132987738,acc,,,
1344,1644542407967441082,0.558979034424,-9.57129001617,0.225552946329,acc,,,
1345,1644542407969454765,0.598205626011,-9.64974308014,0.12748645246,acc,,,
1346,1644542407970258713,,,,gyr,0.0,-0.00523598771542,0.0209439508617
1347,1644542407971468687,0.57859236002,-9.62032318115,0.176519691944,acc,,,
1348,1644542407973482609,0.627625584602,-9.66935634613,0.196132987738,acc,,,
1349,1644542407975270510,,,,gyr,0.0,-0.00174532923847,0.0139626339078
1350,1644542407975498438,0.598205626011,-9.64974308014,0.176519691944,acc,,,
1351,1644542407977512360,0.627625584602,-9.66935634613,0.176519691944,acc,,,
1352,1644542407979526043,0.57859236002,-9.67916297913,0.166713044047,acc,,,
1353,1644542407980282307,,,,gyr,0.0,-0.00174532923847,0.0209439508617
1354,1644542407981542110,0.598205626011,-9.67916297913,0.245166242123,acc,,,
1355,1644542407983555794,0.558979034424,-9.64974308014,0.176519691944,acc,,,
1356,1644542407985293627,,,,gyr,0.0,-0.00523598771542,0.0226892791688
1357,1644542407985569715,0.558979034424,-9.62032318115,0.196132987738,acc,,,
1358,1644542407987583399,0.549172401428,-9.61051654816,0.196132987738,acc,,,
1359,1644542407989599466,0.558979034424,-9.61051654816,0.176519691944,acc,,,
1360,1644542407990305424,,,,gyr,-0.00174532923847,-0.00872664619237,0.0226892791688
1361,1644542407991613388,0.57859236002,-9.58109664917,0.176519691944,acc,,,
1362,1644542407993627310,0.549172401428,-9.61051654816,0.176519691944,acc,,,
1363,1644542407995317221,,,,gyr,0.0,-0.0069813169539,0.0261799395084
1364,1644542407995643139,0.549172401428,-9.64974308014,0.274586200714,acc,,,
1365,1644542407997657061,0.558979034424,-9.58109664917,0.245166242123,acc,,,
1366,1644542407999670744,0.549172401428,-9.61051654816,0.225552946329,acc,,,
1367,1644542408000328541,,,,gyr,0.0,-0.0104719754308,0.0296705961227
1368,1644542408001684666,0.529559075832,-9.62032318115,0.225552946329,acc,,,
1369,1644542408003700495,0.549172401428,-9.62032318115,0.176519691944,acc,,,
1370,1644542408005340338,,,,gyr,0.0,-0.0104719754308,0.0349065847695
1371,1644542408005714417,0.529559075832,-9.62032318115,0.264779537916,acc,,,
1372,1644542408007728338,0.529559075832,-9.66935634613,0.274586200714,acc,,,
1373,1644542408009744167,0.529559075832,-9.64974308014,0.196132987738,acc,,,
1374,1644542408010352135,,,,gyr,0.0,-0.0139626339078,0.0383972451091
1375,1644542408011757851,0.529559075832,-9.57129001617,0.274586200714,acc,,,
1376,1644542408013771772,0.529559075832,-9.64974308014,0.274586200714,acc,,,
1377,1644542408015363455,,,,gyr,-0.00174532923847,-0.0139626339078,0.0314159244299
1378,1644542408015787601,0.470719188452,-9.62032318115,0.274586200714,acc,,,
1379,1644542408017801523,0.509945809841,-9.64974308014,0.245166242123,acc,,,
1380,1644542408019815207,0.529559075832,-9.62032318115,0.274586200714,acc,,,
1381,1644542408020375252,,,,gyr,0.00174532923847,-0.0104719754308,0.0296705961227
1382,1644542408021829128,0.509945809841,-9.58109664917,0.362846046686,acc,,,
1383,1644542408023844957,0.490332484245,-9.61051654816,0.264779537916,acc,,,
1384,1644542408025387049,,,,gyr,0.0,-0.0104719754308,0.0279252678156
1385,1644542408025858879,0.509945809841,-9.58109664917,0.274586200714,acc,,,
1386,1644542408027872801,0.529559075832,-9.61051654816,0.264779537916,acc,,,
1387,1644542408029886484,0.509945809841,-9.58109664917,0.264779537916,acc,,,
1388,1644542408030398369,,,,gyr,0.0,-0.0104719754308,0.0226892791688
1389,1644542408031902313,0.529559075832,-9.62032318115,0.245166242123,acc,,,
1390,1644542408033918142,0.490332484245,-9.64974308014,0.274586200714,acc,,,
1391,1644542408035410166,,,,gyr,0.0,-0.00174532923847,0.0139626339078
1392,1644542408035932064,0.529559075832,-9.61051654816,0.225552946329,acc,,,
1393,1644542408037945986,0.549172401428,-9.61051654816,0.225552946329,acc,,,
1394,1644542408039959908,0.558979034424,-9.64974308014,0.225552946329,acc,,,
1395,1644542408040421963,,,,gyr,-0.00349065847695,0.0,0.0104719754308
1396,1644542408041975737,0.549172401428,-9.64974308014,0.225552946329,acc,,,
1397,1644542408043989420,0.549172401428,-9.61051654816,0.225552946329,acc,,,
1398,1644542408045431376,,,,gyr,-0.00523598771542,-0.00174532923847,0.0104719754308
1399,1644542408046003342,0.57859236002,-9.61051654816,0.196132987738,acc,,,
1400,1644542408048019171,0.627625584602,-9.66935634613,0.225552946329,acc,,,
1401,1644542408050033092,0.57859236002,-9.61051654816,0.225552946329,acc,,,
1402,1644542408050443172,,,,gyr,-0.00349065847695,-0.00174532923847,0.0104719754308
1403,1644542408052047014,0.558979034424,-9.61051654816,0.176519691944,acc,,,
1404,1644542408054062843,0.558979034424,-9.62032318115,0.264779537916,acc,,,
1405,1644542408055454731,,,,gyr,-0.00349065847695,0.0,0.0139626339078
1406,1644542408056076765,0.598205626011,-9.67916297913,0.137293100357,acc,,,
1407,1644542408058090687,0.57859236002,-9.66935634613,0.225552946329,acc,,,
1408,1644542408060104609,0.627625584602,-9.62032318115,0.166713044047,acc,,,
1409,1644542408060466290,,,,gyr,-0.00349065847695,-0.0069813169539,0.0139626339078
1410,1644542408062120438,0.558979034424,-9.64974308014,0.176519691944,acc,,,
1411,1644542408064134121,0.57859236002,-9.62032318115,0.166713044047,acc,,,
1412,1644542408065478086,,,,gyr,-0.00174532923847,-0.00174532923847,0.0226892791688
1413,1644542408066148043,0.57859236002,-9.66935634613,0.12748645246,acc,,,
1414,1644542408068161964,0.558979034424,-9.62032318115,0.176519691944,acc,,,
1415,1644542408070177794,0.549172401428,-9.66935634613,0.137293100357,acc,,,
1416,1644542408070489645,,,,gyr,-0.00349065847695,-0.00523598771542,0.0226892791688
1417,1644542408072191715,0.549172401428,-9.62032318115,0.137293100357,acc,,,
1418,1644542408074205399,0.558979034424,-9.64974308014,0.137293100357,acc,,,
1419,1644542408075501204,,,,gyr,-0.00349065847695,-0.00872664619237,0.0261799395084
1420,1644542408076221228,0.490332484245,-9.61051654816,0.176519691944,acc,,,
1421,1644542408078235149,0.549172401428,-9.66935634613,0.137293100357,acc,,,
1422,1644542408080249071,0.549172401428,-9.62032318115,0.166713044047,acc,,,
1423,1644542408080513000,,,,gyr,0.0,-0.00523598771542,0.0296705961227
1424,1644542408082264900,0.549172401428,-9.62032318115,0.225552946329,acc,,,
1425,1644542408084278822,0.509945809841,-9.61051654816,0.166713044047,acc,,,
1426,1644542408085524559,,,,gyr,-0.00523598771542,-0.00523598771542,0.0226892791688
1427,1644542408086292505,0.490332484245,-9.64974308014,0.264779537916,acc,,,
1428,1644542408088306427,0.558979034424,-9.62032318115,0.264779537916,acc,,,
1429,1644542408090320349,0.529559075832,-9.62032318115,0.196132987738,acc,,,
1430,1644542408090536356,,,,gyr,-0.00523598771542,-0.0104719754308,0.0209439508617
1431,1644542408092336178,0.549172401428,-9.61051654816,0.166713044047,acc,,,
1432,1644542408094350100,0.529559075832,-9.61051654816,0.166713044047,acc,,,
1433,1644542408095547915,,,,gyr,0.0,-0.0104719754308,0.0139626339078
1434,1644542408096363783,0.529559075832,-9.64974308014,0.225552946329,acc,,,
1435,1644542408098377705,0.490332484245,-9.62032318115,0.166713044047,acc,,,
1436,1644542408100391626,0.490332484245,-9.66935634613,0.196132987738,acc,,,
1437,1644542408100559473,,,,gyr,-0.00523598771542,-0.00872664619237,0.0191986225545
1438,1644542408102407455,0.529559075832,-9.62032318115,0.166713044047,acc,,,
1439,1644542408104421377,0.490332484245,-9.62032318115,0.176519691944,acc,,,
1440,1644542408105571270,,,,gyr,-0.00349065847695,-0.0104719754308,0.0174532923847
1441,1644542408106435061,0.529559075832,-9.62032318115,0.196132987738,acc,,,
1442,1644542408108448982,0.509945809841,-9.61051654816,0.166713044047,acc,,,
1443,1644542408110464811,0.529559075832,-9.61051654816,0.196132987738,acc,,,
1444,1644542408110582829,,,,gyr,-0.00174532923847,-0.0069813169539,0.0209439508617
1445,1644542408112478733,0.549172401428,-9.57129001617,0.0980664938688,acc,,,
1446,1644542408114492655,0.509945809841,-9.57129001617,0.196132987738,acc,,,
1447,1644542408115592480,,,,gyr,-0.00349065847695,-0.0104719754308,0.0191986225545
1448,1644542408116506338,0.549172401428,-9.61051654816,0.166713044047,acc,,,
1449,1644542408118520260,0.490332484245,-9.64974308014,0.264779537916,acc,,,
1450,1644542408120536089,0.549172401428,-9.62032318115,0.196132987738,acc,,,
1451,1644542408120604277,,,,gyr,-0.00523598771542,-0.00872664619237,0.0139626339078
1452,1644542408122550011,0.529559075832,-9.61051654816,0.225552946329,acc,,,
1453,1644542408124563932,0.558979034424,-9.61051654816,0.196132987738,acc,,,
1454,1644542408125615835,,,,gyr,-0.00174532923847,-0.0104719754308,0.0139626339078
1455,1644542408126577616,0.549172401428,-9.66935634613,0.225552946329,acc,,,
1456,1644542408128593445,0.529559075832,-9.67916297913,0.176519691944,acc,,,
1457,1644542408130607367,0.57859236002,-9.62032318115,0.166713044047,acc,,,
1458,1644542408130627394,,,,gyr,-0.00174532923847,-0.0069813169539,0.0191986225545
1459,1644542408132621288,0.549172401428,-9.66935634613,0.137293100357,acc,,,
1460,1644542408134635210,0.558979034424,-9.62032318115,0.196132987738,acc,,,
1461,1644542408135639191,,,,gyr,-0.00349065847695,-0.0139626339078,0.0139626339078
1462,1644542408136651039,0.509945809841,-9.61051654816,0.176519691944,acc,,,
1463,1644542408138664722,0.509945809841,-9.66935634613,0.225552946329,acc,,,
1464,1644542408140650749,,,,gyr,0.0,-0.0279252678156,0.00872664619237
1465,1644542408140678644,0.549172401428,-9.62032318115,0.225552946329,acc,,,
1466,1644542408142692566,0.549172401428,-9.62032318115,0.245166242123,acc,,,
1467,1644542408144706488,0.529559075832,-9.64974308014,0.196132987738,acc,,,
1468,1644542408145662308,,,,gyr,-0.00523598771542,-0.0471238903701,0.0
1469,1644542408146722317,0.558979034424,-9.61051654816,0.196132987738,acc,,,
1470,1644542408148736000,0.529559075832,-9.64974308014,0.245166242123,acc,,,
1471,1644542408150674105,,,,gyr,-0.0069813169539,-0.0645771846175,-0.00523598771542
1472,1644542408150752068,0.558979034424,-9.64974308014,0.245166242123,acc,,,
1473,1644542408152765751,0.558979034424,-9.62032318115,0.196132987738,acc,,,
1474,1644542408154779673,0.558979034424,-9.66935634613,0.245166242123,acc,,,
1475,1644542408155685902,,,,gyr,-0.0069813169539,-0.0750491544604,-0.00523598771542
1476,1644542408156793594,0.598205626011,-9.61051654816,0.264779537916,acc,,,
1477,1644542408158809662,0.549172401428,-9.62032318115,0.264779537916,acc,,,
1478,1644542408160697222,,,,gyr,-0.00174532923847,-0.0680678412318,-0.0104719754308
1479,1644542408160823345,0.57859236002,-9.64974308014,0.225552946329,acc,,,
1480,1644542408162837267,0.558979034424,-9.62032318115,0.225552946329,acc,,,
1481,1644542408164851189,0.558979034424,-9.62032318115,0.225552946329,acc,,,
1482,1644542408165709019,,,,gyr,-0.00174532923847,-0.0523598790169,0.00349065847695
1483,1644542408166867018,0.57859236002,-9.64974308014,0.245166242123,acc,,,
1484,1644542408168880939,0.598205626011,-9.61051654816,0.176519691944,acc,,,
1485,1644542408170720816,,,,gyr,-0.00349065847695,-0.0261799395084,0.0139626339078
1486,1644542408170894623,0.529559075832,-9.62032318115,0.264779537916,acc,,,
1487,1644542408172908545,0.549172401428,-9.62032318115,0.264779537916,acc,,,
1488,1644542408174924374,0.558979034424,-9.66935634613,0.245166242123,acc,,,
1489,1644542408175730228,,,,gyr,-0.00174532923847,-0.0191986225545,0.0261799395084
1490,1644542408176938295,0.57859236002,-9.61051654816,0.245166242123,acc,,,
1491,1644542408178952217,0.529559075832,-9.62032318115,0.245166242123,acc,,,
1492,1644542408180742025,,,,gyr,-0.00349065847695,-0.0209439508617,0.0279252678156
1493,1644542408180965900,0.490332484245,-9.64974308014,0.264779537916,acc,,,
1494,1644542408182981730,0.509945809841,-9.62032318115,0.245166242123,acc,,,
1495,1644542408184995651,0.509945809841,-9.58109664917,0.274586200714,acc,,,
1496,1644542408185753584,,,,gyr,-0.00349065847695,-0.0383972451091,0.0226892791688
1497,1644542408187009573,0.509945809841,-9.61051654816,0.225552946329,acc,,,
1498,1644542408189025402,0.509945809841,-9.58109664917,0.225552946329,acc,,,
1499,1644542408190765142,,,,gyr,-0.00174532923847,-0.0523598790169,0.0104719754308
1500,1644542408191039324,0.490332484245,-9.67916297913,0.245166242123,acc,,,
1501,1644542408193053007,0.470719188452,-9.62032318115,0.294199496508,acc,,,
1502,1644542408195066929,0.451105892658,-9.64974308014,0.274586200714,acc,,,
1503,1644542408195776939,,,,gyr,-0.00174532923847,-0.0645771846175,0.0069813169539
1504,1644542408197082758,0.470719188452,-9.62032318115,0.225552946329,acc,,,
1505,1644542408199096680,0.470719188452,-9.62032318115,0.196132987738,acc,,,
1506,1644542408200788498,,,,gyr,-0.00523598771542,-0.0680678412318,-0.00523598771542
1507,1644542408201110601,0.490332484245,-9.61051654816,0.225552946329,acc,,,
1508,1644542408203126431,0.490332484245,-9.61051654816,0.176519691944,acc,,,
1509,1644542408205140114,0.470719188452,-9.62032318115,0.196132987738,acc,,,
1510,1644542408205800056,,,,gyr,-0.0069813169539,-0.0593411922455,-0.0104719754308
1511,1644542408207154036,0.490332484245,-9.62032318115,0.176519691944,acc,,,
1512,1644542408209167957,0.509945809841,-9.58109664917,0.225552946329,acc,,,
1513,1644542408210811853,,,,gyr,-0.00349065847695,-0.0558505356312,-0.0191986225545
1514,1644542408211183786,0.470719188452,-9.64974308014,0.196132987738,acc,,,
1515,1644542408213197708,0.549172401428,-9.66935634613,0.0980664938688,acc,,,
1516,1644542408215211391,0.529559075832,-9.67916297913,0.137293100357,acc,,,
1517,1644542408215823412,,,,gyr,-0.00872664619237,-0.0436332300305,-0.0191986225545
1518,1644542408217225313,0.549172401428,-9.66935634613,0.12748645246,acc,,,
1519,1644542408219239235,0.558979034424,-9.62032318115,0.196132987738,acc,,,
1520,1644542408220835209,,,,gyr,-0.0069813169539,-0.0383972451091,-0.0191986225545
1521,1644542408221255064,0.57859236002,-9.64974308014,0.166713044047,acc,,,
1522,1644542408223268986,0.529559075832,-9.66935634613,0.196132987738,acc,,,
1523,1644542408225282669,0.529559075832,-9.61051654816,0.137293100357,acc,,,
1524,1644542408225846767,,,,gyr,-0.00349065847695,-0.0209439508617,-0.0174532923847
1525,1644542408227296591,0.529559075832,-9.58109664917,0.12748645246,acc,,,
1526,1644542408229312420,0.529559075832,-9.62032318115,0.176519691944,acc,,,
1527,1644542408230858326,,,,gyr,-0.00523598771542,-0.0104719754308,-0.00523598771542
1528,1644542408231326342,0.57859236002,-9.64974308014,0.166713044047,acc,,,
1529,1644542408233340263,0.509945809841,-9.62032318115,0.166713044047,acc,,,
1530,1644542408235356092,0.549172401428,-9.62032318115,0.176519691944,acc,,,
1531,1644542408235870123,,,,gyr,-0.00174532923847,-0.00174532923847,-0.0069813169539
1532,1644542408237369776,0.549172401428,-9.61051654816,0.176519691944,acc,,,
1533,1644542408239383698,0.558979034424,-9.61051654816,0.166713044047,acc,,,
1534,1644542408240881681,,,,gyr,-0.00523598771542,0.00174532923847,-0.00523598771542
1535,1644542408241397619,0.509945809841,-9.61051654816,0.176519691944,acc,,,
1536,1644542408243413687,0.509945809841,-9.64974308014,0.166713044047,acc,,,
1537,1644542408245427608,0.549172401428,-9.62032318115,0.225552946329,acc,,,
1538,1644542408245891333,,,,gyr,-0.00174532923847,-0.00174532923847,-0.00523598771542
1539,1644542408247441053,0.549172401428,-9.64974308014,0.225552946329,acc,,,
1540,1644542408249454975,0.529559075832,-9.64974308014,0.225552946329,acc,,,
1541,1644542408250903130,,,,gyr,0.0,-0.00349065847695,-0.00349065847695
1542,1644542408251471043,0.549172401428,-9.61051654816,0.176519691944,acc,,,
1543,1644542408253484964,0.57859236002,-9.62032318115,0.166713044047,acc,,,
1544,1644542408255500793,0.549172401428,-9.62032318115,0.12748645246,acc,,,
1545,1644542408255914450,,,,gyr,0.0,-0.00349065847695,-0.00523598771542
1546,1644542408257514715,0.558979034424,-9.62032318115,0.166713044047,acc,,,
1547,1644542408259528399,0.558979034424,-9.64974308014,0.176519691944,acc,,,
1548,1644542408260926247,,,,gyr,-0.00349065847695,-0.0139626339078,-0.0069813169539
1549,1644542408261544228,0.558979034424,-9.62032318115,0.225552946329,acc,,,
1550,1644542408263558149,0.57859236002,-9.64974308014,0.166713044047,acc,,,
1551,1644542408265573978,0.627625584602,-9.62032318115,0.166713044047,acc,,,
1552,1644542408265938044,,,,gyr,-0.00174532923847,-0.0349065847695,0.0
1553,1644542408267587900,0.598205626011,-9.62032318115,0.176519691944,acc,,,
1554,1644542408269601822,0.57859236002,-9.64974308014,0.225552946329,acc,,,
1555,1644542408270949602,,,,gyr,-0.00349065847695,-0.0558505356312,0.0
1556,1644542408271617651,0.57859236002,-9.58109664917,0.166713044047,acc,,,
1557,1644542408273631334,0.558979034424,-9.62032318115,0.264779537916,acc,,,
1558,1644542408275645256,0.558979034424,-9.61051654816,0.245166242123,acc,,,
1559,1644542408275961161,,,,gyr,0.0,-0.0785398185253,-0.00174532923847
1560,1644542408277661085,0.558979034424,-9.62032318115,0.176519691944,acc,,,
1561,1644542408279675007,0.57859236002,-9.67916297913,0.176519691944,acc,,,
1562,1644542408280972958,,,,gyr,-0.00349065847695,-0.0872664600611,-0.00174532923847
1563,1644542408281688929,0.627625584602,-9.62032318115,0.264779537916,acc,,,
1564,1644542408283702612,0.57859236002,-9.61051654816,0.245166242123,acc,,,
1565,1644542408285718441,0.549172401428,-9.62032318115,0.225552946329,acc,,,
1566,1644542408285984516,,,,gyr,0.0,-0.0872664600611,0.00349065847695
1567,1644542408287732363,0.549172401428,-9.62032318115,0.225552946329,acc,,,
1568,1644542408289746284,0.57859236002,-9.64974308014,0.176519691944,acc,,,
1569,1644542408290996313,,,,gyr,0.0,-0.0645771846175,0.0139626339078
1570,1644542408291762114,0.57859236002,-9.67916297913,0.196132987738,acc,,,
1571,1644542408293776035,0.558979034424,-9.61051654816,0.264779537916,acc,,,
1572,1644542408295789719,0.57859236002,-9.67916297913,0.245166242123,acc,,,
1573,1644542408296007872,,,,gyr,0.0,-0.0436332300305,0.0261799395084
1574,1644542408297803640,0.558979034424,-9.66935634613,0.166713044047,acc,,,
1575,1644542408299819469,0.57859236002,-9.62032318115,0.196132987738,acc,,,
1576,1644542408301019430,,,,gyr,-0.00349065847695,-0.0104719754308,0.0418879017234
1577,1644542408301833391,0.549172401428,-9.62032318115,0.245166242123,acc,,,
1578,1644542408303847313,0.549172401428,-9.58109664917,0.196132987738,acc,,,
1579,1644542408305860996,0.549172401428,-9.62032318115,0.264779537916,acc,,,
1580,1644542408306031227,,,,gyr,0.0,0.0,0.0471238903701
1581,1644542408307874918,0.490332484245,-9.64974308014,0.264779537916,acc,,,
1582,1644542408309888840,0.509945809841,-9.57129001617,0.245166242123,acc,,,
