,field.header.stamp,field.linear_acceleration.x,field.linear_acceleration.y,field.linear_acceleration.z,type,field.angular_velocity.x,field.angular_velocity.y,field.angular_velocity.z
0,1644542427737929106,0.470719188452,-9.58109664917,0.0392265990376,acc,,,
1,1644542427739943027,0.490332484245,-9.64974308014,0.0392265990376,acc,,,
2,1644542427741211176,,,,gyr,-0.0209439508617,-0.00523598771542,0.0104719754308
3,1644542427741959333,0.490332484245,-9.61051654816,0.0686465501785,acc,,,
4,1644542427743971109,0.509945809841,-9.66935634613,0.00980664975941,acc,,,
5,1644542427745987177,0.490332484245,-9.61051654816,0.0294199492782,acc,,,
6,1644542427746223211,,,,gyr,-0.0279252678156,-0.00523598771542,0.0139626339078
7,1644542427748001337,0.421685934067,-9.58109664917,0.0,acc,,,
8,1644542427750015020,0.402072638273,-9.57129001617,-0.0294199492782,acc,,,
9,1644542427751235008,,,,gyr,-0.0296705961227,-0.00349065847695,0.0139626339078
10,1644542427752031326,0.451105892658,-9.56148338318,-0.0294199492782,acc,,,
11,1644542427754045248,0.402072638273,-9.62032318115,-0.0294199492782,acc,,,
12,1644542427756061316,0.421685934067,-9.61051654816,0.00980664975941,acc,,,
13,1644542427756245136,,,,gyr,-0.0174532923847,-0.00523598771542,0.00872664619237
14,1644542427758077145,0.470719188452,-9.64974308014,0.00980664975941,acc,,,
15,1644542427760091305,0.509945809841,-9.66935634613,0.0294199492782,acc,,,
16,1644542427761257172,,,,gyr,-0.00174532923847,0.0,0.0
17,1644542427762107134,0.490332484245,-9.62032318115,0.00980664975941,acc,,,
18,1644542427764121056,0.529559075832,-9.61051654816,0.00980664975941,acc,,,
19,1644542427766137123,0.470719188452,-9.62032318115,0.0392265990376,acc,,,
20,1644542427766269207,,,,gyr,0.0,0.00174532923847,0.0
21,1644542427768149137,0.509945809841,-9.56148338318,-0.00980664975941,acc,,,
22,1644542427771281242,,,,gyr,0.0,0.0,0.00174532923847
23,1644542427776293278,,,,gyr,-0.00349065847695,-0.00349065847695,-0.00349065847695
24,1644542427781305313,,,,gyr,0.0,-0.00174532923847,0.0
25,1644542427786317348,,,,gyr,0.0,0.0,-0.00349065847695
26,1644542427791329384,,,,gyr,0.0,0.00174532923847,0.0
27,1644542427796341419,,,,gyr,0.00523598771542,-0.00174532923847,0.0
28,1644542427801353455,,,,gyr,0.00174532923847,0.0,-0.00174532923847
29,1644542427806365490,,,,gyr,0.00174532923847,0.0,0.00174532923847
30,1644542427811377525,,,,gyr,0.00349065847695,-0.00523598771542,0.0
31,1644542427816389322,,,,gyr,0.00349065847695,0.0,-0.00349065847695
32,1644542428505541563,0.451105892658,-9.58109664917,0.0294199492782,acc,,,
33,1644542428507555485,0.451105892658,-9.61051654816,0.0,acc,,,
34,1644542428508031607,,,,gyr,0.00523598771542,0.00174532923847,0.0
35,1644542428509569407,0.451105892658,-9.57129001617,0.0,acc,,,
36,1644542428511585236,0.470719188452,-9.58109664917,0.00980664975941,acc,,,
37,1644542428513043165,,,,gyr,0.0104719754308,0.0,-0.0069813169539
38,1644542428513599157,0.509945809841,-9.62032318115,0.00980664975941,acc,,,
39,1644542428515613079,0.470719188452,-9.62032318115,0.0,acc,,,
40,1644542428517629147,0.470719188452,-9.62032318115,0.0294199492782,acc,,,
41,1644542428518055201,,,,gyr,0.0174532923847,0.0,-0.0139626339078
42,1644542428519643068,0.529559075832,-9.61051654816,0.0294199492782,acc,,,
43,1644542428521656990,0.490332484245,-9.62032318115,0.00980664975941,acc,,,
44,1644542428523066998,,,,gyr,0.0226892791688,0.00523598771542,-0.0104719754308
45,1644542428523670912,0.451105892658,-9.64974308014,0.00980664975941,acc,,,
46,1644542428525686741,0.470719188452,-9.58109664917,0.00980664975941,acc,,,
47,1644542428527700663,0.509945809841,-9.61051654816,0.00980664975941,acc,,,
48,1644542428528076649,,,,gyr,0.0261799395084,0.00523598771542,-0.0139626339078
49,1644542428529714584,0.490332484245,-9.61051654816,0.00980664975941,acc,,,
50,1644542428531728506,0.490332484245,-9.61051654816,0.0392265990376,acc,,,
51,1644542428533088446,,,,gyr,0.0261799395084,0.00174532923847,-0.0139626339078
52,1644542428533744335,0.490332484245,-9.58109664917,0.0392265990376,acc,,,
53,1644542428535758257,0.421685934067,-9.53206348419,0.0294199492782,acc,,,
54,1644542428537770271,0.402072638273,-9.61051654816,-0.00980664975941,acc,,,
55,1644542428538100243,,,,gyr,0.0209439508617,0.0069813169539,-0.0139626339078
56,1644542428539786100,0.470719188452,-9.61051654816,0.0,acc,,,
57,1644542428541800022,0.451105892658,-9.61051654816,-0.0294199492782,acc,,,
58,1644542428543112040,,,,gyr,0.0349065847695,0.0069813169539,-0.0209439508617
59,1644542428543813944,0.470719188452,-9.62032318115,0.0,acc,,,
60,1644542428545830011,0.470719188452,-9.61051654816,0.0,acc,,,
61,1644542428547843933,0.509945809841,-9.61051654816,0.00980664975941,acc,,,
62,1644542428548123837,,,,gyr,0.0471238903701,0.0104719754308,-0.0279252678156
63,1644542428549859762,0.490332484245,-9.66935634613,0.0294199492782,acc,,,
64,1644542428551873684,0.549172401428,-9.62032318115,0.0294199492782,acc,,,
65,1644542428553135633,,,,gyr,0.0506145469844,0.0104719754308,-0.0296705961227
66,1644542428553889751,0.529559075832,-9.64974308014,0.0392265990376,acc,,,
67,1644542428555901527,0.549172401428,-9.64974308014,0.0,acc,,,
68,1644542428557917595,0.529559075832,-9.64974308014,0.0294199492782,acc,,,
69,1644542428558147430,,,,gyr,0.0471238903701,0.0104719754308,-0.0296705961227
70,1644542428559931278,0.558979034424,-9.62032318115,0.0980664938688,acc,,,
71,1644542428561945200,0.57859236002,-9.66935634613,0.137293100357,acc,,,
72,1644542428563159227,,,,gyr,0.0383972451091,0.00872664619237,-0.0209439508617
73,1644542428563961267,0.57859236002,-9.67916297913,0.0686465501785,acc,,,
74,1644542428565975189,0.549172401428,-9.66935634613,0.0392265990376,acc,,,
75,1644542428567989111,0.558979034424,-9.64974308014,0.12748645246,acc,,,
76,1644542428568171024,,,,gyr,0.0296705961227,0.00174532923847,-0.0104719754308
77,1644542428570003033,0.558979034424,-9.67916297913,0.00980664975941,acc,,,
78,1644542428572019100,0.558979034424,-9.64974308014,0.0294199492782,acc,,,
79,1644542428573182821,,,,gyr,0.00872664619237,0.00523598771542,-0.00174532923847
80,1644542428574033022,0.549172401428,-9.67916297913,0.0980664938688,acc,,,
81,1644542428576048851,0.529559075832,-9.61051654816,0.0392265990376,acc,,,
82,1644542428578062773,0.490332484245,-9.61051654816,0.00980664975941,acc,,,
83,1644542428578194618,,,,gyr,0.0,0.0,0.00174532923847
84,1644542428580078602,0.490332484245,-9.61051654816,0.0294199492782,acc,,,
85,1644542428582090616,0.529559075832,-9.56148338318,-0.00980664975941,acc,,,
86,1644542428583206654,,,,gyr,-0.00523598771542,0.00349065847695,0.0
87,1644542428584106445,0.529559075832,-9.64974308014,0.00980664975941,acc,,,
88,1644542428586122274,0.529559075832,-9.64974308014,0.0294199492782,acc,,,
89,1644542428588136196,0.558979034424,-9.64974308014,0.00980664975941,acc,,,
90,1644542428588218212,,,,gyr,-0.00349065847695,0.0,0.00174532923847
91,1644542428590150118,0.558979034424,-9.64974308014,0.0392265990376,acc,,,
92,1644542428592164040,0.549172401428,-9.66935634613,0.00980664975941,acc,,,
93,1644542428593230247,,,,gyr,-0.00349065847695,-0.00174532923847,0.00349065847695
94,1644542428594180107,0.549172401428,-9.62032318115,0.0784531980753,acc,,,
95,1644542428596194029,0.558979034424,-9.62032318115,0.0686465501785,acc,,,
96,1644542428598207951,0.57859236002,-9.58109664917,0.0392265990376,acc,,,
97,1644542428598242044,,,,gyr,-0.0104719754308,-0.00174532923847,0.00349065847695
98,1644542428600223780,0.57859236002,-9.64974308014,0.0686465501785,acc,,,
99,1644542428602237701,0.549172401428,-9.66935634613,0.0686465501785,acc,,,
100,1644542428603251696,,,,gyr,-0.0209439508617,-0.00349065847695,0.0139626339078
101,1644542428604251623,0.558979034424,-9.64974308014,0.12748645246,acc,,,
102,1644542428606267691,0.558979034424,-9.66935634613,0.0686465501785,acc,,,
103,1644542428608263493,,,,gyr,-0.0383972451091,-0.0104719754308,0.0226892791688
104,1644542428608281612,0.549172401428,-9.64974308014,0.0294199492782,acc,,,
105,1644542428610295296,0.490332484245,-9.66935634613,0.0,acc,,,
106,1644542428612311363,0.490332484245,-9.61051654816,0.0392265990376,acc,,,
107,1644542428613275290,,,,gyr,-0.0506145469844,-0.0104719754308,0.0226892791688
108,1644542428614325285,0.529559075832,-9.61051654816,0.0294199492782,acc,,,
109,1644542428616339207,0.529559075832,-9.61051654816,0.0,acc,,,
110,1644542428618287086,,,,gyr,-0.0523598790169,-0.0139626339078,0.0296705961227
111,1644542428618355274,0.470719188452,-9.58109664917,0.0294199492782,acc,,,
112,1644542428620369196,0.470719188452,-9.61051654816,0.0,acc,,,
113,1644542428622385025,0.490332484245,-9.62032318115,0.0784531980753,acc,,,
114,1644542428623299122,,,,gyr,-0.0558505356312,-0.0104719754308,0.0226892791688
115,1644542428624398947,0.470719188452,-9.62032318115,0.0784531980753,acc,,,
116,1644542428626414776,0.509945809841,-9.64974308014,0.12748645246,acc,,,
117,1644542428628310680,,,,gyr,-0.0558505356312,-0.0104719754308,0.0296705961227
118,1644542428628428698,0.490332484245,-9.66935634613,0.137293100357,acc,,,
119,1644542428630442619,0.549172401428,-9.64974308014,0.137293100357,acc,,,
120,1644542428632458448,0.470719188452,-9.66935634613,0.166713044047,acc,,,
121,1644542428633322477,,,,gyr,-0.0680678412318,-0.00349065847695,0.0383972451091
122,1644542428634472609,0.529559075832,-9.67916297913,0.137293100357,acc,,,
123,1644542428636488438,0.451105892658,-9.62032318115,0.12748645246,acc,,,
124,1644542428638334513,,,,gyr,-0.0802851468325,0.0,0.0436332300305
125,1644542428638502359,0.490332484245,-9.62032318115,0.12748645246,acc,,,
126,1644542428640516281,0.470719188452,-9.64974308014,0.0784531980753,acc,,,
127,1644542428642532110,0.451105892658,-9.61051654816,0.0294199492782,acc,,,
128,1644542428643346310,,,,gyr,-0.0872664600611,0.00349065847695,0.0523598790169
129,1644542428644546032,0.509945809841,-9.64974308014,0.0392265990376,acc,,,
130,1644542428646559954,0.509945809841,-9.62032318115,0.0392265990376,acc,,,
131,1644542428648357868,,,,gyr,-0.101229093969,0.00872664619237,0.0523598790169
132,1644542428648573875,0.451105892658,-9.57129001617,0.0294199492782,acc,,,
133,1644542428650589943,0.402072638273,-9.58109664917,0.0392265990376,acc,,,
134,1644542428652603865,0.402072638273,-9.56148338318,-0.00980664975941,acc,,,
135,1644542428653369904,,,,gyr,-0.101229093969,0.0104719754308,0.0523598790169
136,1644542428654617786,0.421685934067,-9.57129001617,-0.0294199492782,acc,,,
137,1644542428656631708,0.402072638273,-9.56148338318,-0.0294199492782,acc,,,
138,1644542428658381701,,,,gyr,-0.0855211317539,0.0174532923847,0.0436332300305
139,1644542428658647776,0.38245934248,-9.58109664917,-0.0784531980753,acc,,,
140,1644542428660661697,0.421685934067,-9.61051654816,-0.0686465501785,acc,,,
141,1644542428662675619,0.402072638273,-9.56148338318,0.0,acc,,,
142,1644542428663393497,,,,gyr,-0.0593411922455,0.0279252678156,0.0296705961227
143,1644542428664691448,0.451105892658,-9.61051654816,-0.00980664975941,acc,,,
144,1644542428666707277,0.402072638273,-9.64974308014,0.00980664975941,acc,,,
145,1644542428668405294,,,,gyr,-0.0383972451091,0.0436332300305,0.0191986225545
146,1644542428668721199,0.509945809841,-9.57129001617,0.00980664975941,acc,,,
147,1644542428670735121,0.529559075832,-9.62032318115,0.0392265990376,acc,,,
148,1644542428672751188,0.509945809841,-9.62032318115,0.0294199492782,acc,,,
149,1644542428673414946,,,,gyr,-0.0296705961227,0.0558505356312,0.0139626339078
150,1644542428674765110,0.509945809841,-9.66935634613,0.00980664975941,acc,,,
151,1644542428676779032,0.509945809841,-9.66935634613,0.0294199492782,acc,,,
152,1644542428678428888,,,,gyr,-0.0261799395084,0.0558505356312,0.0104719754308
153,1644542428678792953,0.509945809841,-9.58109664917,0.0392265990376,acc,,,
154,1644542428680808783,0.529559075832,-9.64974308014,0.0392265990376,acc,,,
155,1644542428682822704,0.490332484245,-9.67916297913,0.0294199492782,acc,,,
156,1644542428683438778,,,,gyr,-0.0296705961227,0.0593411922455,0.0209439508617
157,1644542428684838533,0.490332484245,-9.66935634613,0.00980664975941,acc,,,
158,1644542428686850548,0.529559075832,-9.64974308014,0.00980664975941,acc,,,
159,1644542428688450336,,,,gyr,-0.0349065847695,0.0680678412318,0.0226892791688
160,1644542428688866377,0.490332484245,-9.64974308014,0.0,acc,,,
161,1644542428690880299,0.529559075832,-9.62032318115,-0.00980664975941,acc,,,
162,1644542428692894220,0.509945809841,-9.62032318115,-0.0294199492782,acc,,,
163,1644542428693462372,,,,gyr,-0.0436332300305,0.069813169539,0.0209439508617
164,1644542428694908142,0.549172401428,-9.62032318115,-0.0294199492782,acc,,,
165,1644542428696924210,0.509945809841,-9.66935634613,0.0,acc,,,
166,1644542428698474169,,,,gyr,-0.0436332300305,0.069813169539,0.0296705961227
167,1644542428698940277,0.509945809841,-9.66935634613,0.0294199492782,acc,,,
168,1644542428700954199,0.529559075832,-9.66935634613,0.0392265990376,acc,,,
169,1644542428702968121,0.529559075832,-9.67916297913,0.0,acc,,,
170,1644542428703485966,,,,gyr,-0.0558505356312,0.0802851468325,0.0314159244299
171,1644542428704982042,0.549172401428,-9.61051654816,-0.0392265990376,acc,,,
172,1644542428706995964,0.529559075832,-9.62032318115,-0.00980664975941,acc,,,
173,1644542428708497763,,,,gyr,-0.069813169539,0.0872664600611,0.0383972451091
174,1644542428709009647,0.509945809841,-9.62032318115,-0.00980664975941,acc,,,
175,1644542428711025715,0.529559075832,-9.66935634613,0.0294199492782,acc,,,
176,1644542428713039637,0.529559075832,-9.67916297913,0.00980664975941,acc,,,
177,1644542428713509560,,,,gyr,-0.0785398185253,0.0785398185253,0.0436332300305
178,1644542428715055704,0.509945809841,-9.66935634613,0.00980664975941,acc,,,
179,1644542428717069626,0.509945809841,-9.62032318115,0.00980664975941,acc,,,
180,1644542428718521595,,,,gyr,-0.0959931090474,0.0767944902182,0.0558505356312
181,1644542428719083548,0.362846046686,-9.58109664917,0.0392265990376,acc,,,
182,1644542428721099377,0.402072638273,-9.62032318115,0.313812792301,acc,,,
183,1644542428723113298,0.549172401428,-9.80665016174,0.362846046686,acc,,,
184,1644542428723533154,,,,gyr,-0.0977384373546,0.106465086341,0.0558505356312
185,1644542428725127220,0.833565235138,-9.88510322571,0.470719188452,acc,,,
186,1644542428727141142,1.04931151867,-10.1891088486,0.833565235138,acc,,,
187,1644542428728545189,,,,gyr,-0.130899697542,0.183259576559,0.0855211317539
188,1644542428729155064,1.2552511692,-10.3165950775,0.951245009899,acc,,,
189,1644542428731170893,0.990471601486,-10.0910425186,0.735498726368,acc,,,
190,1644542428733184814,0.764918684959,-9.78703689575,0.137293100357,acc,,,
191,1644542428733556986,,,,gyr,-0.305432617664,0.162315621972,0.179768905044
192,1644542428735198736,0.57859236002,-9.42419052124,-0.451105892658,acc,,,
193,1644542428737212658,0.470719188452,-9.24767112732,-0.872791826725,acc,,,
194,1644542428738568544,,,,gyr,-0.462512254715,0.0925024524331,0.28274333477
195,1644542428739226580,0.470719188452,-9.38496398926,-0.549172401428,acc,,,
196,1644542428741240501,0.402072638273,-9.58109664917,-0.196132987738,acc,,,
197,1644542428743256569,0.343232750893,-9.53206348419,-0.176519691944,acc,,,
198,1644542428743580580,,,,gyr,-0.38920840621,0.0383972451091,0.310668617487
199,1644542428745270491,0.294199496508,-9.49283695221,-0.225552946329,acc,,,
200,1644542428747284412,0.264779537916,-9.48303031921,-0.343232750893,acc,,,
201,1644542428748592377,,,,gyr,-0.328121900558,0.0209439508617,0.310668617487
202,1644542428749298334,0.343232750893,-9.5222568512,-0.313812792301,acc,,,
203,1644542428751314163,0.343232750893,-9.58109664917,-0.196132987738,acc,,,
204,1644542428753328085,0.402072638273,-9.62032318115,-0.166713044047,acc,,,
205,1644542428753604174,,,,gyr,-0.28274333477,0.0191986225545,0.28274333477
206,1644542428755342007,0.421685934067,-9.64974308014,-0.137293100357,acc,,,
207,1644542428757355928,0.402072638273,-9.62032318115,-0.0980664938688,acc,,,
208,1644542428758615971,,,,gyr,-0.25830873847,0.00349065847695,0.275762021542
209,1644542428759371758,0.362846046686,-9.64974308014,-0.12748645246,acc,,,
210,1644542428761385918,0.274586200714,-9.58109664917,-0.166713044047,acc,,,
211,1644542428763399839,0.12748645246,-9.56148338318,-0.225552946329,acc,,,
212,1644542428763625622,,,,gyr,-0.261799395084,-0.0104719754308,0.272271364927
213,1644542428765413761,0.0686465501785,-9.48303031921,-0.313812792301,acc,,,
214,1644542428767429590,0.0294199492782,-9.48303031921,-0.38245934248,acc,,,
215,1644542428768637657,,,,gyr,-0.240855440497,-0.0104719754308,0.244346097112
216,1644542428769443512,0.0294199492782,-9.43399715424,-0.451105892658,acc,,,
217,1644542428771457434,0.00980664975941,-9.42419052124,-0.451105892658,acc,,,
218,1644542428773473501,0.0784531980753,-9.43399715424,-0.402072638273,acc,,,
219,1644542428773649454,,,,gyr,-0.185004904866,0.0,0.176278248429
220,1644542428775487423,0.0784531980753,-9.42419052124,-0.38245934248,acc,,,
221,1644542428777501106,0.166713044047,-9.48303031921,-0.294199496508,acc,,,
222,1644542428778661489,,,,gyr,-0.102974422276,0.0,0.0942477807403
223,1644542428779515028,0.196132987738,-9.5222568512,-0.264779537916,acc,,,
224,1644542428781528950,0.264779537916,-9.56148338318,-0.196132987738,acc,,,
225,1644542428783545256,0.343232750893,-9.58109664917,-0.176519691944,acc,,,
226,1644542428783673048,,,,gyr,-0.0471238903701,0.00174532923847,0.0383972451091
227,1644542428785559177,0.362846046686,-9.58109664917,-0.166713044047,acc,,,
228,1644542428787573099,0.343232750893,-9.61051654816,-0.166713044047,acc,,,
229,1644542428788684845,,,,gyr,-0.0174532923847,-0.00174532923847,0.0104719754308
230,1644542428789587021,0.274586200714,-9.58109664917,-0.166713044047,acc,,,
231,1644542428791602850,0.274586200714,-9.56148338318,-0.176519691944,acc,,,
232,1644542428793616772,0.225552946329,-9.56148338318,-0.196132987738,acc,,,
233,1644542428793696880,,,,gyr,-0.00349065847695,0.0,-0.00349065847695
234,1644542428795630693,0.225552946329,-9.57129001617,-0.176519691944,acc,,,
235,1644542428797644615,0.176519691944,-9.57129001617,-0.196132987738,acc,,,
236,1644542428798708439,,,,gyr,0.0174532923847,0.00349065847695,-0.0191986225545
237,1644542428799658537,0.225552946329,-9.56148338318,-0.225552946329,acc,,,
238,1644542428801672459,0.196132987738,-9.57129001617,-0.225552946329,acc,,,
239,1644542428803688526,0.225552946329,-9.56148338318,-0.225552946329,acc,,,
240,1644542428803720474,,,,gyr,0.0471238903701,0.0191986225545,-0.0506145469844
241,1644542428805702448,0.264779537916,-9.57129001617,-0.225552946329,acc,,,
242,1644542428807716370,0.343232750893,-9.58109664917,-0.166713044047,acc,,,
243,1644542428808732271,,,,gyr,0.0872664600611,0.0296705961227,-0.0855211317539
244,1644542428809730291,0.490332484245,-9.71838951111,-0.0784531980753,acc,,,
245,1644542428811746120,0.558979034424,-9.78703689575,0.0980664938688,acc,,,
246,1644542428813744068,,,,gyr,0.104719758034,0.0418879017234,-0.102974422276
247,1644542428813761950,0.490332484245,-9.71838951111,0.0784531980753,acc,,,
248,1644542428815773964,0.470719188452,-9.67916297913,-0.0392265990376,acc,,,
249,1644542428817787886,0.402072638273,-9.66935634613,-0.0686465501785,acc,,,
250,1644542428818755865,,,,gyr,0.069813169539,0.0314159244299,-0.0715584978461
251,1644542428819803715,0.402072638273,-9.66935634613,-0.0784531980753,acc,,,
252,1644542428821817636,0.549172401428,-9.71838951111,-0.0392265990376,acc,,,
253,1644542428823767662,,,,gyr,0.0471238903701,0.0226892791688,-0.0471238903701
254,1644542428823833704,0.57859236002,-9.75761604309,0.00980664975941,acc,,,
255,1644542428825847626,0.57859236002,-9.78703689575,0.0294199492782,acc,,,
256,1644542428827861547,0.549172401428,-9.80665016174,0.00980664975941,acc,,,
257,1644542428828779459,,,,gyr,0.0139626339078,0.0104719754308,-0.0174532923847
258,1644542428829875469,0.529559075832,-9.71838951111,0.0,acc,,,
259,1644542428831891298,0.549172401428,-9.7478094101,0.00980664975941,acc,,,
260,1644542428833789349,,,,gyr,-0.0296705961227,-0.0104719754308,0.0279252678156
261,1644542428833905220,0.598205626011,-9.80665016174,0.137293100357,acc,,,
262,1644542428835919142,0.627625584602,-9.81645679474,0.176519691944,acc,,,
263,1644542428837935209,0.735498726368,-9.88510322571,0.176519691944,acc,,,
264,1644542428838801384,,,,gyr,-0.0837758034468,-0.0296705961227,0.0785398185253
265,1644542428839949131,0.666852176189,-9.83607006073,0.274586200714,acc,,,
266,1644542428841963053,0.627625584602,-9.86548995972,0.176519691944,acc,,,
267,1644542428843812943,,,,gyr,-0.171042263508,-0.0558505356312,0.141371667385
268,1644542428843976974,0.637432217598,-9.78703689575,0.166713044047,acc,,,
269,1644542428845990896,0.558979034424,-9.78703689575,0.00980664975941,acc,,,
270,1644542428848004818,0.529559075832,-9.70858287811,-0.0686465501785,acc,,,
271,1644542428848824739,,,,gyr,-0.26354470849,-0.0925024524331,0.209439516068
272,1644542428850018740,0.57859236002,-9.71838951111,-0.0784531980753,acc,,,
273,1644542428852034569,0.558979034424,-9.71838951111,-0.12748645246,acc,,,
274,1644542428853836775,,,,gyr,-0.32637655735,-0.118682384491,0.26354470849
275,1644542428854048491,0.451105892658,-9.64974308014,-0.166713044047,acc,,,
276,1644542428856062412,0.38245934248,-9.62032318115,-0.137293100357,acc,,,
277,1644542428858078718,0.343232750893,-9.61051654816,-0.225552946329,acc,,,
278,1644542428858848333,,,,gyr,-0.366519153118,-0.158824965358,0.305432617664
279,1644542428860092640,0.313812792301,-9.58109664917,-0.225552946329,acc,,,
280,1644542428862106562,0.343232750893,-9.58109664917,-0.225552946329,acc,,,
281,1644542428863860369,,,,gyr,-0.380481779575,-0.176278248429,0.319395244122
282,1644542428864120245,0.343232750893,-9.58109664917,-0.294199496508,acc,,,
283,1644542428866134167,0.362846046686,-9.53206348419,-0.274586200714,acc,,,
284,1644542428868148088,0.294199496508,-9.53206348419,-0.245166242123,acc,,,
285,1644542428868872166,,,,gyr,-0.366519153118,-0.176278248429,0.32637655735
286,1644542428870164156,0.0686465501785,-9.49283695221,-0.264779537916,acc,,,
287,1644542428872175932,-0.00980664975941,-9.39477062225,-0.725692093372,acc,,,
288,1644542428873883963,,,,gyr,-0.32637655735,-0.144862323999,0.336848556995
289,1644542428874191999,-0.137293100357,-9.30651092529,-0.872791826725,acc,,,
290,1644542428876205921,-0.166713044047,-9.35554409027,-0.637432217598,acc,,,
291,1644542428878219843,-0.0392265990376,-9.43399715424,-0.470719188452,acc,,,
292,1644542428878895760,,,,gyr,-0.249582082033,-0.118682384491,0.275762021542
293,1644542428880235910,0.0294199492782,-9.48303031921,-0.362846046686,acc,,,
294,1644542428882249832,0.0,-9.39477062225,-0.490332484245,acc,,,
295,1644542428883907795,,,,gyr,-0.157079637051,-0.0785398185253,0.197222203016
296,1644542428884263754,-0.0294199492782,-9.38496398926,-0.686465501785,acc,,,
297,1644542428886279583,-0.0784531980753,-9.2868976593,-0.637432217598,acc,,,
298,1644542428888293505,0.0,-9.30651092529,-0.627625584602,acc,,,
299,1644542428888919353,,,,gyr,-0.069813169539,-0.0418879017234,0.132645025849
300,1644542428890309334,0.0784531980753,-9.42419052124,-0.627625584602,acc,,,
301,1644542428892323256,0.0980664938688,-9.45361042023,-0.490332484245,acc,,,
302,1644542428893931389,,,,gyr,0.0226892791688,-0.0139626339078,0.0645771846175
303,1644542428894337177,0.0686465501785,-9.5222568512,-0.362846046686,acc,,,
304,1644542428896353245,0.0686465501785,-9.53206348419,-0.274586200714,acc,,,
305,1644542428898367167,0.0392265990376,-9.61051654816,-0.166713044047,acc,,,
306,1644542428898943186,,,,gyr,0.0890117883682,0.0,0.0139626339078
307,1644542428900381088,0.0980664938688,-9.71838951111,-0.0784531980753,acc,,,
308,1644542428902396917,0.0686465501785,-9.70858287811,-0.0686465501785,acc,,,
309,1644542428903954744,,,,gyr,0.0959931090474,0.0139626339078,-0.0349065847695
310,1644542428904410839,0.137293100357,-9.61051654816,-0.274586200714,acc,,,
311,1644542428906424761,0.0784531980753,-9.57129001617,-0.294199496508,acc,,,
312,1644542428908440828,0.0686465501785,-9.57129001617,-0.264779537916,acc,,,
313,1644542428908964872,,,,gyr,0.0715584978461,0.0226892791688,-0.0837758034468
314,1644542428910454750,0.137293100357,-9.61051654816,-0.225552946329,acc,,,
315,1644542428912468672,0.0392265990376,-9.61051654816,-0.264779537916,acc,,,
316,1644542428913976669,,,,gyr,0.0837758034468,0.0349065847695,-0.123918376863
317,1644542428914484501,0.225552946329,-9.86548995972,0.0784531980753,acc,,,
318,1644542428916498423,0.470719188452,-9.66935634613,-0.166713044047,acc,,,
319,1644542428918512344,0.451105892658,-9.56148338318,-0.343232750893,acc,,,
320,1644542428918988466,,,,gyr,0.069813169539,0.0296705961227,-0.162315621972
321,1644542428920526266,0.0980664938688,-9.48303031921,-0.313812792301,acc,,,
322,1644542428922538280,-0.137293100357,-9.5222568512,-0.38245934248,acc,,,
323,1644542428924000263,,,,gyr,0.0680678412318,0.0349065847695,-0.150098308921
324,1644542428924554110,-0.176519691944,-9.39477062225,-0.402072638273,acc,,,
325,1644542428926568031,-0.12748645246,-9.38496398926,-0.451105892658,acc,,,
326,1644542428928581953,-0.0980664938688,-9.45361042023,-0.343232750893,acc,,,
327,1644542428929012299,,,,gyr,0.122173048556,0.0523598790169,-0.205948844552
328,1644542428930596113,-0.274586200714,-9.2868976593,-0.451105892658,acc,,,
329,1644542428932611942,-0.402072638273,-9.20844459534,-0.725692093372,acc,,,
330,1644542428934023857,,,,gyr,0.200712859631,0.0959931090474,-0.315904587507
331,1644542428934625864,-0.470719188452,-9.07115077972,-0.961051702499,acc,,,
332,1644542428936641932,-0.137293100357,-9.21825122833,-0.666852176189,acc,,,
333,1644542428938655853,-0.0784531980753,-9.34573745728,-0.549172401428,acc,,,
334,1644542428939035892,,,,gyr,0.352556496859,0.179768905044,-0.445058941841
335,1644542428940671682,0.0686465501785,-9.43399715424,-0.274586200714,acc,,,
336,1644542428942687750,0.196132987738,-9.53206348419,-0.176519691944,acc,,,
337,1644542428944047689,,,,gyr,0.509636163712,0.25830873847,-0.553269386292
338,1644542428944701672,0.294199496508,-9.61051654816,-0.137293100357,acc,,,
339,1644542428946715593,0.402072638273,-9.64974308014,-0.0294199492782,acc,,,
340,1644542428948731422,0.558979034424,-9.70858287811,0.0,acc,,,
341,1644542428949059486,,,,gyr,0.561996042728,0.296705961227,-0.600393235683
342,1644542428950747252,0.813951909542,-9.80665016174,0.12748645246,acc,,,
343,1644542428952761173,0.921825051308,-9.61051654816,0.176519691944,acc,,,
344,1644542428954071283,,,,gyr,0.546288073063,0.300196617842,-0.582939982414
345,1644542428954773188,2.78508853912,-9.07115077972,-3.55981397629,acc,,,
346,1644542428956789255,-0.343232750893,-10.0910425186,2.74586200714,acc,,,
347,1644542428958803177,1.04931151867,-9.88510322571,-0.764918684959,acc,,,
348,1644542428959083319,,,,gyr,0.579449295998,0.23212878406,-0.432841658592
349,1644542428960817099,1.13757133484,-9.81645679474,0.451105892658,acc,,,
350,1644542428962832928,0.529559075832,-10.2087221146,1.05911815166,acc,,,
351,1644542428964094877,,,,gyr,0.535816073418,0.165806278586,-0.289724647999
352,1644542428964846849,1.16699135303,-9.8949098587,0.0784531980753,acc,,,
353,1644542428966860771,0.804145276546,-10.0125894547,0.804145276546,acc,,,
354,1644542428968876600,0.725692093372,-9.91452312469,0.509945809841,acc,,,
355,1644542428969106913,,,,gyr,0.376991122961,0.111701071262,-0.205948844552
356,1644542428970890760,0.764918684959,-9.75761604309,0.0980664938688,acc,,,
357,1644542428972904682,0.529559075832,-9.80665016174,0.264779537916,acc,,,
358,1644542428974118710,,,,gyr,0.223402142525,0.0558505356312,-0.118682384491
359,1644542428974918604,0.637432217598,-9.7478094101,0.137293100357,acc,,,
360,1644542428976934671,0.696272134781,-9.86548995972,0.245166242123,acc,,,
361,1644542428978948593,0.764918684959,-9.86548995972,0.529559075832,acc,,,
362,1644542428979130507,,,,gyr,0.139626339078,0.0296705961227,-0.0750491544604
363,1644542428980962515,0.813951909542,-9.98316955566,0.470719188452,acc,,,
364,1644542428982978344,0.813951909542,-9.78703689575,0.225552946329,acc,,,
365,1644542428984142303,,,,gyr,0.0418879017234,0.00523598771542,-0.0191986225545
366,1644542428984992266,0.813951909542,-9.80665016174,0.0294199492782,acc,,,
367,1644542428987006426,0.813951909542,-9.78703689575,0.0784531980753,acc,,,
368,1644542428989020348,0.872791826725,-9.70858287811,0.0,acc,,,
369,1644542428989154100,,,,gyr,-0.0523598790169,-0.0383972451091,0.0558505356312
370,1644542428991034269,0.833565235138,-9.66935634613,-0.137293100357,acc,,,
371,1644542428993048191,0.764918684959,-9.61051654816,-0.166713044047,acc,,,
372,1644542428994163990,,,,gyr,-0.106465086341,-0.106465086341,0.139626339078
373,1644542428995062113,0.666852176189,-9.64974308014,-0.176519691944,acc,,,
374,1644542428997076035,0.57859236002,-9.56148338318,-0.166713044047,acc,,,
375,1644542428999089956,0.470719188452,-9.61051654816,-0.166713044047,acc,,,
376,1644542428999175787,,,,gyr,-0.118682384491,-0.183259576559,0.211184844375
377,1644542429001105785,0.451105892658,-9.61051654816,-0.0980664938688,acc,,,
378,1644542429003119707,0.362846046686,-9.61051654816,-0.0392265990376,acc,,,
379,1644542429004187822,,,,gyr,-0.104719758034,-0.223402142525,0.246091425419
380,1644542429005135775,0.294199496508,-9.67916297913,0.00980664975941,acc,,,
381,1644542429007149696,0.313812792301,-9.64974308014,0.0294199492782,acc,,,
382,1644542429009163618,0.245166242123,-9.67916297913,0.0,acc,,,
383,1644542429009199381,,,,gyr,-0.102974422276,-0.23212878406,0.235619440675
384,1644542429011179447,0.245166242123,-9.61051654816,0.0392265990376,acc,,,
385,1644542429013193369,0.313812792301,-9.71838951111,0.00980664975941,acc,,,
386,1644542429014211416,,,,gyr,-0.118682384491,-0.21991148591,0.205948844552
387,1644542429015207291,0.38245934248,-9.66935634613,0.0,acc,,,
388,1644542429017221212,0.264779537916,-9.66935634613,-0.0784531980753,acc,,,
389,1644542429019223213,,,,gyr,-0.136135682464,-0.185004904866,0.171042263508
390,1644542429019237280,0.264779537916,-9.58109664917,-0.137293100357,acc,,,
391,1644542429021251202,0.245166242123,-9.57129001617,-0.166713044047,acc,,,
392,1644542429023265123,0.176519691944,-9.53206348419,-0.176519691944,acc,,,
393,1644542429024235010,,,,gyr,-0.132645025849,-0.171042263508,0.150098308921
394,1644542429025280952,0.245166242123,-9.56148338318,-0.225552946329,acc,,,
395,1644542429027294874,0.225552946329,-9.58109664917,-0.196132987738,acc,,,
396,1644542429029246807,,,,gyr,-0.0977384373546,-0.162315621972,0.0959931090474
397,1644542429029308796,0.274586200714,-9.53206348419,-0.166713044047,acc,,,
398,1644542429031324863,0.294199496508,-9.61051654816,-0.166713044047,acc,,,
399,1644542429033338785,0.294199496508,-9.62032318115,-0.0980664938688,acc,,,
400,1644542429034258842,,,,gyr,-0.0610865242779,-0.144862323999,0.0558505356312
401,1644542429035352707,0.343232750893,-9.62032318115,-0.0980664938688,acc,,,
402,1644542429037366629,0.402072638273,-9.62032318115,-0.0686465501785,acc,,,
403,1644542429039270401,,,,gyr,-0.0436332300305,-0.11344639957,0.0261799395084
404,1644542429039382458,0.490332484245,-9.66935634613,-0.0686465501785,acc,,,
405,1644542429041396379,0.470719188452,-9.66935634613,-0.0686465501785,acc,,,
406,1644542429043410301,0.470719188452,-9.64974308014,0.0,acc,,,
407,1644542429044282436,,,,gyr,-0.0418879017234,-0.104719758034,0.0139626339078
408,1644542429045424223,0.490332484245,-9.62032318115,-0.00980664975941,acc,,,
409,1644542429047438145,0.509945809841,-9.62032318115,-0.0294199492782,acc,,,
410,1644542429049294233,,,,gyr,-0.0523598790169,-0.0942477807403,0.0296705961227
411,1644542429049454451,0.421685934067,-9.67916297913,-0.0294199492782,acc,,,
412,1644542429051468372,0.402072638273,-9.67916297913,-0.0686465501785,acc,,,
413,1644542429053482294,0.421685934067,-9.67916297913,0.00980664975941,acc,,,
414,1644542429054306269,,,,gyr,-0.0767944902182,-0.0925024524331,0.0436332300305
415,1644542429055495977,0.402072638273,-9.67916297913,-0.0784531980753,acc,,,
416,1644542429057509899,0.362846046686,-9.66935634613,-0.00980664975941,acc,,,
417,1644542429059317827,,,,gyr,-0.0959931090474,-0.0837758034468,0.0558505356312
418,1644542429059523821,0.313812792301,-9.64974308014,-0.0686465501785,acc,,,
419,1644542429061539888,0.313812792301,-9.61051654816,-0.137293100357,acc,,,
420,1644542429063554049,0.294199496508,-9.5222568512,-0.176519691944,acc,,,
421,1644542429064329863,,,,gyr,-0.104719758034,-0.0645771846175,0.0558505356312
422,1644542429065565586,-0.00980664975941,-9.21825122833,-0.529559075832,acc,,,
423,1644542429067579746,-0.402072638273,-9.17902374268,-0.637432217598,acc,,,
424,1644542429069339514,,,,gyr,-0.0645771846175,-0.0383972451091,0.0436332300305
425,1644542429069595814,0.0784531980753,-9.2868976593,-0.813951909542,acc,,,
426,1644542429071609735,0.804145276546,-9.42419052124,-0.402072638273,acc,,,
427,1644542429073625565,0.696272134781,-9.35554409027,-0.470719188452,acc,,,
428,1644542429074351549,,,,gyr,0.069813169539,-0.00872664619237,-0.0209439508617
429,1644542429075637341,-0.0294199492782,-9.07115077972,-0.921825051308,acc,,,
430,1644542429077651262,-0.12748645246,-9.21825122833,-1.01008486748,acc,,,
431,1644542429079363346,,,,gyr,0.214675500989,-0.0209439508617,0.0069813169539
432,1644542429079667330,0.166713044047,-9.20844459534,-0.833565235138,acc,,,
433,1644542429081681490,0.362846046686,-9.1201839447,-0.882598459721,acc,,,
434,1644542429083697319,0.509945809841,-9.21825122833,-0.990471601486,acc,,,
435,1644542429084375143,,,,gyr,0.396189749241,-0.0523598790169,-0.0383972451091
436,1644542429085711241,0.549172401428,-9.24767112732,-1.01989161968,acc,,,
437,1644542429087725163,0.529559075832,-9.16921710968,-1.01008486748,acc,,,
438,1644542429089386940,,,,gyr,0.591666638851,-0.0942477807403,-0.0279252678156
439,1644542429089739084,0.549172401428,-9.15941047668,-1.13757133484,acc,,,
440,1644542429091753006,0.549172401428,-8.58081817627,-1.84365010262,acc,,,
441,1644542429093769073,0.529559075832,-8.8946313858,-1.61809718609,acc,,,
442,1644542429094398975,,,,gyr,0.802851438522,-0.197222203016,0.0209439508617
443,1644542429095782995,0.294199496508,-8.98289108276,-1.13757133484,acc,,,
444,1644542429097796917,0.264779537916,-9.06134414673,-0.490332484245,acc,,,
445,1644542429099410534,,,,gyr,1.14842665195,-0.359537810087,0.0523598790169
446,1644542429099810839,0.294199496508,-9.61051654816,-0.00980664975941,acc,,,
447,1644542429101824760,0.343232750893,-9.70858287811,-0.176519691944,acc,,,
448,1644542429103840590,0.735498726368,-9.70858287811,-0.313812792301,acc,,,
449,1644542429104422569,,,,gyr,1.38055539131,-0.394444406033,0.0610865242779
450,1644542429105852604,-0.166713044047,-9.61051654816,-0.470719188452,acc,,,
451,1644542429107870579,3.4911673069,-9.91452312469,1.31409108639,acc,,,
452,1644542429109434605,,,,gyr,1.39800870419,-0.401425719261,0.102974422276
453,1644542429109884501,0.245166242123,-10.9344148636,1.31409108639,acc,,,
454,1644542429111898422,-0.921825051308,-17.0243434906,11.0422878265,acc,,,
455,1644542429113912344,-0.990471601486,-9.98316955566,11.1893873215,acc,,,
456,1644542429114446402,,,,gyr,1.10828411579,-0.42760565877,0.0523598790169
457,1644542429115926266,-0.196132987738,-6.75678157806,-7.9041595459,acc,,,
458,1644542429117942095,0.833565235138,-10.2087221146,-0.451105892658,acc,,,
459,1644542429119458199,,,,gyr,0.0,-0.235619440675,0.0296705961227
460,1644542429119956017,0.451105892658,-10.8853816986,4.59931850433,acc,,,
461,1644542429121969938,0.362846046686,-8.48275184631,-2.5399222374,acc,,,
462,1644542429123986006,0.12748645246,-10.1891088486,1.04931151867,acc,,,
463,1644542429124469995,,,,gyr,0.0314159244299,-0.0645771846175,0.00349065847695
464,1644542429125999928,0.0784531980753,-9.5222568512,0.264779537916,acc,,,
465,1644542429128015757,0.421685934067,-9.58109664917,0.0686465501785,acc,,,
466,1644542429129482031,,,,gyr,0.00349065847695,-0.0645771846175,-0.0069813169539
467,1644542429130029678,0.470719188452,-9.98316955566,0.627625584602,acc,,,
468,1644542429132041693,0.362846046686,-9.5222568512,-0.00980664975941,acc,,,
469,1644542429134057522,0.313812792301,-9.75761604309,0.264779537916,acc,,,
470,1644542429134493589,,,,gyr,0.00349065847695,-0.0436332300305,-0.0226892791688
471,1644542429136073828,0.402072638273,-9.57129001617,0.274586200714,acc,,,
472,1644542429138087749,0.274586200714,-9.70858287811,0.274586200714,acc,,,
473,1644542429139505625,,,,gyr,0.0,-0.0471238903701,-0.0261799395084
474,1644542429140103579,0.470719188452,-9.66935634613,0.225552946329,acc,,,
475,1644542429142117500,0.451105892658,-9.66935634613,0.313812792301,acc,,,
476,1644542429144131422,0.274586200714,-9.61051654816,0.38245934248,acc,,,
477,1644542429144515276,,,,gyr,0.0,-0.0436332300305,-0.0279252678156
478,1644542429146145344,0.264779537916,-9.57129001617,0.00980664975941,acc,,,
479,1644542429148161411,0.38245934248,-9.67916297913,0.38245934248,acc,,,
480,1644542429149527311,,,,gyr,0.0,-0.0296705961227,-0.0296705961227
481,1644542429150175333,0.294199496508,-9.56148338318,0.274586200714,acc,,,
482,1644542429152189255,0.264779537916,-9.7478094101,0.294199496508,acc,,,
483,1644542429154203176,0.38245934248,-9.61051654816,0.225552946329,acc,,,
484,1644542429154539108,,,,gyr,-0.00174532923847,-0.0191986225545,-0.0383972451091
485,1644542429156219006,0.362846046686,-9.62032318115,0.343232750893,acc,,,
486,1644542429158232927,0.137293100357,-9.56148338318,0.176519691944,acc,,,
487,1644542429159551144,,,,gyr,0.0,-0.00349065847695,-0.0471238903701
488,1644542429160247087,0.166713044047,-9.67916297913,0.225552946329,acc,,,
489,1644542429162261009,0.12748645246,-9.53206348419,0.362846046686,acc,,,
490,1644542429164274931,0.0980664938688,-9.58109664917,0.245166242123,acc,,,
491,1644542429164562702,,,,gyr,0.00523598771542,0.0104719754308,-0.0767944902182
492,1644542429166288853,0.12748645246,-9.7478094101,0.362846046686,acc,,,
493,1644542429168304682,0.137293100357,-9.61051654816,0.549172401428,acc,,,
494,1644542429169574738,,,,gyr,0.0104719754308,0.0279252678156,-0.130899697542
495,1644542429170318604,0.402072638273,-9.7478094101,0.843371868134,acc,,,
496,1644542429172332525,0.637432217598,-9.64974308014,0.774725317955,acc,,,
497,1644542429174346447,0.343232750893,-9.64974308014,0.421685934067,acc,,,
498,1644542429174586535,,,,gyr,0.0,0.123918376863,-0.132645025849
499,1644542429176360607,0.402072638273,-9.61051654816,0.509945809841,acc,,,
500,1644542429178376436,0.343232750893,-9.56148338318,0.196132987738,acc,,,
501,1644542429179598331,,,,gyr,-0.0104719754308,0.272271364927,-0.0645771846175
502,1644542429180390358,0.637432217598,-9.66935634613,0.0294199492782,acc,,,
503,1644542429182404280,0.696272134781,-9.70858287811,0.264779537916,acc,,,
504,1644542429184418201,0.490332484245,-9.53206348419,-0.12748645246,acc,,,
505,1644542429184610367,,,,gyr,-0.00523598771542,0.32637655735,-0.0226892791688
506,1644542429186434269,0.402072638273,-9.71838951111,0.274586200714,acc,,,
507,1644542429188446045,0.362846046686,-9.62032318115,-0.0294199492782,acc,,,
508,1644542429189622164,,,,gyr,-0.00174532923847,0.287979334593,-0.0104719754308
509,1644542429190462112,0.362846046686,-9.5222568512,0.0,acc,,,
510,1644542429192476034,0.294199496508,-9.70858287811,0.196132987738,acc,,,
511,1644542429194489956,0.362846046686,-9.57129001617,0.0,acc,,,
512,1644542429194633961,,,,gyr,-0.00349065847695,0.23212878406,-0.0296705961227
513,1644542429196505785,0.421685934067,-9.57129001617,0.0784531980753,acc,,,
514,1644542429198519707,0.509945809841,-9.66935634613,0.0784531980753,acc,,,
515,1644542429199645758,,,,gyr,-0.00174532923847,0.188495561481,-0.0471238903701
516,1644542429200531721,0.470719188452,-9.62032318115,-0.12748645246,acc,,,
517,1644542429202547789,0.470719188452,-9.64974308014,0.0392265990376,acc,,,
518,1644542429204563618,0.509945809841,-9.64974308014,0.196132987738,acc,,,
519,1644542429204657793,,,,gyr,0.00174532923847,0.123918376863,-0.0523598790169
520,1644542429206577539,0.402072638273,-9.66935634613,0.137293100357,acc,,,
521,1644542429208591461,0.509945809841,-9.61051654816,0.196132987738,acc,,,
522,1644542429209669352,,,,gyr,0.0,0.0593411922455,-0.0506145469844
523,1644542429210605383,0.549172401428,-9.64974308014,0.264779537916,acc,,,
524,1644542429212621689,0.549172401428,-9.66935634613,0.225552946329,acc,,,
525,1644542429214635611,0.509945809841,-9.70858287811,0.274586200714,acc,,,
526,1644542429214681387,,,,gyr,-0.00174532923847,0.0436332300305,-0.0383972451091
527,1644542429216649532,0.490332484245,-9.64974308014,0.274586200714,acc,,,
528,1644542429218663216,0.529559075832,-9.62032318115,0.343232750893,acc,,,
529,1644542429219691277,,,,gyr,-0.00872664619237,0.0436332300305,-0.00174532923847
530,1644542429220677137,0.529559075832,-9.66935634613,0.294199496508,acc,,,
531,1644542429222693205,0.529559075832,-9.62032318115,0.274586200714,acc,,,
532,1644542429224704981,,,,gyr,-0.0139626339078,0.0523598790169,0.0383972451091
533,1644542429224707127,0.421685934067,-9.61051654816,0.402072638273,acc,,,
534,1644542429226721048,0.509945809841,-9.66935634613,0.402072638273,acc,,,
535,1644542429228735209,0.362846046686,-9.66935634613,0.490332484245,acc,,,
536,1644542429229715109,,,,gyr,-0.0104719754308,0.0715584978461,0.0750491544604
537,1644542429230751038,0.470719188452,-9.61051654816,0.402072638273,acc,,,
538,1644542429232764959,0.529559075832,-9.61051654816,0.313812792301,acc,,,
539,1644542429234726906,,,,gyr,-0.0069813169539,0.11344639957,0.0890117883682
540,1644542429234778881,0.529559075832,-9.67916297913,0.362846046686,acc,,,
541,1644542429236792803,0.470719188452,-9.58109664917,0.313812792301,acc,,,
542,1644542429238808870,0.470719188452,-9.64974308014,0.245166242123,acc,,,
543,1644542429239738703,,,,gyr,-0.0069813169539,0.144862323999,0.11344639957
544,1644542429240822792,0.470719188452,-9.64974308014,0.313812792301,acc,,,
545,1644542429242836714,0.402072638273,-9.62032318115,0.264779537916,acc,,,
546,1644542429244750500,,,,gyr,0.0,0.165806278586,0.136135682464
547,1644542429244850636,0.38245934248,-9.66935634613,0.264779537916,acc,,,
548,1644542429246864557,0.402072638273,-9.62032318115,0.245166242123,acc,,,
549,1644542429248880386,0.402072638273,-9.62032318115,0.176519691944,acc,,,
550,1644542429249762535,,,,gyr,0.0,0.158824965358,0.141371667385
551,1644542429250894308,0.402072638273,-9.67916297913,0.264779537916,acc,,,
552,1644542429252908468,0.343232750893,-9.61051654816,0.245166242123,acc,,,
553,1644542429254774332,,,,gyr,-0.00174532923847,0.153588980436,0.150098308921
554,1644542429254924297,0.343232750893,-9.61051654816,0.274586200714,acc,,,
555,1644542429256938219,0.294199496508,-9.70858287811,0.264779537916,acc,,,
556,1644542429258952141,0.264779537916,-9.61051654816,0.137293100357,acc,,,
557,1644542429259786129,,,,gyr,0.0,0.153588980436,0.144862323999
558,1644542429260966063,0.264779537916,-9.62032318115,0.274586200714,acc,,,
559,1644542429262982130,0.362846046686,-9.58109664917,0.245166242123,acc,,,
560,1644542429264798164,,,,gyr,0.0,0.158824965358,0.123918376863
561,1644542429264996052,0.38245934248,-9.62032318115,0.0980664938688,acc,,,
562,1644542429267009974,0.313812792301,-9.67916297913,0.402072638273,acc,,,
563,1644542429269023895,0.274586200714,-9.62032318115,0.166713044047,acc,,,
564,1644542429269809723,,,,gyr,0.0,0.171042263508,0.115191727877
565,1644542429271037817,0.343232750893,-9.70858287811,0.166713044047,acc,,,
566,1644542429273053646,0.245166242123,-9.58109664917,0.245166242123,acc,,,
567,1644542429274821758,,,,gyr,0.0,0.179768905044,0.104719758034
568,1644542429275065660,0.313812792301,-9.61051654816,0.00980664975941,acc,,,
569,1644542429277081728,0.38245934248,-9.70858287811,0.0294199492782,acc,,,
570,1644542429279095650,0.274586200714,-9.53206348419,0.0980664938688,acc,,,
571,1644542429279833555,,,,gyr,0.0,0.171042263508,0.0872664600611
572,1644542429281109571,0.274586200714,-9.58109664917,-0.00980664975941,acc,,,
573,1644542429283123493,0.343232750893,-9.62032318115,0.0392265990376,acc,,,
574,1644542429284845352,,,,gyr,0.00174532923847,0.136135682464,0.0750491544604
575,1644542429285139322,0.264779537916,-9.57129001617,0.225552946329,acc,,,
576,1644542429287153244,0.264779537916,-9.67916297913,0.0980664938688,acc,,,
577,1644542429289167404,0.245166242123,-9.64974308014,0.0294199492782,acc,,,
578,1644542429289857388,,,,gyr,0.00174532923847,0.0977384373546,0.0593411922455
579,1644542429291183233,0.264779537916,-9.57129001617,0.225552946329,acc,,,
580,1644542429293197155,0.245166242123,-9.61051654816,0.0784531980753,acc,,,
581,1644542429294869184,,,,gyr,0.00349065847695,0.0715584978461,0.0383972451091
582,1644542429295211077,0.176519691944,-9.58109664917,0.166713044047,acc,,,
583,1644542429297227144,0.196132987738,-9.58109664917,0.264779537916,acc,,,
584,1644542429299241066,0.245166242123,-9.61051654816,0.225552946329,acc,,,
585,1644542429299881220,,,,gyr,0.00523598771542,0.0558505356312,0.0226892791688
586,1644542429301255226,0.225552946329,-9.66935634613,0.274586200714,acc,,,
587,1644542429303269148,0.245166242123,-9.58109664917,0.294199496508,acc,,,
588,1644542429304890871,,,,gyr,0.00523598771542,0.0558505356312,0.00523598771542
589,1644542429305284977,0.245166242123,-9.62032318115,0.343232750893,acc,,,
590,1644542429307298899,0.264779537916,-9.62032318115,0.38245934248,acc,,,
591,1644542429309312820,0.264779537916,-9.64974308014,0.343232750893,acc,,,
592,1644542429309902906,,,,gyr,0.00523598771542,0.0750491544604,-0.00174532923847
593,1644542429311326742,0.343232750893,-9.61051654816,0.343232750893,acc,,,
594,1644542429313342810,0.294199496508,-9.57129001617,0.245166242123,acc,,,
595,1644542429314914465,,,,gyr,0.00523598771542,0.0977384373546,0.0
596,1644542429315356731,0.294199496508,-9.58109664917,0.264779537916,acc,,,
597,1644542429317370653,0.313812792301,-9.61051654816,0.196132987738,acc,,,
598,1644542429319384575,0.294199496508,-9.62032318115,0.274586200714,acc,,,
599,1644542429319926500,,,,gyr,0.0,0.104719758034,0.00872664619237
600,1644542429321400404,0.294199496508,-9.64974308014,0.176519691944,acc,,,
601,1644542429323414564,0.343232750893,-9.61051654816,0.245166242123,acc,,,
602,1644542429324938536,,,,gyr,-0.00174532923847,0.0872664600611,0.0104719754308
603,1644542429325428486,0.38245934248,-9.58109664917,0.264779537916,acc,,,
604,1644542429327444315,0.402072638273,-9.66935634613,0.264779537916,acc,,,
605,1644542429329458237,0.38245934248,-9.67916297913,0.245166242123,acc,,,
606,1644542429329950094,,,,gyr,-0.00174532923847,0.0610865242779,0.0139626339078
607,1644542429331472158,0.38245934248,-9.61051654816,0.274586200714,acc,,,
608,1644542429333488226,0.402072638273,-9.64974308014,0.245166242123,acc,,,
609,1644542429334962130,,,,gyr,-0.00349065847695,0.0558505356312,0.0296705961227
610,1644542429335502148,0.451105892658,-9.67916297913,0.137293100357,acc,,,
611,1644542429337517977,0.402072638273,-9.66935634613,0.225552946329,acc,,,
612,1644542429339531898,0.402072638273,-9.62032318115,0.245166242123,acc,,,
613,1644542429339974165,,,,gyr,-0.00349065847695,0.0471238903701,0.0383972451091
614,1644542429341545820,0.421685934067,-9.66935634613,0.166713044047,acc,,,
615,1644542429343562126,0.362846046686,-9.64974308014,0.196132987738,acc,,,
616,1644542429344985723,,,,gyr,0.0,0.0296705961227,0.0523598790169
617,1644542429345575809,0.38245934248,-9.64974308014,0.225552946329,acc,,,
618,1644542429347589731,0.38245934248,-9.67916297913,0.264779537916,acc,,,
619,1644542429349605799,0.362846046686,-9.64974308014,0.225552946329,acc,,,
620,1644542429349997759,,,,gyr,0.0,0.00349065847695,0.0610865242779
621,1644542429351619720,0.402072638273,-9.67916297913,0.245166242123,acc,,,
622,1644542429353635788,0.38245934248,-9.66935634613,0.245166242123,acc,,,
623,1644542429355009556,,,,gyr,0.0,-0.00174532923847,0.0610865242779
624,1644542429355649710,0.294199496508,-9.66935634613,0.225552946329,acc,,,
625,1644542429357663631,0.264779537916,-9.66935634613,0.245166242123,acc,,,
626,1644542429359679461,0.196132987738,-9.64974308014,0.176519691944,acc,,,
627,1644542429360021591,,,,gyr,0.0,0.0,0.0610865242779
628,1644542429361693382,0.225552946329,-9.66935634613,0.225552946329,acc,,,
629,1644542429363707542,0.245166242123,-9.71838951111,0.245166242123,acc,,,
630,1644542429365033388,,,,gyr,0.00174532923847,0.0,0.0349065847695
631,1644542429365723372,0.225552946329,-9.62032318115,0.225552946329,acc,,,
632,1644542429367737293,0.274586200714,-9.64974308014,0.176519691944,acc,,,
633,1644542429369751215,0.274586200714,-9.64974308014,0.176519691944,acc,,,
634,1644542429370045185,,,,gyr,0.0,-0.00174532923847,0.00523598771542
635,1644542429371767044,0.264779537916,-9.64974308014,0.225552946329,acc,,,
636,1644542429373781204,0.274586200714,-9.64974308014,0.245166242123,acc,,,
637,1644542429375055075,,,,gyr,0.0069813169539,0.0,-0.0104719754308
638,1644542429375795126,0.245166242123,-9.64974308014,0.245166242123,acc,,,
639,1644542429377810955,0.196132987738,-9.61051654816,0.264779537916,acc,,,
640,1644542429379824877,0.196132987738,-9.61051654816,0.274586200714,acc,,,
641,1644542429380066872,,,,gyr,0.00523598771542,0.0,-0.0209439508617
642,1644542429381838799,0.225552946329,-9.57129001617,0.362846046686,acc,,,
643,1644542429383854866,0.166713044047,-9.61051654816,0.274586200714,acc,,,
644,1644542429385078907,,,,gyr,0.0069813169539,0.0,-0.0349065847695
645,1644542429385868788,0.196132987738,-9.64974308014,0.313812792301,acc,,,
646,1644542429387884855,0.245166242123,-9.62032318115,0.274586200714,acc,,,
647,1644542429389898777,0.245166242123,-9.62032318115,0.294199496508,acc,,,
648,1644542429390090704,,,,gyr,0.00174532923847,0.0,-0.0593411922455
649,1644542429391912699,0.264779537916,-9.61051654816,0.274586200714,acc,,,
650,1644542429393928766,0.294199496508,-9.61051654816,0.274586200714,acc,,,
651,1644542429395102501,,,,gyr,0.0,-0.00349065847695,-0.0680678412318
652,1644542429395942688,0.294199496508,-9.62032318115,0.274586200714,acc,,,
653,1644542429397956610,0.313812792301,-9.62032318115,0.264779537916,acc,,,
654,1644542429399972439,0.294199496508,-9.57129001617,0.294199496508,acc,,,
655,1644542429400114536,,,,gyr,0.0,-0.00174532923847,-0.0680678412318
656,1644542429401986361,0.274586200714,-9.62032318115,0.274586200714,acc,,,
657,1644542429404002428,0.274586200714,-9.57129001617,0.196132987738,acc,,,
658,1644542429405126572,,,,gyr,-0.00349065847695,0.0,-0.0558505356312
659,1644542429406016350,0.294199496508,-9.67916297913,0.264779537916,acc,,,
660,1644542429408030272,0.274586200714,-9.61051654816,0.294199496508,acc,,,
661,1644542429410046101,0.274586200714,-9.58109664917,0.245166242123,acc,,,
662,1644542429410138130,,,,gyr,-0.0069813169539,0.00349065847695,-0.0471238903701
663,1644542429412060261,0.274586200714,-9.64974308014,0.225552946329,acc,,,
664,1644542429414076090,0.313812792301,-9.61051654816,0.196132987738,acc,,,
665,1644542429415150166,,,,gyr,-0.00523598771542,0.0,-0.0471238903701
666,1644542429416090012,0.313812792301,-9.64974308014,0.176519691944,acc,,,
667,1644542429418103933,0.362846046686,-9.62032318115,0.264779537916,acc,,,
668,1644542429420119762,0.362846046686,-9.62032318115,0.196132987738,acc,,,
669,1644542429420161963,,,,gyr,-0.0069813169539,0.0,-0.0436332300305
670,1644542429422133923,0.402072638273,-9.61051654816,0.196132987738,acc,,,
671,1644542429424149990,0.421685934067,-9.64974308014,0.196132987738,acc,,,
672,1644542429425173759,,,,gyr,-0.00523598771542,-0.00174532923847,-0.0436332300305
673,1644542429426163912,0.421685934067,-9.66935634613,0.176519691944,acc,,,
674,1644542429428177834,0.451105892658,-9.62032318115,0.166713044047,acc,,,
675,1644542429430185795,,,,gyr,-0.00523598771542,0.0,-0.0261799395084
676,1644542429430193901,0.421685934067,-9.66935634613,0.137293100357,acc,,,
677,1644542429432207823,0.402072638273,-9.67916297913,0.176519691944,acc,,,
678,1644542429434221745,0.402072638273,-9.64974308014,0.176519691944,acc,,,
679,1644542429435197592,,,,gyr,-0.00349065847695,0.0,-0.00523598771542
680,1644542429436237574,0.402072638273,-9.64974308014,0.196132987738,acc,,,
681,1644542429438251495,0.451105892658,-9.64974308014,0.225552946329,acc,,,
682,1644542429440209389,,,,gyr,-0.00872664619237,0.0,0.00872664619237
683,1644542429440265417,0.421685934067,-9.61051654816,0.196132987738,acc,,,
684,1644542429442279577,0.421685934067,-9.64974308014,0.176519691944,acc,,,
685,1644542429444295406,0.451105892658,-9.66935634613,0.176519691944,acc,,,
686,1644542429445221424,,,,gyr,-0.00523598771542,-0.00349065847695,0.0104719754308
687,1644542429446309328,0.421685934067,-9.64974308014,0.176519691944,acc,,,
688,1644542429448323250,0.451105892658,-9.66935634613,0.294199496508,acc,,,
689,1644542429450233221,,,,gyr,-0.00523598771542,-0.00174532923847,0.0383972451091
690,1644542429450339317,0.421685934067,-9.67916297913,0.245166242123,acc,,,
691,1644542429452353239,0.421685934067,-9.64974308014,0.225552946329,acc,,,
692,1644542429454367161,0.402072638273,-9.66935634613,0.196132987738,acc,,,
693,1644542429455245018,,,,gyr,-0.0069813169539,-0.00523598771542,0.0558505356312
694,1644542429456382990,0.402072638273,-9.67916297913,0.196132987738,acc,,,
695,1644542429458396912,0.38245934248,-9.70858287811,0.176519691944,acc,,,
696,1644542429460255146,,,,gyr,-0.00523598771542,-0.0069813169539,0.0802851468325
697,1644542429460410833,0.313812792301,-9.64974308014,0.0980664938688,acc,,,
698,1644542429462424994,0.294199496508,-9.64974308014,0.137293100357,acc,,,
699,1644542429464440823,0.313812792301,-9.64974308014,0.176519691944,acc,,,
700,1644542429465266943,,,,gyr,-0.00349065847695,-0.0296705961227,0.101229093969
701,1644542429466454744,0.264779537916,-9.7478094101,0.627625584602,acc,,,
702,1644542429468468666,0.0784531980753,-9.53206348419,0.225552946329,acc,,,
703,1644542429470278740,,,,gyr,-0.00523598771542,-0.0436332300305,0.101229093969
704,1644542429470482588,0.421685934067,-9.57129001617,0.00980664975941,acc,,,
705,1644542429472498894,0.402072638273,-9.64974308014,0.137293100357,acc,,,
706,1644542429474512577,0.264779537916,-9.61051654816,0.0784531980753,acc,,,
707,1644542429475290537,,,,gyr,-0.00523598771542,-0.0523598790169,0.0593411922455
708,1644542429476528645,0.176519691944,-9.66935634613,0.343232750893,acc,,,
709,1644542429478542566,0.245166242123,-9.64974308014,0.402072638273,acc,,,
710,1644542429480302334,,,,gyr,-0.00523598771542,-0.101229093969,0.0523598790169
711,1644542429480556250,0.313812792301,-9.66935634613,0.421685934067,acc,,,
712,1644542429482570171,0.362846046686,-9.58109664917,0.402072638273,acc,,,
713,1644542429484584093,0.294199496508,-9.67916297913,0.294199496508,acc,,,
714,1644542429485313892,,,,gyr,0.0,-0.0872664600611,0.0436332300305
715,1644542429486599922,0.225552946329,-9.66935634613,0.402072638273,acc,,,
716,1644542429488613844,0.196132987738,-9.64974308014,0.38245934248,acc,,,
717,1644542429490325451,,,,gyr,-0.00174532923847,-0.0645771846175,0.0523598790169
718,1644542429490627527,0.245166242123,-9.62032318115,0.343232750893,acc,,,
719,1644542429492643356,0.274586200714,-9.64974308014,0.274586200714,acc,,,
720,1644542429494657278,0.245166242123,-9.66935634613,0.343232750893,acc,,,
721,1644542429495337248,,,,gyr,-0.00523598771542,-0.0349065847695,0.0558505356312
722,1644542429496671200,0.264779537916,-9.62032318115,0.264779537916,acc,,,
723,1644542429498685122,0.274586200714,-9.66935634613,0.225552946329,acc,,,
724,1644542429500348806,,,,gyr,0.0,-0.0139626339078,0.0383972451091
725,1644542429500700712,0.274586200714,-9.62032318115,0.245166242123,acc,,,
726,1644542429502714634,0.264779537916,-9.61051654816,0.264779537916,acc,,,
727,1644542429504728556,0.264779537916,-9.64974308014,0.264779537916,acc,,,
728,1644542429505360365,,,,gyr,0.0,-0.00523598771542,0.0383972451091
729,1644542429506744385,0.245166242123,-9.66935634613,0.264779537916,acc,,,
730,1644542429508758307,0.294199496508,-9.64974308014,0.245166242123,acc,,,
731,1644542429510372162,,,,gyr,0.0,0.00174532923847,0.0209439508617
732,1644542429510771990,0.294199496508,-9.66935634613,0.245166242123,acc,,,
733,1644542429512787819,0.245166242123,-9.62032318115,0.264779537916,acc,,,
734,1644542429514801741,0.294199496508,-9.62032318115,0.245166242123,acc,,,
735,1644542429515383720,,,,gyr,-0.00349065847695,0.0,0.0139626339078
736,1644542429516815662,0.274586200714,-9.61051654816,0.176519691944,acc,,,
737,1644542429518831491,0.294199496508,-9.61051654816,0.166713044047,acc,,,
738,1644542429520395279,,,,gyr,-0.00872664619237,0.0,0.00872664619237
739,1644542429520845413,0.264779537916,-9.64974308014,0.166713044047,acc,,,
740,1644542429522859097,0.274586200714,-9.64974308014,0.274586200714,acc,,,
741,1644542429524872780,0.264779537916,-9.62032318115,0.166713044047,acc,,,
742,1644542429525406837,,,,gyr,0.0,-0.00349065847695,0.00523598771542
743,1644542429526886702,0.245166242123,-9.64974308014,0.245166242123,acc,,,
744,1644542429528902292,0.313812792301,-9.64974308014,0.264779537916,acc,,,
745,1644542429530417919,,,,gyr,-0.00174532923847,0.0,0.00523598771542
746,1644542429530915976,0.313812792301,-9.62032318115,0.264779537916,acc,,,
747,1644542429532929659,0.294199496508,-9.62032318115,0.225552946329,acc,,,
748,1644542429534943342,0.294199496508,-9.62032318115,0.274586200714,acc,,,
749,1644542429535427332,,,,gyr,-0.00349065847695,0.0,0.0
750,1644542429536957026,0.274586200714,-9.64974308014,0.264779537916,acc,,,
751,1644542429538970709,0.294199496508,-9.62032318115,0.294199496508,acc,,,
752,1644542429540438414,,,,gyr,-0.00872664619237,-0.00523598771542,0.00523598771542
753,1644542429540986538,0.294199496508,-9.61051654816,0.274586200714,acc,,,
754,1644542429543000221,0.274586200714,-9.61051654816,0.294199496508,acc,,,
755,1644542429545013905,0.313812792301,-9.64974308014,0.264779537916,acc,,,
756,1644542429545449972,,,,gyr,-0.0104719754308,-0.0069813169539,0.0104719754308
757,1644542429547027588,0.343232750893,-9.62032318115,0.245166242123,acc,,,
758,1644542429549043179,0.38245934248,-9.62032318115,0.264779537916,acc,,,
759,1644542429550461292,,,,gyr,-0.00872664619237,-0.00872664619237,0.0139626339078
760,1644542429551057100,0.38245934248,-9.66935634613,0.225552946329,acc,,,
761,1644542429553070784,0.362846046686,-9.66935634613,0.245166242123,acc,,,
762,1644542429555084467,0.343232750893,-9.66935634613,0.264779537916,acc,,,
763,1644542429555472374,,,,gyr,-0.00523598771542,-0.0069813169539,0.0349065847695
764,1644542429557100058,0.343232750893,-9.61051654816,0.245166242123,acc,,,
765,1644542429559113741,0.294199496508,-9.64974308014,0.245166242123,acc,,,
766,1644542429560483694,,,,gyr,-0.00523598771542,-0.0139626339078,0.0506145469844
767,1644542429561127424,0.294199496508,-9.58109664917,0.245166242123,acc,,,
768,1644542429563141108,0.274586200714,-9.61051654816,0.225552946329,acc,,,
769,1644542429565156937,0.313812792301,-9.64974308014,0.12748645246,acc,,,
770,1644542429565494776,,,,gyr,-0.00872664619237,-0.0261799395084,0.0558505356312
771,1644542429567170620,0.274586200714,-9.66935634613,0.294199496508,acc,,,
772,1644542429569184303,0.274586200714,-9.58109664917,0.166713044047,acc,,,
773,1644542429570506096,,,,gyr,-0.0069813169539,-0.0349065847695,0.0558505356312
774,1644542429571197987,0.294199496508,-9.66935634613,0.264779537916,acc,,,
775,1644542429573213577,0.274586200714,-9.62032318115,0.166713044047,acc,,,
776,1644542429575227499,0.274586200714,-9.67916297913,0.245166242123,acc,,,
777,1644542429575517416,,,,gyr,-0.0069813169539,-0.0418879017234,0.0523598790169
778,1644542429577241182,0.274586200714,-9.66935634613,0.274586200714,acc,,,
779,1644542429579254866,0.225552946329,-9.62032318115,0.245166242123,acc,,,
780,1644542429580528498,,,,gyr,-0.00872664619237,-0.0436332300305,0.0506145469844
781,1644542429581270456,0.196132987738,-9.62032318115,0.264779537916,acc,,,
782,1644542429583284140,0.225552946329,-9.62032318115,0.196132987738,acc,,,
783,1644542429585297823,0.245166242123,-9.62032318115,0.225552946329,acc,,,
784,1644542429585539818,,,,gyr,-0.0069813169539,-0.0296705961227,0.0383972451091
785,1644542429587311506,0.294199496508,-9.67916297913,0.196132987738,acc,,,
786,1644542429589325428,0.294199496508,-9.67916297913,0.196132987738,acc,,,
787,1644542429590551376,,,,gyr,-0.00523598771542,-0.0104719754308,0.0279252678156
788,1644542429591339111,0.294199496508,-9.66935634613,0.166713044047,acc,,,
789,1644542429593354702,0.274586200714,-9.64974308014,0.245166242123,acc,,,
790,1644542429595368385,0.313812792301,-9.66935634613,0.137293100357,acc,,,
791,1644542429595562458,,,,gyr,0.0,-0.00174532923847,0.0139626339078
792,1644542429597382069,0.343232750893,-9.66935634613,0.166713044047,acc,,,
793,1644542429599395752,0.274586200714,-9.66935634613,0.0980664938688,acc,,,
794,1644542429600573778,,,,gyr,-0.00349065847695,0.0,0.00349065847695
795,1644542429601409435,0.294199496508,-9.62032318115,0.137293100357,acc,,,
796,1644542429603425264,0.294199496508,-9.61051654816,0.196132987738,acc,,,
797,1644542429605438948,0.274586200714,-9.64974308014,0.176519691944,acc,,,
798,1644542429605584860,,,,gyr,-0.00174532923847,0.00174532923847,0.00349065847695
799,1644542429607452631,0.274586200714,-9.66935634613,0.196132987738,acc,,,
800,1644542429609466314,0.274586200714,-9.64974308014,0.225552946329,acc,,,
801,1644542429610594273,,,,gyr,-0.00174532923847,0.00349065847695,-0.00523598771542
802,1644542429611481905,0.264779537916,-9.64974308014,0.225552946329,acc,,,
803,1644542429613495827,0.274586200714,-9.62032318115,0.245166242123,acc,,,
804,1644542429615509510,0.274586200714,-9.62032318115,0.245166242123,acc,,,
805,1644542429615605354,,,,gyr,0.00523598771542,0.00349065847695,-0.00523598771542
806,1644542429617523193,0.225552946329,-9.62032318115,0.225552946329,acc,,,
807,1644542429619536877,0.245166242123,-9.61051654816,0.245166242123,acc,,,
808,1644542429620616674,,,,gyr,0.0069813169539,0.00872664619237,-0.0104719754308
809,1644542429621552467,0.196132987738,-9.58109664917,0.294199496508,acc,,,
810,1644542429623566151,0.264779537916,-9.61051654816,0.264779537916,acc,,,
811,1644542429625579834,0.245166242123,-9.61051654816,0.313812792301,acc,,,
812,1644542429625627995,,,,gyr,0.00349065847695,0.0069813169539,-0.0104719754308
813,1644542429627593756,0.274586200714,-9.58109664917,0.294199496508,acc,,,
814,1644542429629607439,0.264779537916,-9.64974308014,0.264779537916,acc,,,
815,1644542429630639076,,,,gyr,0.00872664619237,0.0104719754308,-0.0104719754308
816,1644542429631621122,0.274586200714,-9.62032318115,0.294199496508,acc,,,
817,1644542429633634806,0.274586200714,-9.62032318115,0.313812792301,acc,,,
818,1644542429635648489,0.264779537916,-9.61051654816,0.294199496508,acc,,,
819,1644542429635650396,,,,gyr,0.00349065847695,0.0069813169539,-0.00872664619237
820,1644542429637662172,0.225552946329,-9.62032318115,0.274586200714,acc,,,
821,1644542429639677763,0.245166242123,-9.66935634613,0.245166242123,acc,,,
822,1644542429640661716,,,,gyr,-0.00349065847695,0.00174532923847,0.0
823,1644542429641691446,0.274586200714,-9.62032318115,0.294199496508,acc,,,
824,1644542429643705368,0.225552946329,-9.58109664917,0.294199496508,acc,,,
825,1644542429645672798,,,,gyr,-0.00174532923847,0.00174532923847,0.0
826,1644542429645719051,0.264779537916,-9.66935634613,0.313812792301,acc,,,
827,1644542429647732735,0.294199496508,-9.62032318115,0.264779537916,acc,,,
828,1644542429649748325,0.274586200714,-9.62032318115,0.294199496508,acc,,,
829,1644542429650684118,,,,gyr,-0.00174532923847,0.0,0.00523598771542
830,1644542429651762009,0.294199496508,-9.64974308014,0.196132987738,acc,,,
831,1644542429653775692,0.294199496508,-9.62032318115,0.196132987738,acc,,,
832,1644542429655695200,,,,gyr,-0.00349065847695,0.0,0.0104719754308
833,1644542429655789375,0.313812792301,-9.67916297913,0.313812792301,acc,,,
834,1644542429657805204,0.274586200714,-9.66935634613,0.245166242123,acc,,,
835,1644542429659818888,0.313812792301,-9.66935634613,0.225552946329,acc,,,
836,1644542429660706520,,,,gyr,-0.0069813169539,-0.00174532923847,0.0139626339078
837,1644542429661832571,0.274586200714,-9.67916297913,0.264779537916,acc,,,
838,1644542429663846254,0.294199496508,-9.64974308014,0.294199496508,acc,,,
839,1644542429665718079,,,,gyr,-0.00872664619237,0.00174532923847,0.0209439508617
840,1644542429665861845,0.313812792301,-9.62032318115,0.294199496508,acc,,,
841,1644542429667875528,0.38245934248,-9.67916297913,0.225552946329,acc,,,
842,1644542429669889212,0.362846046686,-9.61051654816,0.225552946329,acc,,,
843,1644542429670729160,,,,gyr,-0.0104719754308,-0.00174532923847,0.0226892791688
844,1644542429671903133,0.402072638273,-9.64974308014,0.264779537916,acc,,,
845,1644542429673916817,0.402072638273,-9.62032318115,0.196132987738,acc,,,
846,1644542429675740480,,,,gyr,-0.00872664619237,0.0,0.0436332300305
847,1644542429675930500,0.38245934248,-9.66935634613,0.225552946329,acc,,,
848,1644542429677944183,0.402072638273,-9.70858287811,0.196132987738,acc,,,
849,1644542429679959774,0.343232750893,-9.66935634613,0.166713044047,acc,,,
850,1644542429680751801,,,,gyr,-0.0139626339078,-0.00174532923847,0.0593411922455
851,1644542429681973457,0.294199496508,-9.64974308014,0.245166242123,acc,,,
852,1644542429683987141,0.274586200714,-9.67916297913,0.225552946329,acc,,,
853,1644542429685760975,,,,gyr,-0.0174532923847,0.00174532923847,0.0785398185253
854,1644542429686000824,0.264779537916,-9.64974308014,0.176519691944,acc,,,
855,1644542429688014746,0.245166242123,-9.62032318115,0.245166242123,acc,,,
856,1644542429690028429,0.264779537916,-9.67916297913,0.274586200714,acc,,,
857,1644542429690772295,,,,gyr,-0.0139626339078,0.0,0.0785398185253
858,1644542429692044020,0.264779537916,-9.61051654816,0.166713044047,acc,,,
859,1644542429694057703,0.264779537916,-9.62032318115,0.245166242123,acc,,,
860,1644542429695783377,,,,gyr,-0.0104719754308,-0.00872664619237,0.0680678412318
861,1644542429696071386,0.245166242123,-9.62032318115,0.196132987738,acc,,,
862,1644542429698085070,0.245166242123,-9.66935634613,0.12748645246,acc,,,
863,1644542429700100899,0.245166242123,-9.64974308014,0.245166242123,acc,,,
864,1644542429700794697,,,,gyr,-0.00523598771542,-0.0104719754308,0.0558505356312
865,1644542429702114582,0.245166242123,-9.62032318115,0.225552946329,acc,,,
866,1644542429704128265,0.245166242123,-9.62032318115,0.245166242123,acc,,,
867,1644542429705806017,,,,gyr,-0.0069813169539,-0.0069813169539,0.0593411922455
868,1644542429706141949,0.264779537916,-9.66935634613,0.225552946329,acc,,,
869,1644542429708157539,0.225552946329,-9.64974308014,0.225552946329,acc,,,
870,1644542429710171223,0.225552946329,-9.62032318115,0.245166242123,acc,,,
871,1644542429710817099,,,,gyr,0.0,-0.00872664619237,0.0523598790169
872,1644542429712184906,0.166713044047,-9.62032318115,0.264779537916,acc,,,
873,1644542429714198589,0.137293100357,-9.61051654816,0.264779537916,acc,,,
874,1644542429715828419,,,,gyr,-0.00174532923847,-0.00523598771542,0.0471238903701
875,1644542429716212273,0.137293100357,-9.61051654816,0.274586200714,acc,,,
876,1644542429718228102,0.12748645246,-9.57129001617,0.245166242123,acc,,,
877,1644542429720241785,0.12748645246,-9.58109664917,0.245166242123,acc,,,
878,1644542429720839500,,,,gyr,0.0,0.0,0.0296705961227
879,1644542429722255468,0.0980664938688,-9.57129001617,0.225552946329,acc,,,
880,1644542429724269152,0.137293100357,-9.58109664917,0.245166242123,acc,,,
881,1644542429725850821,,,,gyr,0.0,0.0,0.0104719754308
882,1644542429726284742,0.196132987738,-9.64974308014,0.264779537916,acc,,,
883,1644542429728298426,0.245166242123,-9.64974308014,0.196132987738,acc,,,
884,1644542429730312347,0.225552946329,-9.61051654816,0.196132987738,acc,,,
885,1644542429730862141,,,,gyr,0.0,0.00523598771542,-0.00523598771542
886,1644542429732326031,0.225552946329,-9.64974308014,0.245166242123,acc,,,
887,1644542429734341621,0.264779537916,-9.61051654816,0.196132987738,acc,,,
888,1644542429735873222,,,,gyr,0.0,0.00349065847695,-0.00523598771542
889,1644542429736355305,0.264779537916,-9.61051654816,0.225552946329,acc,,,
890,1644542429738368988,0.264779537916,-9.61051654816,0.176519691944,acc,,,
891,1644542429740382671,0.225552946329,-9.66935634613,0.166713044047,acc,,,
892,1644542429740884542,,,,gyr,0.0,0.0,-0.0069813169539
893,1644542429742398262,0.274586200714,-9.66935634613,0.225552946329,acc,,,
894,1644542429744412184,0.245166242123,-9.64974308014,0.245166242123,acc,,,
895,1644542429745895863,,,,gyr,0.0,0.0,-0.00349065847695
896,1644542429746425867,0.313812792301,-9.64974308014,0.196132987738,acc,,,
897,1644542429748439550,0.313812792301,-9.66935634613,0.196132987738,acc,,,
898,1644542429750453234,0.264779537916,-9.64974308014,0.176519691944,acc,,,
899,1644542429750906944,,,,gyr,-0.00174532923847,0.0,-0.00523598771542
900,1644542429752468824,0.294199496508,-9.67916297913,0.196132987738,acc,,,
901,1644542429754482508,0.294199496508,-9.62032318115,0.176519691944,acc,,,
902,1644542429755918264,,,,gyr,0.0,0.0,0.00174532923847
903,1644542429756496191,0.274586200714,-9.64974308014,0.176519691944,acc,,,
904,1644542429758509874,0.274586200714,-9.67916297913,0.137293100357,acc,,,
905,1644542429760525703,0.274586200714,-9.66935634613,0.166713044047,acc,,,
906,1644542429760929346,,,,gyr,-0.00872664619237,-0.00349065847695,0.0104719754308
907,1644542429762539387,0.313812792301,-9.64974308014,0.225552946329,acc,,,
908,1644542429764553070,0.343232750893,-9.67916297913,0.264779537916,acc,,,
909,1644542429765938759,,,,gyr,-0.0069813169539,0.0,0.0174532923847
910,1644542429766566753,0.362846046686,-9.64974308014,0.176519691944,acc,,,
911,1644542429768580437,0.343232750893,-9.66935634613,0.137293100357,acc,,,
912,1644542429770593882,0.343232750893,-9.64974308014,0.225552946329,acc,,,
913,1644542429770949841,,,,gyr,-0.00523598771542,-0.0069813169539,0.0226892791688
914,1644542429772609711,0.343232750893,-9.64974308014,0.137293100357,acc,,,
915,1644542429774623394,0.313812792301,-9.64974308014,0.196132987738,acc,,,
916,1644542429775961161,,,,gyr,-0.00349065847695,-0.0139626339078,0.0471238903701
917,1644542429776637077,0.245166242123,-9.64974308014,0.274586200714,acc,,,
918,1644542429778650761,0.264779537916,-9.61051654816,0.264779537916,acc,,,
919,1644542429780664444,0.245166242123,-9.61051654816,0.264779537916,acc,,,
920,1644542429780972481,,,,gyr,0.00349065847695,-0.0191986225545,0.0610865242779
921,1644542429782680273,0.196132987738,-9.62032318115,0.274586200714,acc,,,
922,1644542429784693956,0.225552946329,-9.64974308014,0.264779537916,acc,,,
923,1644542429785983562,,,,gyr,0.0,-0.0209439508617,0.0680678412318
924,1644542429786707401,0.245166242123,-9.62032318115,0.294199496508,acc,,,
925,1644542429788721085,0.166713044047,-9.61051654816,0.294199496508,acc,,,
926,1644542429790734768,0.196132987738,-9.66935634613,0.274586200714,acc,,,
927,1644542429790994883,,,,gyr,0.00174532923847,-0.0209439508617,0.0593411922455
928,1644542429792748451,0.196132987738,-9.62032318115,0.245166242123,acc,,,
929,1644542429794762135,0.176519691944,-9.62032318115,0.313812792301,acc,,,
930,1644542429796006203,,,,gyr,0.0,-0.0209439508617,0.0558505356312
931,1644542429796777964,0.166713044047,-9.62032318115,0.343232750893,acc,,,
932,1644542429798791647,0.176519691944,-9.62032318115,0.294199496508,acc,,,
933,1644542429800805330,0.196132987738,-9.67916297913,0.274586200714,acc,,,
934,1644542429801017284,,,,gyr,0.0,-0.0174532923847,0.0471238903701
935,1644542429802819014,0.176519691944,-9.62032318115,0.264779537916,acc,,,
936,1644542429804832697,0.176519691944,-9.62032318115,0.313812792301,acc,,,
937,1644542429806028605,,,,gyr,0.0,-0.0139626339078,0.0349065847695
938,1644542429806846380,0.166713044047,-9.58109664917,0.264779537916,acc,,,
939,1644542429808860064,0.176519691944,-9.61051654816,0.225552946329,acc,,,
940,1644542429810875654,0.176519691944,-9.64974308014,0.264779537916,acc,,,
941,1644542429811039686,,,,gyr,0.0,-0.0139626339078,0.0226892791688
942,1644542429812889338,0.166713044047,-9.64974308014,0.264779537916,acc,,,
943,1644542429814903259,0.176519691944,-9.61051654816,0.274586200714,acc,,,
944,1644542429816051006,,,,gyr,-0.00174532923847,-0.0104719754308,0.0139626339078
945,1644542429816916943,0.245166242123,-9.62032318115,0.225552946329,acc,,,
946,1644542429818930626,0.245166242123,-9.62032318115,0.245166242123,acc,,,
947,1644542429820946217,0.196132987738,-9.66935634613,0.225552946329,acc,,,
948,1644542429821062326,,,,gyr,0.0,-0.0069813169539,0.00523598771542
949,1644542429822959900,0.245166242123,-9.70858287811,0.225552946329,acc,,,
950,1644542429824973583,0.264779537916,-9.66935634613,0.245166242123,acc,,,
951,1644542429826073408,,,,gyr,-0.00349065847695,-0.00523598771542,0.0
952,1644542429826987267,0.245166242123,-9.62032318115,0.166713044047,acc,,,
953,1644542429829000950,0.264779537916,-9.66935634613,0.225552946329,acc,,,
954,1644542429831014633,0.245166242123,-9.62032318115,0.196132987738,acc,,,
955,1644542429831084728,,,,gyr,0.0,0.0,-0.00523598771542
956,1644542429833028316,0.225552946329,-9.64974308014,0.176519691944,acc,,,
957,1644542429835044146,0.245166242123,-9.64974308014,0.176519691944,acc,,,
958,1644542429836096048,,,,gyr,-0.00349065847695,-0.00349065847695,-0.00872664619237
959,1644542429837057829,0.176519691944,-9.64974308014,0.225552946329,acc,,,
960,1644542429839071512,0.196132987738,-9.58109664917,0.264779537916,acc,,,
961,1644542429841085196,0.196132987738,-9.61051654816,0.176519691944,acc,,,
962,1644542429841105223,,,,gyr,0.00174532923847,-0.00349065847695,-0.0139626339078
963,1644542429843098879,0.176519691944,-9.62032318115,0.166713044047,acc,,,
964,1644542429845112562,0.166713044047,-9.61051654816,0.176519691944,acc,,,
965,1644542429846116543,,,,gyr,-0.00174532923847,-0.00523598771542,-0.0279252678156
966,1644542429847128153,0.176519691944,-9.62032318115,0.176519691944,acc,,,
967,1644542429849141836,0.264779537916,-9.61051654816,0.166713044047,acc,,,
968,1644542429851127625,,,,gyr,-0.00174532923847,-0.00523598771542,-0.0383972451091
969,1644542429851155519,0.196132987738,-9.61051654816,0.12748645246,acc,,,
970,1644542429853169203,0.225552946329,-9.64974308014,0.166713044047,acc,,,
971,1644542429855183125,0.196132987738,-9.64974308014,0.12748645246,acc,,,
972,1644542429856138945,,,,gyr,-0.00349065847695,-0.0209439508617,-0.0436332300305
973,1644542429857198715,0.196132987738,-9.62032318115,0.166713044047,acc,,,
974,1644542429859212399,0.245166242123,-9.62032318115,0.12748645246,acc,,,
975,1644542429861150265,,,,gyr,-0.00174532923847,-0.0279252678156,-0.0436332300305
976,1644542429861226082,0.245166242123,-9.61051654816,0.225552946329,acc,,,
977,1644542429863239765,0.225552946329,-9.64974308014,0.274586200714,acc,,,
978,1644542429865253448,0.245166242123,-9.64974308014,0.245166242123,acc,,,
979,1644542429866161346,,,,gyr,0.00174532923847,-0.0279252678156,-0.0383972451091
980,1644542429867267132,0.274586200714,-9.66935634613,0.245166242123,acc,,,
981,1644542429869280815,0.225552946329,-9.62032318115,0.225552946329,acc,,,
982,1644542429871172667,,,,gyr,0.0,-0.0226892791688,-0.0279252678156
983,1644542429871294498,0.196132987738,-9.61051654816,0.245166242123,acc,,,
984,1644542429873308182,0.245166242123,-9.64974308014,0.196132987738,acc,,,
985,1644542429875321865,0.245166242123,-9.62032318115,0.225552946329,acc,,,
986,1644542429876183748,,,,gyr,-0.00174532923847,-0.0261799395084,-0.0226892791688
987,1644542429877337694,0.264779537916,-9.62032318115,0.245166242123,acc,,,
988,1644542429879351377,0.225552946329,-9.64974308014,0.196132987738,acc,,,
989,1644542429881195068,,,,gyr,-0.00174532923847,-0.0279252678156,-0.0209439508617
990,1644542429881365061,0.264779537916,-9.62032318115,0.166713044047,acc,,,
991,1644542429883378744,0.225552946329,-9.53206348419,0.196132987738,acc,,,
992,1644542429885392427,0.294199496508,-9.57129001617,0.137293100357,acc,,,
993,1644542429886206388,,,,gyr,0.0,-0.0418879017234,-0.0104719754308
994,1644542429887406111,0.264779537916,-9.58109664917,0.12748645246,acc,,,
995,1644542429889419794,0.245166242123,-9.66935634613,0.196132987738,acc,,,
996,1644542429891217470,,,,gyr,-0.00174532923847,-0.0680678412318,-0.0104719754308
997,1644542429891433239,0.313812792301,-9.7478094101,0.137293100357,acc,,,
998,1644542429893449068,0.294199496508,-9.7478094101,0.137293100357,acc,,,
999,1644542429895462751,0.245166242123,-9.61051654816,0.245166242123,acc,,,
1000,1644542429896228552,,,,gyr,0.0,-0.102974422276,-0.00523598771542
1001,1644542429897476673,0.245166242123,-9.61051654816,0.313812792301,acc,,,
1002,1644542429899490118,0.274586200714,-9.70858287811,0.274586200714,acc,,,
1003,1644542429901239634,,,,gyr,-0.00174532923847,-0.11344639957,-0.0104719754308
1004,1644542429901503801,0.264779537916,-9.67916297913,0.264779537916,acc,,,
1005,1644542429903517485,0.196132987738,-9.53206348419,0.313812792301,acc,,,
1006,1644542429905531168,0.245166242123,-9.62032318115,0.38245934248,acc,,,
1007,1644542429906250954,,,,gyr,0.0,-0.0959931090474,-0.00523598771542
1008,1644542429907546759,0.225552946329,-9.70858287811,0.313812792301,acc,,,
1009,1644542429909560442,0.274586200714,-9.70858287811,0.38245934248,acc,,,
1010,1644542429911262274,,,,gyr,-0.00349065847695,-0.0593411922455,-0.00349065847695
1011,1644542429911574125,0.274586200714,-9.66935634613,0.313812792301,acc,,,
1012,1644542429913587809,0.274586200714,-9.61051654816,0.225552946329,acc,,,
1013,1644542429915601492,0.264779537916,-9.7478094101,0.176519691944,acc,,,
1014,1644542429916271448,,,,gyr,-0.00174532923847,-0.0209439508617,-0.00349065847695
1015,1644542429917615175,0.274586200714,-9.70858287811,0.245166242123,acc,,,
1016,1644542429919631004,0.264779537916,-9.57129001617,0.166713044047,acc,,,
1017,1644542429921282768,,,,gyr,0.0,0.0,0.0
1018,1644542429921644688,0.274586200714,-9.67916297913,0.245166242123,acc,,,
1019,1644542429923658371,0.294199496508,-9.71838951111,0.196132987738,acc,,,
1020,1644542429925672054,0.294199496508,-9.66935634613,0.245166242123,acc,,,
1021,1644542429926293850,,,,gyr,0.0,0.0,-0.00523598771542
1022,1644542429927687645,0.245166242123,-9.61051654816,0.264779537916,acc,,,
1023,1644542429929701328,0.245166242123,-9.66935634613,0.245166242123,acc,,,
1024,1644542429931305170,,,,gyr,0.00174532923847,0.00174532923847,-0.0104719754308
1025,1644542429931715012,0.245166242123,-9.66935634613,0.245166242123,acc,,,
1026,1644542429933728695,0.245166242123,-9.61051654816,0.264779537916,acc,,,
1027,1644542429935744286,0.225552946329,-9.56148338318,0.225552946329,acc,,,
1028,1644542429936316490,,,,gyr,0.00174532923847,0.00349065847695,-0.0209439508617
1029,1644542429937757969,0.245166242123,-9.58109664917,0.245166242123,acc,,,
1030,1644542429939771652,0.245166242123,-9.61051654816,0.274586200714,acc,,,
1031,1644542429941327572,,,,gyr,0.0,0.0,-0.0209439508617
1032,1644542429941785574,0.245166242123,-9.64974308014,0.245166242123,acc,,,
1033,1644542429943801165,0.245166242123,-9.61051654816,0.274586200714,acc,,,
1034,1644542429945814848,0.264779537916,-9.70858287811,0.245166242123,acc,,,
1035,1644542429946338892,,,,gyr,0.0,0.0,-0.0296705961227
1036,1644542429947828531,0.225552946329,-9.67916297913,0.294199496508,acc,,,
1037,1644542429949842215,0.264779537916,-9.66935634613,0.313812792301,acc,,,
1038,1644542429951350212,,,,gyr,0.0,0.00349065847695,-0.0226892791688
1039,1644542429951855898,0.225552946329,-9.62032318115,0.274586200714,acc,,,
1040,1644542429953869581,0.225552946329,-9.64974308014,0.264779537916,acc,,,
1041,1644542429955883265,0.264779537916,-9.66935634613,0.274586200714,acc,,,
1042,1644542429956361294,,,,gyr,-0.00349065847695,0.0,-0.0296705961227
1043,1644542429957898855,0.294199496508,-9.61051654816,0.274586200714,acc,,,
1044,1644542429959912539,0.264779537916,-9.61051654816,0.274586200714,acc,,,
1045,1644542429961372614,,,,gyr,0.00174532923847,-0.00174532923847,-0.0279252678156
1046,1644542429961926222,0.274586200714,-9.64974308014,0.294199496508,acc,,,
1047,1644542429963939905,0.313812792301,-9.64974308014,0.245166242123,acc,,,
1048,1644542429965953827,0.313812792301,-9.64974308014,0.245166242123,acc,,,
1049,1644542429966383696,,,,gyr,0.0,-0.00174532923847,-0.0104719754308
1050,1644542429967969418,0.245166242123,-9.62032318115,0.176519691944,acc,,,
1051,1644542429969983101,0.245166242123,-9.64974308014,0.245166242123,acc,,,
1052,1644542429971394777,,,,gyr,-0.00174532923847,-0.00349065847695,0.0
1053,1644542429971996784,0.264779537916,-9.62032318115,0.245166242123,acc,,,
1054,1644542429974010468,0.264779537916,-9.62032318115,0.166713044047,acc,,,
1055,1644542429976026058,0.264779537916,-9.58109664917,0.166713044047,acc,,,
1056,1644542429976406097,,,,gyr,-0.0069813169539,-0.00523598771542,0.0104719754308
1057,1644542429978039742,0.264779537916,-9.64974308014,0.196132987738,acc,,,
1058,1644542429980053425,0.245166242123,-9.67916297913,0.264779537916,acc,,,
1059,1644542429981417179,,,,gyr,-0.00349065847695,-0.0139626339078,0.0174532923847
1060,1644542429982067108,0.245166242123,-9.62032318115,0.225552946329,acc,,,
1061,1644542429984080791,0.264779537916,-9.66935634613,0.137293100357,acc,,,
1062,1644542429986094475,0.274586200714,-9.64974308014,0.137293100357,acc,,,
1063,1644542429986428499,,,,gyr,-0.0069813169539,-0.0104719754308,0.0104719754308
1064,1644542429988110304,0.274586200714,-9.62032318115,0.166713044047,acc,,,
1065,1644542429990123987,0.264779537916,-9.61051654816,0.176519691944,acc,,,
1066,1644542429991439581,,,,gyr,-0.0069813169539,-0.00872664619237,0.0104719754308
1067,1644542429992137671,0.264779537916,-9.58109664917,0.137293100357,acc,,,
1068,1644542429994151354,0.264779537916,-9.62032318115,0.225552946329,acc,,,
1069,1644542429996165037,0.313812792301,-9.64974308014,0.12748645246,acc,,,
1070,1644542429996448994,,,,gyr,-0.00349065847695,-0.0139626339078,0.0104719754308
1071,1644542429998180628,0.294199496508,-9.64974308014,0.176519691944,acc,,,
1072,1644542430000194311,0.313812792301,-9.64974308014,0.0980664938688,acc,,,
1073,1644542430001460314,,,,gyr,-0.00349065847695,-0.0261799395084,0.0209439508617
1074,1644542430002207994,0.274586200714,-9.64974308014,0.0784531980753,acc,,,
1075,1644542430004221678,0.274586200714,-9.64974308014,0.0980664938688,acc,,,
1076,1644542430006237268,0.245166242123,-9.62032318115,0.196132987738,acc,,,
1077,1644542430006471395,,,,gyr,-0.00523598771542,-0.0383972451091,0.0226892791688
1078,1644542430008250952,0.274586200714,-9.61051654816,0.196132987738,acc,,,
1079,1644542430010264635,0.274586200714,-9.62032318115,0.176519691944,acc,,,
1080,1644542430011482716,,,,gyr,-0.00174532923847,-0.0523598790169,0.0279252678156
1081,1644542430012278557,0.274586200714,-9.64974308014,0.225552946329,acc,,,
1082,1644542430014294147,0.274586200714,-9.64974308014,0.176519691944,acc,,,
1083,1644542430016307831,0.274586200714,-9.62032318115,0.225552946329,acc,,,
1084,1644542430016493797,,,,gyr,-0.00349065847695,-0.0558505356312,0.0349065847695
1085,1644542430018321514,0.225552946329,-9.64974308014,0.313812792301,acc,,,
1086,1644542430020335197,0.225552946329,-9.62032318115,0.225552946329,acc,,,
1087,1644542430021504879,,,,gyr,-0.0069813169539,-0.0523598790169,0.0383972451091
1088,1644542430022348881,0.264779537916,-9.62032318115,0.274586200714,acc,,,
1089,1644542430024364471,0.264779537916,-9.62032318115,0.274586200714,acc,,,
1090,1644542430026378155,0.225552946329,-9.64974308014,0.225552946329,acc,,,
1091,1644542430026516199,,,,gyr,-0.00523598771542,-0.0383972451091,0.0436332300305
1092,1644542430028391838,0.196132987738,-9.64974308014,0.274586200714,acc,,,
1093,1644542430030405521,0.245166242123,-9.62032318115,0.274586200714,acc,,,
1094,1644542430031527281,,,,gyr,0.0,-0.0296705961227,0.0436332300305
1095,1644542430032419205,0.196132987738,-9.64974308014,0.245166242123,acc,,,
1096,1644542430034435034,0.225552946329,-9.66935634613,0.274586200714,acc,,,
1097,1644542430036448717,0.225552946329,-9.70858287811,0.274586200714,acc,,,
1098,1644542430036538601,,,,gyr,-0.00349065847695,-0.0279252678156,0.0436332300305
1099,1644542430038462400,0.176519691944,-9.62032318115,0.294199496508,acc,,,
1100,1644542430040476084,0.196132987738,-9.64974308014,0.245166242123,acc,,,
1101,1644542430041549921,,,,gyr,-0.00174532923847,-0.0174532923847,0.0436332300305
1102,1644542430042489767,0.225552946329,-9.64974308014,0.264779537916,acc,,,
1103,1644542430044505358,0.196132987738,-9.62032318115,0.294199496508,acc,,,
1104,1644542430046519041,0.166713044047,-9.64974308014,0.294199496508,acc,,,
1105,1644542430046561003,,,,gyr,-0.00523598771542,-0.0104719754308,0.0383972451091
1106,1644542430048532724,0.196132987738,-9.62032318115,0.274586200714,acc,,,
1107,1644542430050546408,0.176519691944,-9.64974308014,0.264779537916,acc,,,
1108,1644542430051572323,,,,gyr,-0.00349065847695,-0.00523598771542,0.0314159244299
1109,1644542430052560091,0.166713044047,-9.62032318115,0.264779537916,acc,,,
1110,1644542430054575682,0.245166242123,-9.61051654816,0.274586200714,acc,,,
1111,1644542430056583405,,,,gyr,-0.00523598771542,-0.00174532923847,0.0209439508617
1112,1644542430056589365,0.225552946329,-9.62032318115,0.225552946329,acc,,,
1113,1644542430058603048,0.245166242123,-9.61051654816,0.264779537916,acc,,,
1114,1644542430060616732,0.274586200714,-9.66935634613,0.245166242123,acc,,,
1115,1644542430061594725,,,,gyr,-0.00523598771542,-0.00174532923847,0.0174532923847
1116,1644542430062630415,0.245166242123,-9.66935634613,0.274586200714,acc,,,
1117,1644542430064644098,0.264779537916,-9.64974308014,0.245166242123,acc,,,
1118,1644542430066605806,,,,gyr,-0.00523598771542,0.00174532923847,0.0069813169539
1119,1644542430066659927,0.264779537916,-9.64974308014,0.196132987738,acc,,,
1120,1644542430068673611,0.264779537916,-9.66935634613,0.274586200714,acc,,,
1121,1644542430070687294,0.225552946329,-9.70858287811,0.245166242123,acc,,,
1122,1644542430071614981,,,,gyr,-0.00523598771542,0.0,0.0139626339078
1123,1644542430072700977,0.264779537916,-9.66935634613,0.264779537916,acc,,,
1124,1644542430074714661,0.274586200714,-9.64974308014,0.225552946329,acc,,,
1125,1644542430076626301,,,,gyr,-0.0104719754308,-0.00523598771542,0.0174532923847
1126,1644542430076730251,0.294199496508,-9.70858287811,0.245166242123,acc,,,
1127,1644542430078743935,0.313812792301,-9.62032318115,0.245166242123,acc,,,
1128,1644542430080757618,0.343232750893,-9.62032318115,0.196132987738,acc,,,
1129,1644542430081637383,,,,gyr,-0.0069813169539,-0.0104719754308,0.0279252678156
1130,1644542430082771301,0.313812792301,-9.62032318115,0.274586200714,acc,,,
1131,1644542430084786892,0.313812792301,-9.62032318115,0.294199496508,acc,,,
1132,1644542430086648703,,,,gyr,-0.0104719754308,-0.0104719754308,0.0383972451091
1133,1644542430086800575,0.274586200714,-9.66935634613,0.245166242123,acc,,,
1134,1644542430088814259,0.274586200714,-9.66935634613,0.245166242123,acc,,,
1135,1644542430090827942,0.294199496508,-9.66935634613,0.196132987738,acc,,,
1136,1644542430091660023,,,,gyr,-0.0069813169539,-0.0139626339078,0.0593411922455
1137,1644542430092843771,0.264779537916,-9.61051654816,0.245166242123,acc,,,
1138,1644542430094857454,0.264779537916,-9.61051654816,0.196132987738,acc,,,
1139,1644542430096671104,,,,gyr,-0.00523598771542,-0.0226892791688,0.0785398185253
1140,1644542430096871138,0.196132987738,-9.64974308014,0.196132987738,acc,,,
1141,1644542430098884821,0.196132987738,-9.61051654816,0.245166242123,acc,,,
1142,1644542430100898504,0.196132987738,-9.62032318115,0.196132987738,acc,,,
1143,1644542430101682186,,,,gyr,-0.00523598771542,-0.0349065847695,0.0872664600611
1144,1644542430102914095,0.166713044047,-9.61051654816,0.137293100357,acc,,,
1145,1644542430104927778,0.12748645246,-9.62032318115,0.196132987738,acc,,,
1146,1644542430106693268,,,,gyr,-0.00349065847695,-0.0471238903701,0.0942477807403
1147,1644542430106941462,0.12748645246,-9.66935634613,0.0784531980753,acc,,,
1148,1644542430108955145,0.12748645246,-9.62032318115,0.245166242123,acc,,,
1149,1644542430110968828,0.0392265990376,-9.58109664917,0.196132987738,acc,,,
1150,1644542430111704588,,,,gyr,-0.00523598771542,-0.069813169539,0.0942477807403
1151,1644542430112984419,0.0784531980753,-9.62032318115,0.196132987738,acc,,,
1152,1644542430114998102,0.0784531980753,-9.62032318115,0.196132987738,acc,,,
1153,1644542430116715908,,,,gyr,0.0,-0.0942477807403,0.0942477807403
1154,1644542430117011786,0.0980664938688,-9.64974308014,0.196132987738,acc,,,
1155,1644542430119025469,0.0686465501785,-9.62032318115,0.313812792301,acc,,,
1156,1644542430121039152,0.00980664975941,-9.62032318115,0.166713044047,acc,,,
1157,1644542430121726990,,,,gyr,0.0,-0.111701071262,0.0890117883682
1158,1644542430123052835,0.0294199492782,-9.62032318115,0.274586200714,acc,,,
1159,1644542430125066519,0.0392265990376,-9.62032318115,0.137293100357,acc,,,
1160,1644542430126738310,,,,gyr,-0.00349065847695,-0.115191727877,0.0872664600611
1161,1644542430127082348,0.0686465501785,-9.66935634613,0.274586200714,acc,,,
1162,1644542430129096031,0.0784531980753,-9.64974308014,0.245166242123,acc,,,
1163,1644542430131109715,0.12748645246,-9.62032318115,0.225552946329,acc,,,
1164,1644542430131749630,,,,gyr,-0.00523598771542,-0.11344639957,0.0715584978461
1165,1644542430133123398,0.166713044047,-9.61051654816,0.225552946329,acc,,,
1166,1644542430135138988,0.137293100357,-9.58109664917,0.166713044047,acc,,,
1167,1644542430136760473,,,,gyr,0.0,-0.0942477807403,0.0680678412318
1168,1644542430137152672,0.196132987738,-9.67916297913,0.166713044047,acc,,,
1169,1644542430139166355,0.225552946329,-9.58109664917,0.294199496508,acc,,,
1170,1644542430141180038,0.245166242123,-9.64974308014,0.166713044047,acc,,,
1171,1644542430141771793,,,,gyr,0.0,-0.0925024524331,0.0645771846175
1172,1644542430143193722,0.196132987738,-9.64974308014,0.176519691944,acc,,,
1173,1644542430145207167,0.264779537916,-9.66935634613,0.176519691944,acc,,,
1174,1644542430146782875,,,,gyr,-0.00174532923847,-0.0750491544604,0.0610865242779
1175,1644542430147220850,0.225552946329,-9.62032318115,0.274586200714,acc,,,
1176,1644542430149236679,0.245166242123,-9.66935634613,0.0980664938688,acc,,,
1177,1644542430151250362,0.196132987738,-9.61051654816,0.176519691944,acc,,,
1178,1644542430151792288,,,,gyr,-0.00174532923847,-0.0610865242779,0.0558505356312
1179,1644542430153263807,0.294199496508,-9.67916297913,0.225552946329,acc,,,
1180,1644542430155279636,0.274586200714,-9.64974308014,0.245166242123,acc,,,
1181,1644542430156803370,,,,gyr,-0.00349065847695,-0.0471238903701,0.0471238903701
1182,1644542430157293320,0.313812792301,-9.66935634613,0.225552946329,acc,,,
1183,1644542430159307003,0.313812792301,-9.64974308014,0.264779537916,acc,,,
1184,1644542430161320448,0.245166242123,-9.61051654816,0.264779537916,acc,,,
1185,1644542430161814451,,,,gyr,-0.00174532923847,-0.0349065847695,0.0471238903701
1186,1644542430163336515,0.274586200714,-9.64974308014,0.196132987738,acc,,,
1187,1644542430165350199,0.196132987738,-9.58109664917,0.176519691944,acc,,,
1188,1644542430166825771,,,,gyr,-0.00349065847695,-0.0226892791688,0.0349065847695
1189,1644542430167363882,0.225552946329,-9.66935634613,0.264779537916,acc,,,
1190,1644542430169377327,0.245166242123,-9.58109664917,0.176519691944,acc,,,
1191,1644542430171391010,0.225552946329,-9.61051654816,0.264779537916,acc,,,
1192,1644542430171836853,,,,gyr,0.00174532923847,-0.0174532923847,0.0383972451091
1193,1644542430173406839,0.0980664938688,-9.58109664917,0.245166242123,acc,,,
1194,1644542430175420523,0.166713044047,-9.67916297913,0.166713044047,acc,,,
1195,1644542430176848173,,,,gyr,0.0,-0.00349065847695,0.0296705961227
1196,1644542430177433968,0.166713044047,-9.62032318115,0.313812792301,acc,,,
1197,1644542430179447651,0.0784531980753,-9.56148338318,0.225552946329,acc,,,
1198,1644542430181461334,0.12748645246,-9.66935634613,0.196132987738,acc,,,
1199,1644542430181859493,,,,gyr,-0.00349065847695,0.0,0.0296705961227
1200,1644542430183477163,0.12748645246,-9.58109664917,0.274586200714,acc,,,
1201,1644542430185490608,0.137293100357,-9.62032318115,0.264779537916,acc,,,
1202,1644542430186870575,,,,gyr,-0.00523598771542,0.00174532923847,0.0191986225545
1203,1644542430187504292,0.0980664938688,-9.66935634613,0.264779537916,acc,,,
1204,1644542430189517975,0.12748645246,-9.58109664917,0.245166242123,acc,,,
1205,1644542430191533804,0.12748645246,-9.62032318115,0.362846046686,acc,,,
1206,1644542430191881895,,,,gyr,-0.00174532923847,0.0,0.00872664619237
1207,1644542430193547249,0.137293100357,-9.62032318115,0.264779537916,acc,,,
1208,1644542430195560932,0.0980664938688,-9.64974308014,0.245166242123,acc,,,
1209,1644542430196892738,,,,gyr,-0.00174532923847,0.0,0.0069813169539
1210,1644542430197577000,0.166713044047,-9.61051654816,0.274586200714,acc,,,
1211,1644542430199590683,0.176519691944,-9.67916297913,0.225552946329,acc,,,
1212,1644542430201604366,0.166713044047,-9.66935634613,0.264779537916,acc,,,
1213,1644542430201904058,,,,gyr,-0.00523598771542,-0.0069813169539,0.0069813169539
1214,1644542430203617811,0.137293100357,-9.58109664917,0.264779537916,acc,,,
1215,1644542430205633640,0.166713044047,-9.64974308014,0.274586200714,acc,,,
1216,1644542430206915379,,,,gyr,-0.00523598771542,-0.0104719754308,0.00872664619237
1217,1644542430207647324,0.137293100357,-9.58109664917,0.196132987738,acc,,,
1218,1644542430209661007,0.137293100357,-9.62032318115,0.313812792301,acc,,,
1219,1644542430211674452,0.12748645246,-9.56148338318,0.225552946329,acc,,,
1220,1644542430211926460,,,,gyr,-0.00174532923847,-0.00523598771542,0.0139626339078
1221,1644542430213690281,0.0980664938688,-9.61051654816,0.245166242123,acc,,,
1222,1644542430215703964,0.0980664938688,-9.61051654816,0.274586200714,acc,,,
1223,1644542430216937780,,,,gyr,-0.00174532923847,-0.0104719754308,0.0139626339078
1224,1644542430217717648,0.137293100357,-9.61051654816,0.294199496508,acc,,,
1225,1644542430219733238,0.137293100357,-9.62032318115,0.225552946329,acc,,,
1226,1644542430221746922,0.166713044047,-9.67916297913,0.176519691944,acc,,,
1227,1644542430221948624,,,,gyr,0.00174532923847,-0.00872664619237,0.0139626339078
1228,1644542430223760605,0.166713044047,-9.66935634613,0.264779537916,acc,,,
1229,1644542430225774288,0.176519691944,-9.62032318115,0.245166242123,acc,,,
1230,1644542430226958036,,,,gyr,-0.00174532923847,-0.00523598771542,0.0104719754308
1231,1644542430227787733,0.176519691944,-9.67916297913,0.196132987738,acc,,,
1232,1644542430229803562,0.137293100357,-9.58109664917,0.166713044047,acc,,,
1233,1644542430231817245,0.176519691944,-9.67916297913,0.196132987738,acc,,,
1234,1644542430231969357,,,,gyr,0.0,-0.00523598771542,0.00872664619237
1235,1644542430233830929,0.166713044047,-9.64974308014,0.245166242123,acc,,,
1236,1644542430235844374,0.166713044047,-9.61051654816,0.225552946329,acc,,,
1237,1644542430236980438,,,,gyr,-0.00523598771542,-0.0104719754308,0.0174532923847
1238,1644542430237860441,0.196132987738,-9.58109664917,0.274586200714,acc,,,
1239,1644542430239874125,0.0980664938688,-9.66935634613,0.137293100357,acc,,,
1240,1644542430241887808,0.12748645246,-9.62032318115,0.245166242123,acc,,,
1241,1644542430241991758,,,,gyr,0.0,-0.0104719754308,0.0174532923847
1242,1644542430243903399,0.12748645246,-9.62032318115,0.196132987738,acc,,,
1243,1644542430245917082,0.12748645246,-9.64974308014,0.225552946329,acc,,,
1244,1644542430247002602,,,,gyr,-0.00349065847695,-0.00523598771542,0.0104719754308
1245,1644542430247930765,0.0980664938688,-9.64974308014,0.225552946329,acc,,,
1246,1644542430249946356,0.137293100357,-9.61051654816,0.196132987738,acc,,,
1247,1644542430251960039,0.166713044047,-9.57129001617,0.196132987738,acc,,,
1248,1644542430252013922,,,,gyr,0.0,0.0,0.00523598771542
1249,1644542430253973722,0.12748645246,-9.66935634613,0.225552946329,acc,,,
1250,1644542430255989313,0.166713044047,-9.62032318115,0.196132987738,acc,,,
1251,1644542430257025242,,,,gyr,-0.00349065847695,0.0,0.00174532923847
1252,1644542430258002996,0.12748645246,-9.64974308014,0.264779537916,acc,,,
1253,1644542430260016680,0.196132987738,-9.67916297913,0.264779537916,acc,,,
1254,1644542430262030363,0.166713044047,-9.66935634613,0.196132987738,acc,,,
1255,1644542430262036324,,,,gyr,0.0,0.0,-0.0069813169539
1256,1644542430264045954,0.166713044047,-9.61051654816,0.176519691944,acc,,,
1257,1644542430266059637,0.166713044047,-9.62032318115,0.137293100357,acc,,,
1258,1644542430267047644,,,,gyr,0.00174532923847,0.00523598771542,-0.00523598771542
1259,1644542430268073320,0.137293100357,-9.66935634613,0.176519691944,acc,,,
1260,1644542430270087004,0.137293100357,-9.64974308014,0.264779537916,acc,,,
1261,1644542430272058487,,,,gyr,-0.00349065847695,0.00523598771542,-0.0069813169539
1262,1644542430272102594,0.137293100357,-9.62032318115,0.245166242123,acc,,,
1263,1644542430274116278,0.12748645246,-9.62032318115,0.274586200714,acc,,,
1264,1644542430276129961,0.137293100357,-9.64974308014,0.225552946329,acc,,,
1265,1644542430277069807,,,,gyr,-0.00349065847695,0.00523598771542,-0.00872664619237
1266,1644542430278143644,0.12748645246,-9.61051654816,0.196132987738,acc,,,
1267,1644542430280159473,0.137293100357,-9.61051654816,0.166713044047,acc,,,
1268,1644542430282081127,,,,gyr,-0.00174532923847,0.0139626339078,-0.0139626339078
1269,1644542430282173157,0.12748645246,-9.62032318115,0.166713044047,acc,,,
1270,1644542430284186840,0.176519691944,-9.64974308014,0.166713044047,acc,,,
1271,1644542430286202431,0.166713044047,-9.66935634613,0.225552946329,acc,,,
1272,1644542430287092209,,,,gyr,-0.00174532923847,0.0174532923847,-0.0209439508617
1273,1644542430288216114,0.166713044047,-9.64974308014,0.166713044047,acc,,,
1274,1644542430290229797,0.166713044047,-9.62032318115,0.245166242123,acc,,,
1275,1644542430292103291,,,,gyr,0.0,0.00523598771542,-0.0226892791688
1276,1644542430292243481,0.176519691944,-9.62032318115,0.176519691944,acc,,,
1277,1644542430294257164,0.196132987738,-9.64974308014,0.176519691944,acc,,,
1278,1644542430296272755,0.225552946329,-9.62032318115,0.196132987738,acc,,,
1279,1644542430297114611,,,,gyr,0.0,0.00523598771542,-0.0279252678156
1280,1644542430298286438,0.176519691944,-9.61051654816,0.196132987738,acc,,,
1281,1644542430300300121,0.166713044047,-9.66935634613,0.196132987738,acc,,,
1282,1644542430302125692,,,,gyr,0.0,0.00349065847695,-0.0296705961227
1283,1644542430302313805,0.12748645246,-9.67916297913,0.176519691944,acc,,,
1284,1644542430304329395,0.12748645246,-9.64974308014,0.176519691944,acc,,,
1285,1644542430306343079,0.12748645246,-9.62032318115,0.166713044047,acc,,,
1286,1644542430307135105,,,,gyr,-0.00349065847695,-0.00523598771542,-0.0349065847695
1287,1644542430308356762,0.0784531980753,-9.66935634613,0.166713044047,acc,,,
1288,1644542430310370445,0.0980664938688,-9.64974308014,0.245166242123,acc,,,
1289,1644542430312145948,,,,gyr,-0.00523598771542,-0.0104719754308,-0.0436332300305
1290,1644542430312386036,0.137293100357,-9.61051654816,0.196132987738,acc,,,
1291,1644542430314399719,0.166713044047,-9.64974308014,0.196132987738,acc,,,
1292,1644542430316413403,0.196132987738,-9.64974308014,0.245166242123,acc,,,
1293,1644542430317157269,,,,gyr,-0.00872664619237,-0.0279252678156,-0.0558505356312
1294,1644542430318427086,0.196132987738,-9.64974308014,0.225552946329,acc,,,
1295,1644542430320442677,0.176519691944,-9.61051654816,0.264779537916,acc,,,
1296,1644542430322168350,,,,gyr,-0.00523598771542,-0.0383972451091,-0.0645771846175
1297,1644542430322456360,0.196132987738,-9.62032318115,0.225552946329,acc,,,
1298,1644542430324470043,0.176519691944,-9.62032318115,0.225552946329,acc,,,
1299,1644542430326483727,0.12748645246,-9.61051654816,0.196132987738,acc,,,
1300,1644542430327179670,,,,gyr,-0.0069813169539,-0.0471238903701,-0.069813169539
1301,1644542430328499556,0.166713044047,-9.57129001617,0.264779537916,acc,,,
1302,1644542430330513239,0.166713044047,-9.62032318115,0.264779537916,acc,,,
1303,1644542430332190752,,,,gyr,-0.00523598771542,-0.0558505356312,-0.0715584978461
1304,1644542430332526922,0.137293100357,-9.62032318115,0.274586200714,acc,,,
1305,1644542430334540367,0.137293100357,-9.66935634613,0.294199496508,acc,,,
1306,1644542430336554050,0.264779537916,-9.64974308014,0.313812792301,acc,,,
1307,1644542430337201834,,,,gyr,-0.00523598771542,-0.0523598790169,-0.0750491544604
1308,1644542430338567734,0.264779537916,-9.64974308014,0.313812792301,acc,,,
1309,1644542430340583563,0.176519691944,-9.66935634613,0.343232750893,acc,,,
1310,1644542430342213154,,,,gyr,-0.0069813169539,-0.0383972451091,-0.069813169539
1311,1644542430342597246,0.225552946329,-9.67916297913,0.343232750893,acc,,,
1312,1644542430344610929,0.245166242123,-9.67916297913,0.313812792301,acc,,,
1313,1644542430346624613,0.196132987738,-9.64974308014,0.264779537916,acc,,,
1314,1644542430347224474,,,,gyr,-0.0069813169539,-0.0139626339078,-0.0593411922455
1315,1644542430348638296,0.196132987738,-9.64974308014,0.313812792301,acc,,,
1316,1644542430350653887,0.137293100357,-9.67916297913,0.245166242123,acc,,,
1317,1644542430352235556,,,,gyr,-0.00523598771542,0.00349065847695,-0.0383972451091
1318,1644542430352667570,0.166713044047,-9.62032318115,0.313812792301,acc,,,
1319,1644542430354681253,0.176519691944,-9.62032318115,0.274586200714,acc,,,
1320,1644542430356696844,0.196132987738,-9.64974308014,0.294199496508,acc,,,
1321,1644542430357246637,,,,gyr,-0.00174532923847,0.00349065847695,-0.0349065847695
1322,1644542430358710527,0.176519691944,-9.58109664917,0.294199496508,acc,,,
1323,1644542430360726118,0.196132987738,-9.62032318115,0.294199496508,acc,,,
1324,1644542430362257719,,,,gyr,-0.00174532923847,0.0174532923847,-0.0296705961227
1325,1644542430362739801,0.225552946329,-9.62032318115,0.294199496508,acc,,,
1326,1644542430364753485,0.245166242123,-9.64974308014,0.274586200714,acc,,,
1327,1644542430366767168,0.225552946329,-9.64974308014,0.313812792301,acc,,,
1328,1644542430367269039,,,,gyr,-0.00174532923847,0.0279252678156,-0.0209439508617
1329,1644542430368780851,0.176519691944,-9.66935634613,0.264779537916,acc,,,
1330,1644542430370796442,0.225552946329,-9.66935634613,0.274586200714,acc,,,
1331,1644542430372280359,,,,gyr,-0.00523598771542,0.0279252678156,-0.00872664619237
1332,1644542430372810125,0.225552946329,-9.66935634613,0.294199496508,acc,,,
1333,1644542430374825716,0.137293100357,-9.66935634613,0.294199496508,acc,,,
1334,1644542430376839399,0.166713044047,-9.64974308014,0.264779537916,acc,,,
1335,1644542430377291203,,,,gyr,-0.00523598771542,0.0436332300305,0.0
1336,1644542430378853083,0.176519691944,-9.64974308014,0.313812792301,acc,,,
1337,1644542430380866766,0.196132987738,-9.66935634613,0.245166242123,acc,,,
1338,1644542430382300615,,,,gyr,-0.00349065847695,0.0715584978461,0.0069813169539
1339,1644542430382882357,0.245166242123,-9.64974308014,0.196132987738,acc,,,
1340,1644542430384896040,0.225552946329,-9.62032318115,0.176519691944,acc,,,
1341,1644542430386909723,0.245166242123,-9.58109664917,0.0980664938688,acc,,,
1342,1644542430387311697,,,,gyr,-0.00349065847695,0.0767944902182,0.0
1343,1644542430388925314,0.196132987738,-9.66935634613,0.137293100357,acc,,,
1344,1644542430390938997,0.137293100357,-9.66935634613,0.245166242123,acc,,,
1345,1644542430392322779,,,,gyr,-0.00174532923847,0.0261799395084,-0.0226892791688
1346,1644542430392952681,0.225552946329,-9.64974308014,0.225552946329,acc,,,
1347,1644542430394966364,0.245166242123,-9.62032318115,0.196132987738,acc,,,
1348,1644542430396982193,0.313812792301,-9.64974308014,0.176519691944,acc,,,
1349,1644542430397334099,,,,gyr,-0.00349065847695,0.0139626339078,-0.0383972451091
1350,1644542430398995638,0.264779537916,-9.64974308014,0.225552946329,acc,,,
1351,1644542430401009321,0.264779537916,-9.62032318115,0.166713044047,acc,,,
1352,1644542430402345181,,,,gyr,-0.00174532923847,0.0139626339078,-0.0349065847695
1353,1644542430403023005,0.176519691944,-9.66935634613,0.176519691944,acc,,,
1354,1644542430405038834,0.225552946329,-9.64974308014,0.225552946329,acc,,,
1355,1644542430407052517,0.245166242123,-9.62032318115,0.196132987738,acc,,,
1356,1644542430407356501,,,,gyr,-0.00349065847695,-0.00349065847695,-0.0383972451091
1357,1644542430409066200,0.225552946329,-9.62032318115,0.225552946329,acc,,,
1358,1644542430411079884,0.196132987738,-9.64974308014,0.196132987738,acc,,,
1359,1644542430412367344,,,,gyr,-0.00872664619237,-0.00174532923847,-0.0349065847695
1360,1644542430413093328,0.264779537916,-9.62032318115,0.196132987738,acc,,,
1361,1644542430415109158,0.264779537916,-9.64974308014,0.166713044047,acc,,,
1362,1644542430417122841,0.245166242123,-9.62032318115,0.176519691944,acc,,,
1363,1644542430417378664,,,,gyr,-0.00349065847695,-0.00349065847695,-0.0383972451091
1364,1644542430419136524,0.294199496508,-9.64974308014,0.176519691944,acc,,,
1365,1644542430421150208,0.294199496508,-9.62032318115,0.12748645246,acc,,,
1366,1644542430422389984,,,,gyr,-0.0069813169539,-0.0104719754308,-0.0383972451091
1367,1644542430423165798,0.313812792301,-9.64974308014,0.137293100357,acc,,,
1368,1644542430425179482,0.274586200714,-9.62032318115,0.166713044047,acc,,,
1369,1644542430427193165,0.245166242123,-9.64974308014,0.176519691944,acc,,,
1370,1644542430427400827,,,,gyr,-0.0069813169539,-0.0296705961227,-0.0226892791688
1371,1644542430429208755,0.196132987738,-9.61051654816,0.196132987738,acc,,,
1372,1644542430431222439,0.196132987738,-9.61051654816,0.12748645246,acc,,,
1373,1644542430432412148,,,,gyr,-0.00872664619237,-0.069813169539,-0.0261799395084
1374,1644542430433236122,0.245166242123,-9.57129001617,0.196132987738,acc,,,
1375,1644542430435249805,0.196132987738,-9.62032318115,0.166713044047,acc,,,
1376,1644542430437265396,0.166713044047,-9.62032318115,0.225552946329,acc,,,
1377,1644542430437423229,,,,gyr,-0.00174532923847,-0.0872664600611,-0.0349065847695
1378,1644542430439279079,0.225552946329,-9.58109664917,0.225552946329,acc,,,
1379,1644542430441292763,0.225552946329,-9.62032318115,0.264779537916,acc,,,
1380,1644542430442434549,,,,gyr,-0.00523598771542,-0.0890117883682,-0.0226892791688
1381,1644542430443308353,0.245166242123,-9.64974308014,0.225552946329,acc,,,
1382,1644542430445322037,0.264779537916,-9.64974308014,0.176519691944,acc,,,
1383,1644542430447335720,0.294199496508,-9.64974308014,0.176519691944,acc,,,
1384,1644542430447445631,,,,gyr,-0.0104719754308,-0.0610865242779,-0.00349065847695
1385,1644542430449351311,0.264779537916,-9.62032318115,0.176519691944,acc,,,
1386,1644542430451364994,0.38245934248,-9.62032318115,0.196132987738,acc,,,
1387,1644542430452456713,,,,gyr,-0.00523598771542,-0.0191986225545,0.0296705961227
1388,1644542430453378677,0.264779537916,-9.64974308014,0.245166242123,acc,,,
1389,1644542430455394268,0.166713044047,-9.64974308014,0.176519691944,acc,,,
1390,1644542430457407951,0.137293100357,-9.64974308014,0.225552946329,acc,,,
1391,1644542430457466125,,,,gyr,-0.00523598771542,0.00349065847695,0.0558505356312
1392,1644542430459421635,0.176519691944,-9.64974308014,0.225552946329,acc,,,
1393,1644542430461435318,0.196132987738,-9.67916297913,0.264779537916,acc,,,
1394,1644542430462476969,,,,gyr,-0.00349065847695,0.0226892791688,0.069813169539
1395,1644542430463449001,0.264779537916,-9.62032318115,0.264779537916,acc,,,
1396,1644542430465464592,0.245166242123,-9.61051654816,0.176519691944,acc,,,
1397,1644542430467478275,0.245166242123,-9.70858287811,0.196132987738,acc,,,
1398,1644542430467488289,,,,gyr,-0.00523598771542,0.0506145469844,0.0785398185253
1399,1644542430469491959,0.196132987738,-9.61051654816,0.196132987738,acc,,,
1400,1644542430471507549,0.225552946329,-9.61051654816,0.176519691944,acc,,,
1401,1644542430472499609,,,,gyr,-0.00523598771542,0.0506145469844,0.0715584978461
1402,1644542430473521233,0.245166242123,-9.64974308014,0.225552946329,acc,,,
1403,1644542430475534916,0.196132987738,-9.64974308014,0.196132987738,acc,,,
1404,1644542430477510452,,,,gyr,0.0,0.0383972451091,0.0645771846175
1405,1644542430477548599,0.196132987738,-9.62032318115,0.196132987738,acc,,,
1406,1644542430479564190,0.176519691944,-9.64974308014,0.245166242123,acc,,,
1407,1644542430481577873,0.176519691944,-9.62032318115,0.264779537916,acc,,,
1408,1644542430482521772,,,,gyr,-0.00174532923847,0.0383972451091,0.0593411922455
1409,1644542430483591557,0.245166242123,-9.67916297913,0.274586200714,acc,,,
1410,1644542430485605240,0.196132987738,-9.64974308014,0.225552946329,acc,,,
1411,1644542430487532854,,,,gyr,-0.00872664619237,0.0296705961227,0.0471238903701
1412,1644542430487618923,0.196132987738,-9.62032318115,0.196132987738,acc,,,
1413,1644542430489634514,0.176519691944,-9.7478094101,0.313812792301,acc,,,
1414,1644542430491648197,0.176519691944,-9.71838951111,0.362846046686,acc,,,
1415,1644542430492544174,,,,gyr,-0.0174532923847,0.0,0.0209439508617
1416,1644542430493661880,0.225552946329,-9.78703689575,0.490332484245,acc,,,
1417,1644542430495675564,0.225552946329,-9.83607006073,0.57859236002,acc,,,
1418,1644542430497555256,,,,gyr,-0.0349065847695,0.00349065847695,0.0174532923847
1419,1644542430497689247,0.196132987738,-9.81645679474,0.558979034424,acc,,,
1420,1644542430499702930,0.264779537916,-9.78703689575,0.529559075832,acc,,,
1421,1644542430501716614,0.264779537916,-9.78703689575,0.470719188452,acc,,,
1422,1644542430502566338,,,,gyr,-0.0977384373546,0.0174532923847,0.0296705961227
1423,1644542430503732204,0.274586200714,-9.7478094101,0.490332484245,acc,,,
1424,1644542430505745888,0.274586200714,-9.75761604309,0.421685934067,acc,,,
1425,1644542430507577658,,,,gyr,-0.157079637051,0.0314159244299,0.0523598790169
1426,1644542430507759571,0.225552946329,-9.7478094101,0.470719188452,acc,,,
1427,1644542430509773254,0.176519691944,-9.75761604309,0.421685934067,acc,,,
1428,1644542430511786938,0.196132987738,-9.71838951111,0.38245934248,acc,,,
1429,1644542430512588739,,,,gyr,-0.202458187938,0.0383972451091,0.0767944902182
1430,1644542430513802528,0.196132987738,-9.67916297913,0.38245934248,acc,,,
1431,1644542430515816212,0.166713044047,-9.64974308014,0.362846046686,acc,,,
1432,1644542430517599821,,,,gyr,-0.237364768982,0.0383972451091,0.0785398185253
1433,1644542430517829895,0.196132987738,-9.42419052124,0.0784531980753,acc,,,
1434,1644542430519843578,0.245166242123,-9.58109664917,0.0686465501785,acc,,,
1435,1644542430521857262,0.166713044047,-9.70858287811,0.294199496508,acc,,,
1436,1644542430522611141,,,,gyr,-0.237364768982,0.0174532923847,0.0837758034468
1437,1644542430523872852,0.0980664938688,-9.71838951111,0.451105892658,acc,,,
1438,1644542430525886774,0.166713044047,-9.75761604309,0.470719188452,acc,,,
1439,1644542430527622461,,,,gyr,-0.226892799139,-0.00174532923847,0.069813169539
1440,1644542430527900696,0.196132987738,-9.80665016174,0.451105892658,acc,,,
1441,1644542430529914379,0.176519691944,-9.75761604309,0.451105892658,acc,,,
1442,1644542430531930208,0.176519691944,-9.67916297913,0.313812792301,acc,,,
1443,1644542430532632113,,,,gyr,-0.267035365105,0.0104719754308,0.0855211317539
1444,1644542430533944130,0.166713044047,-9.66935634613,0.196132987738,acc,,,
1445,1644542430535957813,0.176519691944,-9.67916297913,0.264779537916,acc,,,
1446,1644542430537643909,,,,gyr,-0.310668617487,0.0296705961227,0.104719758034
1447,1644542430537971735,0.196132987738,-9.62032318115,0.0980664938688,acc,,,
1448,1644542430539985657,0.225552946329,-9.57129001617,-0.00980664975941,acc,,,
1449,1644542430541999340,0.176519691944,-9.58109664917,-0.0686465501785,acc,,,
1450,1644542430542655230,,,,gyr,-0.319395244122,0.0418879017234,0.115191727877
1451,1644542430544013262,0.166713044047,-9.53206348419,-0.0784531980753,acc,,,
1452,1644542430546027184,0.176519691944,-9.57129001617,-0.12748645246,acc,,,
1453,1644542430547667027,,,,gyr,-0.305432617664,0.0471238903701,0.130899697542
1454,1644542430548043013,0.137293100357,-9.56148338318,-0.0784531980753,acc,,,
1455,1644542430550056696,0.0980664938688,-9.53206348419,-0.0980664938688,acc,,,
1456,1644542430552070618,0.0980664938688,-9.5222568512,-0.137293100357,acc,,,
1457,1644542430552678585,,,,gyr,-0.272271364927,0.0436332300305,0.129154369235
1458,1644542430554084539,0.137293100357,-9.5222568512,-0.137293100357,acc,,,
1459,1644542430556098223,0.137293100357,-9.53206348419,-0.176519691944,acc,,,
1460,1644542430557689905,,,,gyr,-0.237364768982,0.0261799395084,0.115191727877
1461,1644542430558114052,0.0980664938688,-9.53206348419,-0.166713044047,acc,,,
1462,1644542430560127974,0.12748645246,-9.61051654816,-0.0980664938688,acc,,,
1463,1644542430562143803,0.0784531980753,-9.62032318115,0.0294199492782,acc,,,
1464,1644542430562701702,,,,gyr,-0.197222203016,0.00349065847695,0.101229093969
1465,1644542430564157724,0.0980664938688,-9.58109664917,0.0,acc,,,
1466,1644542430566171646,0.0784531980753,-9.58109664917,0.0,acc,,,
1467,1644542430567713261,,,,gyr,-0.174532920122,-0.00174532923847,0.0959931090474
1468,1644542430568187475,0.0784531980753,-9.62032318115,0.0294199492782,acc,,,
1469,1644542430570201397,0.0392265990376,-9.61051654816,0.0294199492782,acc,,,
1470,1644542430572213173,0.0392265990376,-9.58109664917,0.00980664975941,acc,,,
1471,1644542430572725296,,,,gyr,-0.171042263508,-0.00523598771542,0.0925024524331
1472,1644542430574227095,0.0392265990376,-9.58109664917,-0.0294199492782,acc,,,
1473,1644542430576243162,0.0784531980753,-9.57129001617,0.0,acc,,,
1474,1644542430577737093,,,,gyr,-0.165806278586,-0.00523598771542,0.0785398185253
1475,1644542430578257084,0.0784531980753,-9.62032318115,-0.00980664975941,acc,,,
1476,1644542430580271006,0.0392265990376,-9.5222568512,0.0,acc,,,
1477,1644542430582286835,0.12748645246,-9.57129001617,0.00980664975941,acc,,,
1478,1644542430582748890,,,,gyr,-0.141371667385,-0.0174532923847,0.0680678412318
1479,1644542430584298849,0.0784531980753,-9.62032318115,-0.0294199492782,acc,,,
1480,1644542430586312771,0.0686465501785,-9.58109664917,-0.0392265990376,acc,,,
1481,1644542430587760448,,,,gyr,-0.120427720249,-0.0296705961227,0.0471238903701
1482,1644542430588330507,0.0784531980753,-9.43399715424,0.12748645246,acc,,,
1483,1644542430590344429,0.225552946329,-9.61051654816,0.343232750893,acc,,,
1484,1644542430592356443,0.196132987738,-10.2087221146,0.0784531980753,acc,,,
1485,1644542430592772484,,,,gyr,-0.0890117883682,-0.0296705961227,0.0314159244299
1486,1644542430594368458,-0.0784531980753,-9.7478094101,-0.0784531980753,acc,,,
1487,1644542430596384287,0.0,-9.56148338318,-0.0392265990376,acc,,,
1488,1644542430597784281,,,,gyr,-0.122173048556,0.0,0.0506145469844
1489,1644542430598400116,0.245166242123,-9.7478094101,0.0,acc,,,
1490,1644542430600414038,0.245166242123,-9.66935634613,0.0686465501785,acc,,,
1491,1644542430602429867,0.0980664938688,-9.66935634613,0.12748645246,acc,,,
1492,1644542430602795839,,,,gyr,-0.179768905044,0.0349065847695,0.0471238903701
1493,1644542430604443789,0.0392265990376,-9.58109664917,0.00980664975941,acc,,,
1494,1644542430606457710,0.0392265990376,-9.58109664917,-0.0294199492782,acc,,,
1495,1644542430607807636,,,,gyr,-0.193731546402,0.0610865242779,0.0645771846175
1496,1644542430608471632,0.12748645246,-9.58109664917,-0.0980664938688,acc,,,
1497,1644542430610485554,0.137293100357,-9.58109664917,-0.137293100357,acc,,,
1498,1644542430612501383,0.137293100357,-9.5222568512,-0.137293100357,acc,,,
1499,1644542430612819672,,,,gyr,-0.185004904866,0.0558505356312,0.0506145469844
1500,1644542430614515305,0.166713044047,-9.57129001617,-0.166713044047,acc,,,
1501,1644542430616531134,0.176519691944,-9.61051654816,-0.12748645246,acc,,,
1502,1644542430617829323,,,,gyr,-0.157079637051,0.0436332300305,0.0349065847695
1503,1644542430618545055,0.166713044047,-9.61051654816,-0.0294199492782,acc,,,
1504,1644542430620561361,0.0980664938688,-9.57129001617,0.0294199492782,acc,,,
1505,1644542430622575045,0.137293100357,-9.5222568512,0.166713044047,acc,,,
1506,1644542430622841120,,,,gyr,-0.118682384491,0.0226892791688,0.0296705961227
1507,1644542430624588966,0.0980664938688,-9.62032318115,0.176519691944,acc,,,
1508,1644542430626605034,0.0392265990376,-9.56148338318,0.38245934248,acc,,,
1509,1644542430627852678,,,,gyr,-0.0837758034468,0.0,0.0226892791688
1510,1644542430628618956,0.0686465501785,-9.88510322571,0.176519691944,acc,,,
1511,1644542430630632877,-0.0392265990376,-9.61051654816,0.0784531980753,acc,,,
1512,1644542430632646799,0.0,-9.38496398926,0.264779537916,acc,,,
1513,1644542430632864714,,,,gyr,-0.0750491544604,-0.0226892791688,0.0104719754308
1514,1644542430634662628,0.176519691944,-9.88510322571,0.225552946329,acc,,,
1515,1644542430636676550,0.0980664938688,-9.98316955566,0.0,acc,,,
1516,1644542430637876511,,,,gyr,-0.0802851468325,-0.0279252678156,-0.0104719754308
1517,1644542430638688564,-0.0392265990376,-9.62032318115,-0.0784531980753,acc,,,
1518,1644542430640704393,0.0686465501785,-9.5222568512,0.0,acc,,,
1519,1644542430642720222,0.196132987738,-9.70858287811,0.0294199492782,acc,,,
1520,1644542430642888069,,,,gyr,-0.144862323999,-0.0349065847695,-0.0104719754308
1521,1644542430644734144,0.166713044047,-9.39477062225,0.12748645246,acc,,,
1522,1644542430646749973,0.245166242123,-9.21825122833,0.509945809841,acc,,,
1523,1644542430647899866,,,,gyr,-0.153588980436,-0.0226892791688,-0.00523598771542
1524,1644542430648763895,0.402072638273,-9.71838951111,0.627625584602,acc,,,
1525,1644542430650777817,0.245166242123,-9.86548995972,-0.00980664975941,acc,,,
1526,1644542430652793646,0.0686465501785,-9.07115077972,0.0392265990376,acc,,,
1527,1644542430652911901,,,,gyr,-0.0855211317539,-0.0279252678156,0.0104719754308
1528,1644542430654807568,0.0980664938688,-9.39477062225,0.0392265990376,acc,,,
1529,1644542430656821489,0.0686465501785,-9.49283695221,-0.137293100357,acc,,,
1530,1644542430657923698,,,,gyr,-0.0191986225545,-0.0837758034468,0.0191986225545
1531,1644542430658835411,0.00980664975941,-8.95347118378,-0.137293100357,acc,,,
1532,1644542430660851240,0.176519691944,-9.09076404572,0.0,acc,,,
1533,1644542430662865162,0.264779537916,-9.45361042023,-0.176519691944,acc,,,
1534,1644542430662935257,,,,gyr,0.109955742955,-0.11344639957,0.0
1535,1644542430664881229,0.0392265990376,-9.16921710968,0.00980664975941,acc,,,
1536,1644542430666895151,0.12748645246,-9.45361042023,0.0,acc,,,
1537,1644542430667947054,,,,gyr,0.293215304613,-0.106465086341,-0.00523598771542
1538,1644542430668909073,0.0686465501785,-10.3656291962,-0.294199496508,acc,,,
1539,1644542430670922995,-0.0686465501785,-9.64974308014,-0.38245934248,acc,,,
1540,1644542430672936916,-0.12748645246,-9.1299905777,-0.264779537916,acc,,,
1541,1644542430672959089,,,,gyr,0.361283153296,-0.118682384491,-0.0104719754308
1542,1644542430674954891,0.176519691944,-9.31631755829,0.0686465501785,acc,,,
1543,1644542430676968813,0.245166242123,-9.34573745728,0.294199496508,acc,,,
1544,1644542430677970648,,,,gyr,0.331612557173,-0.0925024524331,-0.0104719754308
1545,1644542430678984642,0.0980664938688,-9.86548995972,0.196132987738,acc,,,
1546,1644542430680994511,0.0,-9.88510322571,-0.0686465501785,acc,,,
1547,1644542430682982445,,,,gyr,0.431096315384,-0.0436332300305,0.0
1548,1644542430683010578,0.0392265990376,-9.48303031921,-0.0784531980753,acc,,,
1549,1644542430685024500,0.0392265990376,-10.0910425186,-0.274586200714,acc,,,
1550,1644542430687040329,0.0784531980753,-9.57129001617,-0.225552946329,acc,,,
1551,1644542430687994480,,,,gyr,0.370009809732,-0.0279252678156,0.0104719754308
1552,1644542430689054251,0.0784531980753,-9.83607006073,-0.274586200714,acc,,,
1553,1644542430691068172,0.0980664938688,-9.70858287811,-0.274586200714,acc,,,
1554,1644542430693006039,,,,gyr,0.314159274101,-0.0104719754308,0.0139626339078
1555,1644542430693082094,0.0980664938688,-9.53206348419,-0.225552946329,acc,,,
1556,1644542430695096016,0.12748645246,-9.38496398926,-0.0980664938688,acc,,,
1557,1644542430697111845,0.12748645246,-9.2868976593,0.00980664975941,acc,,,
1558,1644542430698015928,,,,gyr,0.293215304613,0.0069813169539,0.0279252678156
1559,1644542430699127913,0.0980664938688,-9.43399715424,0.12748645246,acc,,,
1560,1644542430701141834,0.0686465501785,-9.70858287811,0.196132987738,acc,,,
1561,1644542430703027487,,,,gyr,0.397935062647,0.0209439508617,0.0296705961227
1562,1644542430703153610,0.00980664975941,-10.4931154251,-0.137293100357,acc,,,
1563,1644542430705167532,-0.0294199492782,-9.43399715424,-0.0294199492782,acc,,,
1564,1644542430707183599,0.0392265990376,-9.61051654816,0.0,acc,,,
